time,seconds_elapsed,z,y,x
1713358336889513000,0.165512939453125,-0.6289749145507812,-0.1341395378112793,0.1124720573425293
1713358336899481900,0.17548193359375,-0.6717958450317383,-1.0390920639038086,0.182090163230896
1713358336909461000,0.1854609375,-1.3952131271362305,-1.5619797706604004,-0.2132420539855957
1713358336919440400,0.1954404296875,-1.0197362899780273,-1.0954923629760742,0.6639062166213989
1713358336929389000,0.20538916015625,-1.6993303298950195,-0.24579334259033203,-1.3228492736816406
1713358336939368200,0.2153681640625,-1.8186225891113281,0.15615320205688477,0.18077373504638672
1713358336949347600,0.22534765625,-1.9252862930297852,-0.36149120330810547,-0.11861252784729004
1713358336959326700,0.23532666015625,-1.7411870956420898,-0.2919504642486572,0.013399600982666016
1713358336969306000,0.24530615234375,-1.8181037902832031,-0.1326918601989746,0.16733050346374512
1713358336979254800,0.2552548828125,-1.9580860137939453,-0.0843362808227539,0.2061675786972046
1713358336989234000,0.26523388671875,-1.8815631866455078,-0.0012552738189697266,0.08180665969848633
1713358336999213300,0.27521337890625,-1.668625831604004,-0.0509641170501709,0.027277708053588867
1713358337009192400,0.2851923828125,-1.669468879699707,-0.06252074241638184,-0.3888167142868042
1713358337019141000,0.29514111328125,-1.7458133697509766,0.056661367416381836,-0.6575183868408203
1713358337029120500,0.30512060546875,-1.8475980758666992,0.05102252960205078,-0.6185362935066223
1713358337039099600,0.315099609375,-2.0605697631835938,-0.04993605613708496,-0.5698427557945251
1713358337049048300,0.32504833984375,-2.184699058532715,-0.20746970176696777,-0.6152963638305664
1713358337059027700,0.33502783203125,-2.4392471313476562,-0.07924890518188477,-0.6617311239242554
1713358337069006800,0.3450068359375,-2.6621503829956055,0.0979456901550293,-0.8362413048744202
1713358337078955800,0.354955810546875,-2.5459604263305664,0.26393723487854004,-1.0951480865478516
1713358337088935000,0.364934814453125,-2.388437271118164,0.17587685585021973,-1.1962859630584717
1713358337098914000,0.3749140625,-1.991323471069336,0.4692716598510742,-1.0149157047271729
1713358337108863000,0.384863037109375,-1.829758644104004,0.3311643600463867,-0.9152604937553406
1713358337118842000,0.394842041015625,-1.2170124053955078,0.24476838111877441,-0.8798505067825317
1713358337128821500,0.404821533203125,-0.5570650100708008,0.30346012115478516,-0.6637002229690552
1713358337138770200,0.414770263671875,0.04090690612792969,0.3482813835144043,-0.7174930572509766
1713358337148749300,0.424749267578125,0.38904571533203125,0.7348284721374512,-0.7299469709396362
1713358337158728700,0.434728759765625,0.6619882583618164,0.9350752830505371,-0.8506119847297668
1713358337168707800,0.444707763671875,0.45458412170410156,0.988591194152832,-1.2419044971466064
1713358337178656500,0.454656494140625,0.7558412551879883,1.212331771850586,-0.9110627174377441
1713358337188636000,0.464635986328125,0.9436826705932617,1.1194367408752441,-1.0305646657943726
1713358337198615000,0.474614990234375,1.272862434387207,1.192990779876709,-1.071364402770996
1713358337208563700,0.484563720703125,1.5003185272216797,0.9386296272277832,-1.3307442665100098
1713358337218543000,0.494543212890625,1.9044885635375977,1.2534518241882324,-1.1329851150512695
1713358337228522200,0.504522216796875,2.123196601867676,1.0067362785339355,-1.2141742706298828
1713358337238471200,0.51447119140625,2.7321929931640625,1.2344145774841309,-0.5578252673149109
1713358337248450300,0.5244501953125,2.614193916320801,1.05161714553833,-0.22243863344192505
1713358337258429400,0.534429443359375,2.5218496322631836,1.0140604972839355,0.08539475500583649
1713358337268378400,0.54437841796875,2.9451045989990234,1.5070233345031738,0.35781964659690857
1713358337278357500,0.554357421875,2.872385025024414,1.1252164840698242,-0.785854697227478
1713358337288336600,0.564336669921875,3.155712127685547,2.5606765747070312,-0.3128555417060852
1713358337298285600,0.57428564453125,3.164839744567871,1.9431324005126953,-1.72820246219635
1713358337308264700,0.5842646484375,3.483647346496582,1.5718436241149902,-2.08128023147583
1713358337318244000,0.594244140625,3.908419609069824,1.164384365081787,-1.976304054260254
1713358337328192800,0.60419287109375,3.64290714263916,-0.6293759346008301,-1.499967336654663
1713358337338172000,0.614171875,3.4231691360473633,-1.4105644226074219,-1.2609699964523315
1713358337348151300,0.6241513671875,3.048386573791504,-2.0278167724609375,-1.2331442832946777
1713358337358100000,0.634099853515625,2.372075080871582,-2.4541749954223633,-0.900936484336853
1713358337368079000,0.6440791015625,1.2730093002319336,-2.193601608276367,-0.6397982835769653
1713358337378028000,0.654028076171875,-0.042385101318359375,-2.5803165435791016,-0.3717721402645111
1713358337388007200,0.664007080078125,-0.9982700347900391,-2.6488232612609863,0.08253463357686996
1713358337397986300,0.673986328125,-2.1015586853027344,-2.2096900939941406,0.01128600537776947
1713358337407935200,0.683935302734375,-3.896024703979492,-2.0273056030273438,-0.6679791212081909
1713358337417914400,0.693914306640625,-4.927769660949707,-1.7870941162109375,-0.362933486700058
1713358337427893800,0.703893798828125,-4.482939720153809,-1.2369027137756348,0.20056124031543732
1713358337437873000,0.713872802734375,-4.5590925216674805,-0.6007227897644043,-0.5590789914131165
1713358337447821600,0.723821533203125,-3.9847822189331055,-0.5133590698242188,0.017883218824863434
1713358337457801000,0.733801025390625,-5.773130416870117,-5.764598369598389,4.429483413696289
1713358337467780000,0.743780029296875,-4.917560577392578,-3.746399402618408,2.594743251800537
1713358337477759500,0.753759521484375,-3.0871267318725586,-1.3119330406188965,-0.933424174785614
1713358337487708200,0.763708251953125,-0.5249967575073242,-1.5924181938171387,-0.18341320753097534
1713358337497699300,0.77369921875,-3.571871757507324,-1.9735288619995117,1.8328937292099
1713358337507678500,0.783678466796875,-4.8121337890625,-1.2822341918945312,2.0726466178894043
1713358337517627100,0.793627197265625,-4.120787620544434,-0.20373201370239258,1.8783071041107178
1713358337527606500,0.8036064453125,-3.055316925048828,0.5106973648071289,1.3444278240203857
1713358337537585700,0.813585693359375,-1.7648439407348633,0.32550573348999023,1.1924375295639038
1713358337547534600,0.82353466796875,-1.8876733779907227,-1.1965768337249756,0.014358103275299072
1713358337557513700,0.833513671875,-1.8112030029296875,-3.512205123901367,-1.533392071723938
1713358337567492900,0.843492919921875,0.3998231887817383,-5.021490573883057,-3.1365418434143066
1713358337577441800,0.85344189453125,10.979743003845215,-4.308905601501465,-11.364490509033203
1713358337587421000,0.8634208984375,13.565159797668457,-4.248467922210693,-15.453737258911133
1713358337597400300,0.873400390625,13.258525848388672,-5.810697078704834,-10.55942440032959
1713358337607349000,0.883348876953125,9.991961479187012,-9.444059371948242,-4.017070770263672
1713358337617328000,0.893328125,4.925784111022949,-12.662845611572266,0.03946709632873535
1713358337627307500,0.9033076171875,0.4135284423828125,-11.839387893676758,0.8625319004058838
1713358337637256200,0.913256103515625,-7.488801002502441,-9.017707824707031,3.422706127166748
1713358337647235300,0.9232353515625,-12.811140060424805,-7.1712470054626465,5.542370796203613
1713358337657184300,0.933184326171875,-14.656661987304688,-6.011777400970459,4.609041690826416
1713358337667163400,0.943163330078125,-13.193391799926758,-4.850090503692627,-0.10441350936889648
1713358337677142500,0.953142578125,-9.2197847366333,-4.5065598487854,-2.8575892448425293
1713358337687091500,0.963091552734375,-3.2380170822143555,-4.084771156311035,-0.9842376708984375
1713358337697088000,0.973087890625,-5.243456840515137,-3.476318836212158,1.3776812553405762
1713358337707067400,0.9830673828125,-5.038389205932617,-3.1885056495666504,2.8361730575561523
1713358337717046500,0.993046630859375,-7.2122015953063965,-2.485715389251709,4.243616104125977
1713358337726995200,1.0029951171875,-8.603004455566406,0.4837639331817627,7.852729320526123
1713358337736974600,1.012974609375,-9.366829872131348,4.832683563232422,12.198820114135742
1713358337746953700,1.02295361328125,-8.921014785766602,4.872861862182617,11.777816772460938
1713358337756902400,1.03290234375,-3.8108925819396973,-0.20638179779052734,4.437882900238037
1713358337766881800,1.0428818359375,0.21129083633422852,-1.9756717681884766,3.505383014678955
1713358337776861000,1.05286083984375,2.6156845092773438,-2.950655460357666,1.5147156715393066
1713358337786809900,1.062809814453125,5.3167266845703125,-4.526856899261475,-2.772336959838867
1713358337796789000,1.0727890625,7.272274017333984,-3.7268171310424805,-6.3405938148498535
1713358337806768000,1.08276806640625,6.38834285736084,1.916078805923462,7.574562072753906
1713358337816693000,1.09269287109375,3.8868865966796875,4.545684814453125,6.975481986999512
1713358337826672000,1.102672119140625,5.626114368438721,3.4329299926757812,6.422016143798828
1713358337836651300,1.1126513671875,4.629671573638916,2.6833689212799072,4.3779706954956055
1713358337846600200,1.12260009765625,7.177926063537598,0.1664118766784668,-0.6433897018432617
1713358337856579300,1.132579345703125,7.487486362457275,3.08536958694458,5.401459217071533
1713358337866558700,1.142558837890625,5.865933895111084,3.595735549926758,6.54123592376709
1713358337876507400,1.15250732421875,8.387487411499023,4.190517425537109,8.49262523651123
1713358337886486500,1.162486572265625,7.722342491149902,2.0420444011688232,8.27263069152832
1713358337896466000,1.1724658203125,4.446906089782715,-2.313373565673828,-0.7269120216369629
1713358337906414600,1.18241455078125,4.620823383331299,-4.360121726989746,-8.946083068847656
1713358337916393700,1.192393798828125,1.2730989456176758,-4.7884979248046875,-12.872562408447266
1713358337926373000,1.202373046875,-0.7380719184875488,-0.1812596321105957,-8.591758728027344
1713358337936321800,1.21232177734375,-1.7686386108398438,1.8817086219787598,-4.317462921142578
1713358337946301000,1.222301025390625,0.28968381881713867,2.266812324523926,-2.5049209594726562
1713358337956280300,1.2322802734375,2.4628305435180664,0.6553468704223633,-6.583408355712891
1713358337966229000,1.24222900390625,5.5629191398620605,0.04097795486450195,0.44179582595825195
1713358337976208400,1.25220849609375,1.8099446296691895,-0.5174250602722168,4.0364580154418945
1713358337986187500,1.2621875,7.893969535827637,-1.79518461227417,-6.670088291168213
1713358337996136200,1.27213623046875,7.545807838439941,2.4234137535095215,0.03379464149475098
1713358338006115600,1.282115478515625,2.4686293601989746,2.103412628173828,3.2231359481811523
1713358338016094700,1.2920947265625,2.4269986152648926,3.4818854331970215,-1.2036488056182861
1713358338026074000,1.30207421875,-0.3716597557067871,3.486194610595703,4.538142204284668
1713358338036022800,1.312022705078125,3.4461517333984375,7.963848114013672,7.912039279937744
1713358338046002000,1.322001953125,-2.892538070678711,7.209838390350342,10.883713722229004
1713358338055981300,1.331981201171875,-2.322035312652588,6.987720012664795,1.1144018173217773
1713358338065930000,1.341929931640625,-3.3064260482788086,5.990405082702637,8.032947540283203
1713358338075909000,1.3519091796875,-2.6152915954589844,7.026135444641113,7.795799732208252
1713358338085888500,1.361888427734375,-7.906659126281738,8.683394432067871,5.180695056915283
1713358338095837200,1.371837158203125,-6.380833148956299,10.423357009887695,-1.7800118923187256
1713358338105823000,1.381822998046875,-6.839059352874756,9.621450424194336,1.0635855197906494
1713358338115802000,1.391802001953125,-7.5757222175598145,7.519981384277344,3.53800630569458
1713358338125751000,1.4017509765625,-6.082873344421387,4.306188583374023,2.960667610168457
1713358338135730200,1.411730224609375,-3.20976185798645,-0.21148300170898438,1.874530553817749
1713358338145709300,1.421709228515625,1.675132155418396,-0.9043817520141602,5.610703468322754
1713358338155658200,1.431658203125,5.737585067749023,0.030854225158691406,7.059932708740234
1713358338165637400,1.441637451171875,5.047543525695801,0.22035789489746094,6.800422191619873
1713358338175616800,1.45161669921875,4.0010247230529785,1.3394765853881836,6.187393665313721
1713358338185565400,1.4615654296875,3.3542983531951904,3.400689125061035,5.421187400817871
1713358338195544600,1.471544677734375,2.8000173568725586,4.266942024230957,6.387494087219238
1713358338205524000,1.48152392578125,-3.6732912063598633,4.651420593261719,10.62974739074707
1713358338215472600,1.49147265625,-10.779839515686035,6.124911308288574,13.784244537353516
1713358338225451800,1.50145166015625,-8.787799835205078,-1.4200162887573242,6.012609004974365
1713358338235400700,1.511400634765625,-1.1006324291229248,-4.382760047912598,0.31055545806884766
1713358338245379800,1.5213798828125,5.779015064239502,-2.2345380783081055,0.18247747421264648
1713358338255359000,1.53135888671875,6.519791603088379,-2.024873733520508,-0.048296451568603516
1713358338265308000,1.541307861328125,6.619001388549805,-0.10953092575073242,1.620835781097412
1713358338275280100,1.551280029296875,10.68503189086914,0.24739885330200195,1.182767391204834
1713358338285259500,1.561259521484375,3.0966429710388184,2.9365196228027344,0.8359527587890625
1713358338295238700,1.57123876953125,-6.894619941711426,0.2620120048522949,0.9092073440551758
1713358338305187300,1.581187255859375,-12.570178985595703,-1.9164185523986816,-0.4380021095275879
1713358338315166700,1.591166748046875,-12.645332336425781,-1.87376070022583,-1.043656826019287
1713358338325145900,1.601145751953125,-13.143084526062012,0.4649806022644043,-1.1010041236877441
1713358338335125200,1.611125244140625,-11.386484146118164,-0.2828330993652344,-2.294645309448242
1713358338345074000,1.621073974609375,-9.095464706420898,-2.299987316131592,-4.116629600524902
1713358338355053000,1.631052978515625,-5.943403244018555,-6.37586784362793,-5.716363906860352
1713358338365040000,1.6410400390625,-4.032895565032959,-12.611228942871094,-8.628236770629883
1713358338374988800,1.65098876953125,-0.19923174381256104,-13.381464004516602,-7.768857955932617
1713358338384968000,1.660968017578125,2.7523727416992188,-13.083288192749023,-4.334330081939697
1713358338394916900,1.670916748046875,5.082315444946289,-14.40678882598877,-1.5409469604492188
1713358338404896000,1.68089599609375,5.016477108001709,-15.80335807800293,0.3999643325805664
1713358338414875400,1.69087548828125,6.213818550109863,-17.66800308227539,-0.07118844985961914
1713358338424824000,1.700823974609375,7.978473663330078,-18.353002548217773,0.616671085357666
1713358338434803200,1.71080322265625,3.330946922302246,-17.794208526611328,1.77266263961792
1713358338444782600,1.720782470703125,0.28782618045806885,-15.52523136138916,3.6501708030700684
1713358338454731300,1.730731201171875,-1.0173505544662476,-13.11503791809082,4.577002048492432
1713358338464710400,1.74071044921875,-1.8259453773498535,-12.054885864257812,4.4487714767456055
1713358338474689800,1.750689697265625,-2.18705153465271,-9.973069190979004,5.5263471603393555
1713358338484638500,1.760638427734375,-2.0462021827697754,-5.95358943939209,7.472836494445801
1713358338494617600,1.77061767578125,-5.12147331237793,-1.2504158020019531,10.569170951843262
1713358338504597000,1.780596923828125,-6.218681335449219,1.6971807479858398,12.307555198669434
1713358338514545700,1.790545654296875,-2.2237019538879395,-4.659360885620117,-0.17290806770324707
1713358338524525000,1.800525146484375,5.957791805267334,-3.1094627380371094,-6.529196739196777
1713358338534499000,1.8104990234375,8.748180389404297,-3.036396026611328,-5.103658199310303
1713358338544447700,1.82044775390625,4.5832905769348145,-5.532711982727051,-3.9234018325805664
1713358338554427000,1.830427001953125,-1.230987787246704,0.5563259124755859,-0.5515537261962891
1713358338564406300,1.84040625,-3.603973388671875,2.191494941711426,0.7142990827560425
1713358338574385400,1.850385498046875,-0.42921167612075806,3.063227653503418,1.7284375429153442
1713358338584334000,1.860333984375,8.149438858032227,-0.1048269271850586,-0.6055566668510437
1713358338594313500,1.8703134765625,15.74631118774414,-6.884271621704102,-2.0406439304351807
1713358338604292600,1.880292724609375,16.133129119873047,-8.07774543762207,-1.1794419288635254
1713358338614241500,1.890241455078125,-1.9697010517120361,1.1048345565795898,9.026301383972168
1713358338624220700,1.900220703125,-25.785913467407227,8.926772117614746,11.844438552856445
1713358338634199800,1.91019970703125,-13.15194320678711,6.746893882751465,1.4111977815628052
1713358338644148700,1.920148681640625,-4.6133928298950195,2.762033462524414,-4.683227062225342
1713358338654127900,1.9301279296875,6.255167007446289,1.1048002243041992,0.1623237431049347
1713358338664107000,1.94010693359375,8.41384506225586,-1.9466056823730469,-0.11926797032356262
1713358338674056000,1.950055908203125,-3.6487913131713867,2.3346729278564453,0.7285162210464478
1713358338684035000,1.96003515625,-4.503376007080078,2.31854248046875,-0.8189321756362915
1713358338694014500,1.970014404296875,-0.5259582996368408,3.196910858154297,-2.025448799133301
1713358338703963100,1.979963134765625,0.04970216751098633,2.5835800170898438,1.910727620124817
1713358338713942300,1.9899423828125,0.39294981956481934,1.496072769165039,0.9769735336303711
1713358338723921700,1.999921630859375,-1.7205541133880615,2.121377944946289,-0.3885207176208496
1713358338733870300,2.009870361328125,0.8723208904266357,1.6056842803955078,-0.7857351303100586
1713358338743849500,2.019849365234375,5.690543174743652,1.3650445938110352,1.5888237953186035
1713358338753828900,2.029828857421875,-2.438344717025757,2.4713687896728516,1.7655699253082275
1713358338763777500,2.039777587890625,-1.7519407272338867,4.543985366821289,0.7226362228393555
1713358338773756700,2.049756591796875,7.808036804199219,3.4999704360961914,7.958182334899902
1713358338783736000,2.059736083984375,-6.629900932312012,3.5458898544311523,2.2932465076446533
1713358338793684700,2.069684814453125,-0.4599590301513672,5.394366264343262,5.309462547302246
1713358338803664100,2.0796640625,0.6029796600341797,2.769847869873047,0.7622754573822021
1713358338813643300,2.089643310546875,-1.3082842826843262,2.843181610107422,-0.8168275356292725
1713358338823592000,2.099592041015625,-2.922367572784424,4.663657188415527,2.4775784015655518
1713358338833571300,2.1095712890625,-2.7272701263427734,5.499201774597168,3.270881175994873
1713358338843550500,2.119550537109375,-2.4823427200317383,3.6474227905273438,1.7823147773742676
1713358338853499100,2.1294990234375,0.8314595222473145,4.975583076477051,1.8830499649047852
1713358338863478500,2.139478515625,0.4437894821166992,2.9724884033203125,2.6071267127990723
1713358338873457700,2.149457763671875,0.8055591583251953,2.811992645263672,3.287158727645874
1713358338883437000,2.15943701171875,0.7397146224975586,2.3546109199523926,3.4440841674804688
1713358338893385700,2.1693857421875,1.4009180068969727,1.2670111656188965,1.5238037109375
1713358338903364900,2.17936474609375,1.0733332633972168,0.8024735450744629,0.9472956657409668
1713358338913344300,2.18934423828125,0.9872117042541504,0.7421870231628418,0.9976623058319092
1713358338923293000,2.19929296875,0.9995627403259277,0.6030936241149902,1.912118673324585
1713358338933272000,2.20927197265625,0.8050122261047363,-0.05831336975097656,-0.12585854530334473
1713358338943251500,2.21925146484375,1.8418760299682617,-0.06673336029052734,0.8924028873443604
1713358338953200000,2.2292001953125,2.9555115699768066,-0.4915957450866699,-0.5583634376525879
1713358338963179500,2.239179443359375,4.702482223510742,-1.3081092834472656,-0.6858806610107422
1713358338973158700,2.24915869140625,7.343563079833984,-2.3322863578796387,-5.352905750274658
1713358338983107300,2.259107421875,8.573263168334961,-1.1239533424377441,-3.392594814300537
1713358338993086700,2.269086669921875,5.962825298309326,1.4377741813659668,1.8433644771575928
1713358339003065900,2.27906591796875,2.1783132553100586,4.1113433837890625,6.963443756103516
1713358339013014500,2.2890146484375,-9.75082015991211,7.008347988128662,5.6431427001953125
1713358339022994000,2.298993896484375,-3.4578323364257812,5.933798789978027,3.334009885787964
1713358339032942600,2.308942626953125,-3.0616464614868164,3.833073139190674,1.8975560665130615
1713358339042921700,2.318921630859375,-1.3926186561584473,3.8001136779785156,4.185925483703613
1713358339052912000,2.328912109375,0.14850711822509766,3.435947895050049,1.9222800731658936
1713358339062860800,2.33886083984375,1.3316941261291504,4.3146772384643555,2.6403000354766846
1713358339072840200,2.348840087890625,-1.608774185180664,5.694356918334961,5.085799217224121
1713358339082819300,2.3588193359375,0.6079211235046387,6.45836067199707,4.829349040985107
1713358339092768300,2.368768310546875,-0.23121404647827148,4.091777801513672,1.1608500480651855
1713358339102747400,2.378747314453125,-0.5132508277893066,2.8156280517578125,-0.27588939666748047
1713358339112726500,2.3887265625,-2.034177303314209,1.6922149658203125,-1.3904783725738525
1713358339122675500,2.398675537109375,-2.2144105434417725,1.8559064865112305,-1.9597417116165161
1713358339132654600,2.408654541015625,-2.3222100734710693,1.0671358108520508,-0.2766544818878174
1713358339142634000,2.418634033203125,-2.6081013679504395,-0.2376537322998047,3.1454150676727295
1713358339152613000,2.428613037109375,-3.485109567642212,-1.2087230682373047,4.543263912200928
1713358339162561800,2.438561767578125,-4.87159538269043,-0.14326190948486328,6.227193355560303
1713358339172541200,2.448541259765625,-2.6756088733673096,0.2779502868652344,9.071195602416992
1713358339182520300,2.458520263671875,-5.3224663734436035,-7.477783203125,8.584936141967773
1713358339192469000,2.468468994140625,-0.7755120992660522,-11.563934326171875,3.811079263687134
1713358339202448400,2.478448486328125,-0.2745785713195801,-10.24184513092041,-1.0255818367004395
1713358339212427500,2.488427490234375,-0.7040371894836426,-7.505712509155273,-1.2762153148651123
1713358339222376200,2.498376220703125,-4.600179195404053,-4.069177627563477,-2.037827968597412
1713358339232355600,2.50835546875,-6.6741943359375,-4.843894958496094,0.14467620849609375
1713358339242334700,2.518334716796875,-5.302728176116943,-4.1920061111450195,-2.533588409423828
1713358339252283600,2.52828369140625,-2.896334409713745,-1.5683612823486328,-5.225255966186523
1713358339262262800,2.5382626953125,-2.829813241958618,-0.1782054901123047,-5.6162309646606445
1713358339272242000,2.548241943359375,-3.9572665691375732,0.1434164047241211,-6.176377296447754
1713358339282190800,2.55819091796875,-2.6595652103424072,1.0439538955688477,-6.965605735778809
1713358339292170000,2.568169921875,0.34860917925834656,-0.4758291244506836,-9.997964859008789
1713358339302149400,2.5781494140625,0.4477052092552185,-1.0591850280761719,-8.049995422363281
1713358339312098000,2.58809814453125,-1.7089885473251343,-4.928301811218262,6.974365234375
1713358339322077200,2.5980771484375,1.0787391662597656,-5.647229194641113,3.174128532409668
1713358339332056600,2.608056640625,0.36949801445007324,-1.3339834213256836,-0.7772116661071777
1713358339342005200,2.618005126953125,-2.5759711265563965,-1.463449478149414,-4.191375255584717
1713358339351984400,2.627984375,-0.8162356615066528,0.05817413330078125,1.9191055297851562
1713358339361963800,2.6379638671875,1.3682334423065186,2.219672203063965,2.5522704124450684
1713358339371912400,2.647912353515625,0.08927863836288452,2.5162715911865234,3.079101085662842
1713358339381891600,2.6578916015625,0.09530562162399292,0.8031425476074219,3.814162015914917
1713358339391871000,2.66787109375,1.1204555034637451,0.38999080657958984,-2.491459846496582
1713358339401819600,2.677819580078125,-0.5530412197113037,0.5315694808959961,-1.1850147247314453
1713358339411798800,2.687798828125,-1.2495014667510986,3.7235498428344727,3.9882001876831055
1713358339421778200,2.697778076171875,-12.035487174987793,10.41148567199707,-25.303436279296875
1713358339431726800,2.707726806640625,3.6860194206237793,5.045998573303223,-11.221516609191895
1713358339441706200,2.717706298828125,8.585317611694336,0.252532958984375,7.467860698699951
1713358339451685400,2.727685302734375,0.7543371915817261,1.316925048828125,8.706952095031738
1713358339461664500,2.73766455078125,-0.1636025309562683,0.8407468795776367,8.1988525390625
1713358339471613400,2.747613525390625,0.5365579128265381,-0.05039215087890625,8.753761291503906
1713358339481592600,2.757592529296875,0.8103716969490051,-1.3255510330200195,5.9310712814331055
1713358339491572000,2.767572021484375,-0.16814374923706055,-2.736647605895996,4.7174811363220215
1713358339501520600,2.777520751953125,-0.448716938495636,-3.9331893920898438,3.921480655670166
1713358339511497200,2.787497314453125,0.01984041929244995,-5.064942359924316,4.417465686798096
1713358339521476600,2.7974765625,0.25461310148239136,-5.387079238891602,3.109757661819458
1713358339531425300,2.80742529296875,-1.5958876609802246,-4.974094390869141,2.1474509239196777
1713358339541404400,2.817404296875,-1.9582178592681885,-4.537108421325684,1.7130341529846191
1713358339551383800,2.8273837890625,-1.6636962890625,-4.467867851257324,1.6749935150146484
1713358339561332500,2.83733251953125,-0.1016613245010376,-3.804562568664551,2.202463150024414
1713358339571311600,2.8473115234375,1.6192888021469116,-4.045147895812988,2.7725799083709717
1713358339581291000,2.857291015625,2.7794864177703857,-0.013556480407714844,4.332802772521973
1713358339591239700,2.86723974609375,3.311284303665161,0.6195058822631836,4.1415886878967285
1713358339601218800,2.87721875,2.256690502166748,3.946756362915039,-0.3891375958919525
1713358339611198200,2.8871982421875,1.6254892349243164,4.0896501541137695,-0.6947671175003052
1713358339621147000,2.89714697265625,1.6722872257232666,3.7508277893066406,1.0943384170532227
1713358339631126300,2.907126220703125,2.1470370292663574,3.05538272857666,1.54023015499115
1713358339641105400,2.91710546875,1.9856936931610107,4.016874313354492,1.5896735191345215
1713358339651054000,2.92705419921875,4.208965301513672,2.798826217651367,1.0685391426086426
1713358339661033500,2.937033447265625,3.165557861328125,2.5527734756469727,3.287276268005371
1713358339670982100,2.946982177734375,1.6009550094604492,3.096865653991699,4.327800750732422
1713358339680961300,2.956961181640625,-0.2203749418258667,3.498353958129883,4.120671272277832
1713358339690940700,2.966940673828125,-1.4034128189086914,3.495293617248535,3.9156136512756348
1713358339700889300,2.976889404296875,-1.1164458990097046,3.109323501586914,4.5612030029296875
1713358339710868500,2.986868408203125,0.5957190990447998,1.5553264617919922,2.7926206588745117
1713358339720848000,2.996847900390625,0.7837002873420715,-0.3316764831542969,-1.9286235570907593
1713358339730827000,3.006826904296875,0.6836994886398315,-2.077498435974121,-3.412059783935547
1713358339740806400,3.016806396484375,0.40842747688293457,-3.609950065612793,-3.4755699634552
1713358339750755000,3.026755126953125,0.396281361579895,-5.116944313049316,-3.1604154109954834
1713358339760734200,3.036734130859375,-0.35873687267303467,-5.581503868103027,-1.727590560913086
1713358339770713600,3.046713623046875,-0.20626264810562134,-1.554342269897461,0.2540431022644043
1713358339780662300,3.056662353515625,-3.591798782348633,-3.286839485168457,0.7752938270568848
1713358339790641700,3.0666416015625,-5.165525436401367,-6.762326240539551,-1.8217076063156128
1713358339800590300,3.07659033203125,-1.9462746381759644,-6.579128265380859,-6.1608781814575195
1713358339810569500,3.086569580078125,-0.7755625247955322,-4.775455474853516,-6.243704319000244
1713358339820548900,3.096548828125,-0.13867074251174927,-1.209463119506836,-4.265426158905029
1713358339830497500,3.10649755859375,-6.0582146644592285,11.54371166229248,1.2101428508758545
1713358339840476700,3.1164765625,0.289686918258667,2.6523256301879883,-0.5022953152656555
1713358339850456000,3.1264560546875,-4.890013217926025,-0.07894706726074219,2.452723979949951
1713358339860404700,3.13640478515625,-1.7340338230133057,-1.338958740234375,2.7295353412628174
1713358339870383900,3.1463837890625,2.073417901992798,2.3621692657470703,3.714057207107544
1713358339880363300,3.15636328125,-0.7886054515838623,1.761368751525879,3.0200748443603516
1713358339890312000,3.16631201171875,-1.7595256567001343,2.4730682373046875,2.0819239616394043
1713358339900291000,3.176291015625,-2.2485451698303223,3.7315893173217773,2.3221309185028076
1713358339910270500,3.1862705078125,-1.5836118459701538,4.098867416381836,2.2505664825439453
1713358339920219100,3.19621923828125,-0.7024465799331665,4.577935218811035,0.6934918165206909
1713358339930198500,3.206198486328125,-0.0196569561958313,4.859036445617676,-1.6246616840362549
1713358339940177700,3.216177734375,-0.34695541858673096,4.292034149169922,-3.285271644592285
1713358339950126300,3.226126220703125,-0.6456084251403809,3.5467777252197266,-3.9498178958892822
1713358339960105700,3.236105712890625,-1.149451732635498,-0.1595916748046875,-3.793790102005005
1713358339970084900,3.2460849609375,-0.8250679969787598,-3.9179763793945312,-6.720487594604492
1713358339980033500,3.256033447265625,-2.528381586074829,-11.147381782531738,-12.104557991027832
1713358339990013000,3.266012939453125,-3.200282573699951,-12.755703926086426,-8.877592086791992
1713358339999992000,3.275991943359375,-1.5759210586547852,-7.709909439086914,-0.13472214341163635
1713358340009971500,3.285971435546875,-1.155604362487793,-3.2496232986450195,1.0436007976531982
1713358340019920100,3.295920166015625,-0.29258012771606445,-1.4512462615966797,-0.6211410760879517
1713358340029899300,3.305899169921875,0.9576901197433472,-0.6554794311523438,-0.005556575953960419
1713358340039878700,3.315878662109375,1.9040772914886475,-0.27770423889160156,0.07896430045366287
1713358340049827300,3.325827392578125,2.3238625526428223,0.5699424743652344,0.36754000186920166
1713358340059806500,3.335806396484375,1.5945074558258057,1.9855108261108398,1.7333612442016602
1713358340069785900,3.345785888671875,-0.10605078935623169,7.26611328125,4.687166213989258
1713358340079734500,3.355734619140625,6.49538516998291,-6.34938907623291,-4.099418640136719
1713358340089714000,3.3657138671875,5.044943809509277,-8.199358940124512,-3.386589288711548
1713358340099693000,3.375693115234375,-2.231100559234619,-0.9277057647705078,-2.4176502227783203
1713358340109641700,3.385641845703125,-5.1977362632751465,2.81241512298584,-2.2691102027893066
1713358340119621000,3.39562109375,-5.272619247436523,4.625959396362305,-1.390721082687378
1713358340129600300,3.405600341796875,-2.082611560821533,3.111330032348633,-0.4812445044517517
1713358340139549000,3.415548828125,2.125955820083618,1.4824771881103516,-1.5338400602340698
1713358340149528300,3.4255283203125,2.353977680206299,1.9609346389770508,-1.8434343338012695
1713358340159507500,3.435507568359375,0.9971649050712585,1.9014034271240234,-0.9816426634788513
1713358340169456000,3.4454560546875,1.6401185989379883,-0.031076431274414062,0.47371095418930054
1713358340179435500,3.455435546875,0.5040202140808105,-0.038600921630859375,-1.5917737483978271
1713358340189414700,3.46541455078125,0.16681629419326782,0.26314449310302734,-0.39400482177734375
1713358340199363600,3.475363525390625,0.04271906614303589,0.39160919189453125,0.07649719715118408
1713358340209342700,3.4853427734375,-0.07262307405471802,0.33084964752197266,0.3574090600013733
1713358340219321900,3.49532177734375,-0.4107511043548584,0.4394502639770508,0.7404031157493591
1713358340229270800,3.505270751953125,-0.634696364402771,0.5855941772460938,1.0088005065917969
1713358340239250000,3.51525,-0.6165753602981567,0.6498241424560547,1.2515199184417725
1713358340249229300,3.525229248046875,-0.5594204664230347,0.6228609085083008,1.3650269508361816
1713358340259178000,3.535177978515625,-0.4874601364135742,0.46667003631591797,1.398331880569458
1713358340269157000,3.5451572265625,-0.3849174976348877,0.269866943359375,1.3911726474761963
1713358340279136500,3.555136474609375,-0.11697542667388916,0.21669673919677734,1.4042447805404663
1713358340289085200,3.565085205078125,0.113273024559021,0.31414794921875,1.3467844724655151
1713358340299064300,3.575064208984375,0.2187892198562622,0.4353294372558594,1.2938151359558105
1713358340309043700,3.585043701171875,0.22407305240631104,0.4488849639892578,1.3452659845352173
1713358340319022800,3.59502294921875,0.2671318054199219,0.29277801513671875,1.382022500038147
1713358340328971500,3.604971435546875,0.3994929790496826,0.050894737243652344,1.5299407243728638
1713358340338951000,3.614950927734375,0.6347423791885376,-0.24822616577148438,1.471550703048706
1713358340348930000,3.624929931640625,0.9483689069747925,-0.4613018035888672,1.2179133892059326
1713358340358878700,3.634878662109375,1.2721196413040161,-0.5501537322998047,1.1626542806625366
1713358340368858000,3.644858154296875,2.115283727645874,-0.509521484375,1.2360862493515015
1713358340378837200,3.654837158203125,2.4792542457580566,-0.24725627899169922,1.0679478645324707
1713358340388786200,3.6647861328125,2.623847246170044,-1.0787849426269531,1.6347564458847046
1713358340398765300,3.674765380859375,1.6368881464004517,-0.5265121459960938,1.6806879043579102
1713358340408744400,3.684744384765625,1.3983759880065918,0.4868965148925781,1.7621607780456543
1713358340418693400,3.694693359375,1.863649845123291,-0.21643638610839844,0.928156852722168
1713358340428672500,3.704672607421875,2.371676445007324,-0.3081808090209961,1.2474541664123535
1713358340438652000,3.71465185546875,2.5379676818847656,0.08331871032714844,1.2741281986236572
1713358340448600600,3.7246005859375,2.251176118850708,0.2325916290283203,1.3134634494781494
1713358340458579700,3.734579833984375,1.8658983707427979,-0.004036903381347656,1.0658414363861084
1713358340468559000,3.74455908203125,1.7709232568740845,-0.5139675140380859,1.0266857147216797
1713358340478507800,3.7545078125,2.9212539196014404,-0.49132347106933594,1.4548163414001465
1713358340488487000,3.76448681640625,2.607184886932373,-0.7098550796508789,1.2894115447998047
1713358340498435800,3.774435791015625,2.108754873275757,-1.3074769973754883,1.4985105991363525
1713358340508415000,3.7844150390625,1.9049862623214722,-1.568842887878418,1.7323931455612183
1713358340518394000,3.79439404296875,1.713608741760254,-1.730067253112793,1.9794731140136719
1713358340528343000,3.804343017578125,0.5801349878311157,-2.1187973022460938,2.3117902278900146
1713358340538322200,3.814322265625,0.29099273681640625,-1.8516664505004883,1.7799220085144043
1713358340548301600,3.824301513671875,0.47731661796569824,-1.3349370956420898,0.2113971710205078
1713358340558250200,3.834250244140625,0.5528862476348877,-1.1833734512329102,-1.5808556079864502
1713358340568229400,3.8442294921875,0.30837154388427734,-1.2045526504516602,-2.986907482147217
1713358340578208800,3.854208740234375,0.013077259063720703,-1.0631628036499023,-4.103153705596924
1713358340588188000,3.86418798828125,-0.38535380363464355,-0.5781888961791992,-4.854590892791748
1713358340598167300,3.874167236328125,-0.8735983371734619,0.1302328109741211,-5.973352909088135
1713358340608116000,3.884115966796875,-1.4771534204483032,1.0275392532348633,-6.545227527618408
1713358340618095000,3.89409521484375,-1.9734580516815186,1.9542207717895508,-6.050413131713867
1713358340628074500,3.904074462890625,-2.0983614921569824,2.341618537902832,-4.774010181427002
1713358340638023200,3.914023193359375,-1.8592280149459839,2.1464614868164062,-2.9402835369110107
1713358340648002300,3.924002197265625,-1.2913782596588135,1.5412092208862305,-0.9073554277420044
1713358340657981700,3.933981689453125,-0.3662292957305908,0.6215724945068359,0.7747882604598999
1713358340667930400,3.943930419921875,0.2174701690673828,-0.32631683349609375,2.5288801193237305
1713358340677909500,3.953909423828125,-0.2094140648841858,-1.223367691040039,3.8558177947998047
1713358340687889000,3.963888916015625,-1.0933942794799805,-1.9001388549804688,4.785282135009766
1713358340697837600,3.973837646484375,-2.447028398513794,-2.6680526733398438,4.290079116821289
1713358340707817000,3.98381689453125,-4.120503902435303,-2.813030242919922,2.9542236328125
1713358340717796000,3.993796142578125,-5.026917457580566,-2.1001853942871094,1.6487616300582886
1713358340727744800,4.003744873046875,-4.567212104797363,-1.234004020690918,0.48673367500305176
1713358340737724200,4.01372412109375,-3.0833778381347656,-0.3752574920654297,-0.14140337705612183
1713358340747672800,4.0236728515625,-1.2534315586090088,0.2037830352783203,-0.1605314016342163
1713358340757652000,4.03365185546875,0.2655625343322754,0.5515584945678711,-0.031011104583740234
1713358340767631400,4.04363134765625,1.3379926681518555,0.8956098556518555,0.20092010498046875
1713358340777580000,4.053580078125,1.8371827602386475,1.173813819885254,0.3463253974914551
1713358340787559200,4.06355908203125,1.8461724519729614,1.319366455078125,0.3178287446498871
1713358340797538600,4.07353857421875,1.7633169889450073,1.4685392379760742,0.37042027711868286
1713358340807487200,4.0834873046875,0.891237735748291,1.3035945892333984,0.7341930270195007
1713358340817466400,4.09346630859375,0.0303238183259964,1.104689598083496,0.590021014213562
1713358340827445800,4.10344580078125,-0.45818787813186646,1.2397804260253906,0.49205315113067627
1713358340837394400,4.11339453125,-0.5976001024246216,1.4479808807373047,0.37646484375
1713358340847373800,4.123373779296875,-0.6932402849197388,1.4714784622192383,0.46405744552612305
1713358340857353000,4.13335302734375,-0.9223335385322571,1.3420886993408203,0.7846368551254272
1713358340867332000,4.14333203125,-0.8440390229225159,1.3851299285888672,0.936721920967102
1713358340877281000,4.153281005859375,-0.6479706168174744,1.504673957824707,0.7936425805091858
1713358340887260200,4.16326025390625,-0.3047078251838684,1.6431941986083984,0.4589371979236603
1713358340897239600,4.173239501953125,-0.23377355933189392,1.5689506530761719,0.24986952543258667
1713358340907188200,4.183188232421875,0.4630192816257477,1.903519630432129,-0.6205288171768188
1713358340917167400,4.19316748046875,0.9019454121589661,2.3140058517456055,-1.013696312904358
1713358340927146800,4.203146728515625,1.2841768264770508,2.671316146850586,-1.240781307220459
1713358340937095400,4.213095458984375,1.288602590560913,2.906376838684082,-1.1838691234588623
1713358340947074600,4.223074462890625,1.2710481882095337,3.1078176498413086,-0.965767502784729
1713358340957054000,4.233053955078125,1.3160362243652344,3.280447006225586,-0.5937994718551636
1713358340967002600,4.243002685546875,1.3801976442337036,3.2713851928710938,-0.015727102756500244
1713358340976981800,4.252981689453125,1.4726269245147705,3.109586715698242,0.7837811708450317
1713358340986961200,4.262961181640625,1.587355613708496,2.766561508178711,1.7035787105560303
1713358340996909800,4.272909912109375,1.7707974910736084,2.154224395751953,2.764895439147949
1713358341006889200,4.28288916015625,1.8713315725326538,1.3018083572387695,3.8515586853027344
1713358341016868400,4.292868408203125,1.7667635679244995,0.3723621368408203,4.702639579772949
1713358341026817000,4.302817138671875,1.374235987663269,-0.4976844787597656,5.379737377166748
1713358341036796400,4.31279638671875,0.8587344884872437,-1.477914810180664,5.337062358856201
1713358341046775600,4.322775634765625,0.3198612332344055,-2.4844436645507812,4.435239315032959
1713358341056724200,4.33272412109375,-0.27158594131469727,-3.3070764541625977,2.8768482208251953
1713358341066703600,4.34270361328125,-0.6004026532173157,-3.9799604415893555,1.0542564392089844
1713358341076682800,4.352682861328125,-0.073562391102314,-3.877993583679199,-0.9056490063667297
1713358341086631400,4.36263134765625,0.10040335357189178,-3.9632205963134766,-2.4926693439483643
1713358341096610800,4.37261083984375,0.0927450954914093,-4.08670711517334,-3.4060864448547363
1713358341106559500,4.3825595703125,1.1232205629348755,-3.115703582763672,-2.2691407203674316
1713358341116539000,4.392538818359375,2.7826826572418213,-1.9149789810180664,0.7818567156791687
1713358341126518000,4.40251806640625,3.88600754737854,-1.8317909240722656,3.2824604511260986
1713358341136497200,4.4124970703125,4.225674629211426,-3.8736915588378906,4.18292760848999
1713358341146446000,4.422446044921875,2.3702805042266846,-7.699767112731934,2.705359935760498
1713358341156425200,4.43242529296875,-1.0265334844589233,-10.672623634338379,-0.7347205877304077
1713358341166404400,4.442404296875,-2.968672275543213,-7.8053741455078125,-5.068334579467773
1713358341176383700,4.4523837890625,-3.3967995643615723,-1.4749345779418945,-9.042664527893066
1713358341186332400,4.46233251953125,-4.0200676918029785,2.344143867492676,-6.9502058029174805
1713358341196311800,4.472311767578125,-4.873103141784668,3.8400449752807617,-2.29964017868042
1713358341206291000,4.482291015625,-3.8862357139587402,1.4370813369750977,1.120176076889038
1713358341216239600,4.492239501953125,-2.530341863632202,-0.35210514068603516,2.575136184692383
1713358341226219000,4.502218994140625,-3.2748517990112305,-1.630819320678711,1.7856000661849976
1713358341236198100,4.5121982421875,-3.6409237384796143,-2.7936487197875977,0.9838670492172241
1713358341246146800,4.522146728515625,-3.4793550968170166,-2.816802978515625,1.326664686203003
1713358341256126200,4.532126220703125,-2.4361276626586914,-1.4284305572509766,0.0098801851272583
1713358341266105300,4.542105224609375,-0.558464527130127,0.015086174011230469,-2.222334861755371
1713358341276054000,4.552053955078125,0.5870651006698608,1.0000791549682617,-3.5174102783203125
1713358341286033400,4.562033447265625,1.5446581840515137,1.556330680847168,-5.086675643920898
1713358341296012500,4.572012451171875,1.8927979469299316,1.5685300827026367,-6.623678684234619
1713358341305961500,4.58196142578125,1.8302781581878662,1.3868284225463867,-6.986505031585693
1713358341315940600,4.591940673828125,1.9223051071166992,1.4582977294921875,-6.311997890472412
1713358341325919700,4.601919677734375,1.7518490552902222,1.9801435470581055,-5.316375732421875
1713358341335868700,4.61186865234375,1.4388846158981323,2.5487632751464844,-3.684907913208008
1713358341345847800,4.621847900390625,1.1948763132095337,3.043391227722168,-1.8286234140396118
1713358341355827200,4.6318271484375,0.9054359197616577,3.416022300720215,-1.1743320226669312
1713358341365776000,4.64177587890625,0.8975256681442261,3.351987838745117,-1.4227814674377441
1713358341375755000,4.651755126953125,0.648743748664856,3.0630388259887695,-1.4270552396774292
1713358341385734400,4.661734375,0.6810122728347778,2.6983680725097656,-1.2052617073059082
1713358341395683000,4.67168310546875,0.976656436920166,2.160633087158203,-1.1978219747543335
1713358341405662200,4.681662109375,0.8345655202865601,1.4718132019042969,-1.097245216369629
1713358341415611100,4.691611083984375,0.09945833683013916,0.7487239837646484,-1.0980479717254639
1713358341425590300,4.70159033203125,-0.6582350730895996,0.17153263092041016,-1.1433814764022827
1713358341435569400,4.7115693359375,-1.2457640171051025,-0.1704425811767578,-0.9789177775382996
1713358341445548800,4.721548828125,-1.1766889095306396,-0.12501907348632812,-0.7216227054595947
1713358341455497500,4.73149755859375,-0.8095558881759644,-0.03857135772705078,-0.130182683467865
1713358341465476900,4.741476806640625,-0.5696300268173218,-0.04957008361816406,0.21772003173828125
1713358341475456000,4.7514560546875,-0.1687917709350586,-0.036080360412597656,0.6043583154678345
1713358341485435100,4.76143505859375,0.9258595705032349,0.4022951126098633,1.855224370956421
1713358341495384000,4.771384033203125,2.19026780128479,0.8725919723510742,2.875380277633667
1713358341505363200,4.78136328125,1.8042570352554321,1.3861761093139648,2.7785186767578125
1713358341515342600,4.791342529296875,1.3688111305236816,2.1565656661987305,2.4500892162323
1713358341525291300,4.801291259765625,0.7386970520019531,2.202444076538086,1.8265235424041748
1713358341535270400,4.8112705078125,0.16237211227416992,2.1167383193969727,1.520422339439392
1713358341545249800,4.821249755859375,-0.08660662174224854,1.8014755249023438,1.2289252281188965
1713358341555198500,4.831198486328125,-0.4130057096481323,1.2613887786865234,1.1972622871398926
1713358341565177600,4.841177490234375,-0.23432481288909912,0.48461151123046875,1.4772417545318604
1713358341575157000,4.851156982421875,-0.023448467254638672,-0.3348712921142578,1.8667434453964233
1713358341585105700,4.861105712890625,0.812739372253418,-0.8830251693725586,2.097503662109375
1713358341595084800,4.871084716796875,2.0728142261505127,-1.3447446823120117,2.0306921005249023
1713358341605064200,4.881064208984375,3.6446950435638428,-1.5119876861572266,1.4687601327896118
1713358341615012900,4.891012939453125,5.026203155517578,-1.249262809753418,1.0521321296691895
1713358341624992000,4.900991943359375,6.3013105392456055,-0.48156166076660156,1.3801922798156738
1713358341634971400,4.910971435546875,7.381651401519775,0.7053384780883789,1.7219831943511963
1713358341644920000,4.920920166015625,6.071791648864746,1.8282108306884766,2.905649185180664
1713358341654899500,4.9308994140625,4.751430511474609,2.386349678039551,3.9464616775512695
1713358341664848100,4.94084814453125,4.174958229064941,1.6481513977050781,4.094302177429199
1713358341674827300,4.9508271484375,3.8858227729797363,-0.12243843078613281,3.445107936859131
1713358341684806700,4.960806640625,3.4645683765411377,-1.9906139373779297,1.66825270652771
1713358341694755300,4.97075537109375,3.2909133434295654,-3.536017417907715,0.1482180953025818
1713358341704734500,4.980734375,3.3985047340393066,-4.582164764404297,-0.5199413895606995
1713358341714713900,4.9907138671875,3.0263783931732178,-4.730335235595703,0.1795971393585205
1713358341724693000,5.00069287109375,1.331535816192627,-3.9559860229492188,1.2213281393051147
1713358341734641700,5.0106416015625,-0.34589648246765137,-2.38527774810791,2.0678000450134277
1713358341744621000,5.02062109375,-1.0533123016357422,-0.627446174621582,2.72298002243042
1713358341754600200,5.03060009765625,-1.6902492046356201,0.7274894714355469,2.789538860321045
1713358341764579600,5.04057958984375,-2.091449022293091,2.0496597290039062,2.0944643020629883
1713358341774528300,5.0505283203125,-1.5936121940612793,3.0986032485961914,0.14062964916229248
1713358341784507400,5.06050732421875,-1.4918211698532104,3.1878585815429688,-2.6688692569732666
1713358341794486800,5.07048681640625,-1.7600834369659424,2.071247100830078,-5.587738990783691
1713358341804435500,5.080435546875,-2.005074977874756,0.06942462921142578,-7.9360198974609375
1713358341814414800,5.090414794921875,-1.9857699871063232,-2.7659521102905273,-9.172078132629395
1713358341824394000,5.10039404296875,-1.743146538734436,-6.125231742858887,-10.41525936126709
1713358341834342700,5.1103427734375,-1.8545031547546387,-8.7621431350708,-11.286334991455078
1713358341844322000,5.120322021484375,-2.477896213531494,-9.603921890258789,-8.649391174316406
1713358341854301200,5.13030126953125,-3.465172529220581,-8.44610595703125,-3.726325750350952
1713358341864249900,5.140249755859375,-5.4194488525390625,-7.134204864501953,0.10268259048461914
1713358341874229200,5.150229248046875,-8.512561798095703,-6.423090934753418,1.284955382347107
1713358341884178000,5.160177978515625,-10.418705940246582,-5.383757591247559,2.4251766204833984
1713358341894157000,5.170156982421875,-10.23588752746582,-3.670132637023926,4.153111457824707
1713358341904136400,5.180136474609375,-9.332797050476074,-1.5175800323486328,5.678298473358154
1713358341914085000,5.190085205078125,-8.70753002166748,0.7770786285400391,6.409017562866211
1713358341924064500,5.200064453125,-5.873475074768066,2.0709362030029297,5.823165416717529
1713358341934043600,5.210043701171875,-3.208031177520752,2.8158111572265625,3.884352922439575
1713358341943992300,5.219992431640625,0.29301655292510986,3.696202278137207,2.855104446411133
1713358341953971700,5.2299716796875,3.6581203937530518,4.226210594177246,2.293703317642212
1713358341963950800,5.239950927734375,5.113498210906982,3.8033275604248047,1.3364096879959106
1713358341973899500,5.2498994140625,3.9656152725219727,3.8808345794677734,0.4209880232810974
1713358341983879000,5.25987890625,2.6117727756500244,4.123547554016113,-0.06798893213272095
1713358341993858000,5.269858154296875,1.4634816646575928,4.275458335876465,-0.7179175615310669
1713358342003806700,5.279806640625,0.5917156934738159,4.508837699890137,-1.5233230590820312
1713358342013786000,5.2897861328125,0.30638644099235535,5.0387067794799805,-2.192369222640991
1713358342023765200,5.29976513671875,-0.07580134272575378,5.358451843261719,-2.103445529937744
1713358342033744600,5.30974462890625,-0.39371442794799805,5.11775016784668,-1.47211754322052
1713358342043693300,5.319693359375,-0.6137568354606628,4.635932922363281,-0.9971764087677002
1713358342053672400,5.32967236328125,-0.6930353045463562,4.0716094970703125,-0.8559147119522095
1713358342063651800,5.33965185546875,-0.7595199346542358,3.4804859161376953,-1.1615712642669678
1713358342073600500,5.3496005859375,-0.9097563028335571,2.8418712615966797,-1.5777051448822021
1713358342083579600,5.35957958984375,-0.9301128387451172,2.2733306884765625,-1.8179713487625122
1713358342093559000,5.36955908203125,-0.5774586796760559,1.810420036315918,-1.8316001892089844
1713358342103507700,5.3795078125,-0.060009896755218506,1.4642906188964844,-1.3830262422561646
1713358342113487000,5.389487060546875,0.41486096382141113,1.1482772827148438,-0.4390379786491394
1713358342123466200,5.39946630859375,0.7928889393806458,0.8236942291259766,0.9723503589630127
1713358342133415000,5.409414794921875,1.106784462928772,0.5474691390991211,2.6446619033813477
1713358342143394300,5.419394287109375,1.2406092882156372,0.36464595794677734,4.321066856384277
1713358342153373400,5.42937353515625,1.1016932725906372,0.30352210998535156,5.835305213928223
1713358342163322000,5.439322021484375,0.8760305047035217,0.2204580307006836,7.091451168060303
1713358342173301500,5.449301513671875,1.1870663166046143,-0.1880331039428711,7.086653709411621
1713358342183280600,5.45928076171875,1.5152125358581543,-1.184126853942871,5.271038055419922
1713358342193229300,5.469229248046875,1.5672590732574463,-2.350736618041992,2.304971694946289
1713358342203208700,5.479208740234375,1.3213615417480469,-3.947660446166992,-0.34803035855293274
1713358342213187800,5.489187744140625,1.2114495038986206,-5.706367492675781,-3.2409512996673584
1713358342223136800,5.49913671875,2.283722400665283,-6.634895324707031,-6.668854713439941
1713358342233116000,5.509115966796875,4.205955505371094,-5.115231513977051,-7.581965446472168
1713358342243095000,5.519094970703125,3.6629109382629395,-1.5814142227172852,-4.940515041351318
1713358342253044000,5.5290439453125,1.3431992530822754,0.2750091552734375,0.49942824244499207
1713358342263023000,5.539023193359375,0.012254148721694946,-2.1278629302978516,5.018956661224365
1713358342273002500,5.54900244140625,-0.5794360637664795,-7.598294258117676,5.542789459228516
1713358342282951200,5.558951171875,-4.342746257781982,-12.504999160766602,2.416555643081665
1713358342292930300,5.568930419921875,-9.504098892211914,-16.0361385345459,-2.585038900375366
1713358342302909700,5.57890966796875,-11.885659217834473,-9.13376522064209,-3.5866265296936035
1713358342312888800,5.588888916015625,-6.962634563446045,-0.9529380798339844,-1.7872869968414307
1713358342322837500,5.59883740234375,-2.927706241607666,1.9670133590698242,-0.7590129375457764
1713358342332817000,5.60881689453125,-0.8973966836929321,2.9623289108276367,-0.22391986846923828
1713358342342796000,5.618796142578125,0.36276519298553467,3.1974639892578125,0.4262974262237549
1713358342352744700,5.62874462890625,-0.2717638611793518,2.2877559661865234,0.16008782386779785
1713358342362724000,5.63872412109375,-2.1055243015289307,1.2519197463989258,0.2799786329269409
1713358342372703200,5.648703125,-2.2935051918029785,0.7525091171264648,-0.42767333984375
1713358342382652200,5.658652099609375,-0.39540374279022217,0.17304515838623047,-2.6519970893859863
1713358342392631300,5.66863134765625,1.4306814670562744,-0.3466520309448242,-5.108620643615723
1713358342402610400,5.6786103515625,2.838101863861084,-0.8331432342529297,-7.674750804901123
1713358342412559400,5.688559326171875,3.1195945739746094,-0.8949518203735352,-9.986477851867676
1713358342422538500,5.69853857421875,1.66693115234375,-0.31008243560791016,-10.521344184875488
1713358342432517600,5.708517578125,-0.16177427768707275,0.6761884689331055,-8.147281646728516
1713358342442466600,5.718466552734375,-0.2631394863128662,2.002444267272949,-4.945842742919922
1713358342452445700,5.72844580078125,0.6062664985656738,3.0198564529418945,-2.10007905960083
1713358342462425000,5.738425048828125,1.5653685331344604,3.8067169189453125,-0.9381080269813538
1713358342472373800,5.748373779296875,2.514469623565674,4.191780090332031,-1.3497859239578247
1713358342482353000,5.758352783203125,2.783907890319824,4.445287704467773,-2.0797786712646484
1713358342492332300,5.768332275390625,2.619724988937378,4.714164733886719,-2.1986260414123535
1713358342502281000,5.778281005859375,2.280202865600586,4.66896915435791,-2.2438244819641113
1713358342512260000,5.788260009765625,1.353416085243225,4.102428436279297,-2.0070807933807373
1713358342522239500,5.798239501953125,0.01890265941619873,2.9672298431396484,-1.4674317836761475
1713358342532188200,5.808188232421875,-1.3412485122680664,1.6349554061889648,-1.2380071878433228
1713358342542167300,5.818167236328125,-1.8680669069290161,0.12326335906982422,-1.1043760776519775
1713358342552146700,5.828146728515625,-1.0431463718414307,-0.9055137634277344,-0.823150098323822
1713358342562095400,5.838095458984375,-0.2895580530166626,-1.1746025085449219,-0.08607769012451172
1713358342572074800,5.84807470703125,0.2942315340042114,-1.0168542861938477,1.1900031566619873
1713358342582054000,5.858053955078125,1.7466217279434204,-0.48792076110839844,3.800875186920166
1713358342592033000,5.868032958984375,2.2922933101654053,0.178680419921875,5.1074066162109375
1713358342601982000,5.87798193359375,0.9877731800079346,0.847956657409668,4.297335624694824
1713358342611961000,5.887961181640625,0.831792950630188,1.197702407836914,3.4432082176208496
1713358342621940500,5.8979404296875,-0.048003554344177246,1.5340003967285156,1.2304670810699463
1713358342631889200,5.90788916015625,0.022687792778015137,0.7200241088867188,0.4990408420562744
1713358342641868300,5.917868408203125,0.2902083396911621,0.09682655334472656,0.8465107679367065
1713358342651847700,5.92784765625,0.9191267490386963,-0.18386268615722656,1.8423559665679932
1713358342661796400,5.93779638671875,2.5513622760772705,-0.2357044219970703,2.628434419631958
1713358342671775500,5.947775390625,3.7181172370910645,0.037764549255371094,2.175441265106201
1713358342681755000,5.9577548828125,4.615979194641113,0.4938955307006836,2.156888246536255
1713358342691703600,5.96770361328125,5.967873573303223,0.6108560562133789,1.814380407333374
1713358342701682700,5.9776826171875,7.021635055541992,0.6059207916259766,1.7258827686309814
1713358342711662000,5.987662109375,7.018135070800781,0.9829578399658203,2.159975051879883
1713358342721610800,5.99761083984375,5.3484392166137695,1.741952896118164,3.250384569168091
1713358342731590100,6.007590087890625,4.3108625411987305,2.284334182739258,4.161311626434326
1713358342741569300,6.0175693359375,3.5044007301330566,1.766495704650879,4.354189872741699
1713358342751518000,6.02751806640625,2.520312786102295,-0.12219810485839844,4.318209648132324
1713358342761497300,6.037497314453125,2.297663450241089,-2.0507192611694336,2.6990623474121094
1713358342771476500,6.0474765625,2.1912779808044434,-3.3500804901123047,1.0524239540100098
1713358342781425200,6.057425048828125,2.998131275177002,-4.0323076248168945,-0.18627715110778809
1713358342791404500,6.067404541015625,3.6397554874420166,-3.7839584350585938,-0.3867484927177429
1713358342801353200,6.077353271484375,2.587474822998047,-2.886323928833008,0.42234188318252563
1713358342811332400,6.087332275390625,1.4669890403747559,-1.910935401916504,1.1427826881408691
1713358342821311700,6.097311767578125,0.9251425266265869,-0.5469913482666016,1.6228344440460205
1713358342831260400,6.107260498046875,-0.5064305067062378,0.8841352462768555,1.4556139707565308
1713358342841239800,6.11723974609375,-2.279881000518799,1.8402490615844727,1.1101000308990479
1713358342851219000,6.127218994140625,-3.1024770736694336,2.560408592224121,0.26446831226348877
1713358342861198000,6.137197998046875,-3.162950038909912,2.853487014770508,-1.8171882629394531
1713358342871147000,6.14714697265625,-3.863039016723633,1.7834644317626953,-4.537591934204102
1713358342881126100,6.157126220703125,-4.445915222167969,-0.9596233367919922,-6.409243583679199
1713358342891105300,6.167105224609375,-4.112005710601807,-5.584074020385742,-10.188736915588379
1713358342901054200,6.17705419921875,-2.837320327758789,-10.564697265625,-14.790940284729004
1713358342911033300,6.187033447265625,-2.08376407623291,-14.544529914855957,-16.08254051208496
1713358342921012700,6.1970126953125,-2.6690261363983154,-13.919292449951172,-11.666616439819336
1713358342930991900,6.206991943359375,-5.509959697723389,-9.26157283782959,-5.167751312255859
1713358342940940500,6.2169404296875,-8.577847480773926,-6.29068660736084,-1.2042771577835083
1713358342950920000,6.226919921875,-10.409260749816895,-4.5177154541015625,2.009030342102051
1713358342960899000,6.236899169921875,-10.95959186553955,-2.809438705444336,3.8262534141540527
1713358342970847700,6.24684765625,-9.970951080322266,-1.3483753204345703,6.9483962059021
1713358342980827100,6.2568271484375,-9.14767837524414,0.5928592681884766,9.687491416931152
1713358342990806300,6.26680615234375,-7.23323392868042,2.0788965225219727,9.177295684814453
1713358343000755000,6.2767548828125,-4.038634300231934,3.4807472229003906,7.250765323638916
1713358343010734300,6.286734375,0.1533103883266449,5.2335405349731445,7.031467914581299
1713358343020713500,6.29671337890625,4.691625118255615,5.744723320007324,5.109925746917725
1713358343030662400,6.306662353515625,5.508876800537109,5.0283203125,2.4073784351348877
1713358343040641500,6.3166416015625,4.4414496421813965,4.642414093017578,0.38974326848983765
1713358343050590200,6.326590087890625,3.580315113067627,5.361249923706055,-0.25263458490371704
1713358343060569600,6.336569580078125,2.535543441772461,5.433598518371582,-1.8963401317596436
1713358343070548700,6.346548828125,1.5379844903945923,5.1809844970703125,-3.6206204891204834
1713358343080497400,6.356497314453125,0.6840027570724487,5.22097110748291,-4.094186305999756
1713358343090476800,6.366476806640625,0.06521955132484436,5.142723083496094,-3.912752866744995
1713358343100456000,6.3764560546875,-0.039302825927734375,4.784574508666992,-3.240339756011963
1713358343110404600,6.386404541015625,-0.2231103777885437,4.178386688232422,-2.6639206409454346
1713358343120384000,6.396384033203125,-0.5438131093978882,3.408571243286133,-2.3602097034454346
1713358343130363100,6.406363037109375,-0.9612698554992676,2.5384721755981445,-2.449418067932129
1713358343140312000,6.41631201171875,-1.2797361612319946,1.8536376953125,-2.477325916290283
1713358343150291200,6.426291259765625,-1.0657985210418701,1.4448204040527344,-2.069417953491211
1713358343160270300,6.436270263671875,-0.3277612328529358,1.1079950332641602,-1.3073726892471313
1713358343170249700,6.446249755859375,0.458748459815979,0.6013622283935547,-0.37259939312934875
1713358343180198400,6.456198486328125,1.243316411972046,0.07294845581054688,0.9818400740623474
1713358343190177800,6.466177734375,1.8036494255065918,-0.15303707122802734,2.6404874324798584
1713358343200157000,6.476156982421875,1.9700026512145996,-0.1351757049560547,4.425852298736572
1713358343210105600,6.486105712890625,1.5583133697509766,-0.06761360168457031,6.318324089050293
1713358343220085000,6.4960849609375,0.8801332116127014,-0.1749105453491211,7.958646774291992
1713358343230064000,6.506064208984375,0.7618067264556885,-0.6191568374633789,8.370269775390625
1713358343240012800,6.5160126953125,1.0236599445343018,-1.6959571838378906,6.3806233406066895
1713358343249992200,6.5259921875,1.2306084632873535,-3.518618583679199,3.3980679512023926
1713358343259971300,6.535971435546875,2.4175426959991455,-5.567447662353516,0.714124321937561
1713358343269920000,6.545919921875,2.2825489044189453,-7.6913042068481445,-2.575127363204956
1713358343279899400,6.5558994140625,3.8033838272094727,-8.58077621459961,-6.087069034576416
1713358343289878500,6.56587841796875,2.7677948474884033,-6.90144157409668,-8.834882736206055
1713358343299827500,6.575827392578125,-1.5870490074157715,-4.181604385375977,-8.197879791259766
1713358343309806600,6.585806640625,-0.5576577186584473,-4.538800239562988,-4.259637355804443
1713358343319785700,6.59578564453125,-0.14036774635314941,-5.531472206115723,-2.381376028060913
1713358343329734700,6.605734619140625,-4.108304977416992,-7.196539878845215,-3.2061779499053955
1713358343339713800,6.6157138671875,-5.66874885559082,-10.714048385620117,-1.0301815271377563
1713358343349693000,6.62569287109375,-7.872122764587402,-8.378024101257324,2.8562707901000977
1713358343359641900,6.635641845703125,-9.269211769104004,-3.192455291748047,3.5313916206359863
1713358343369621000,6.64562109375,-6.75439977645874,-0.9096574783325195,3.4029111862182617
1713358343379600400,6.655600341796875,-4.094745635986328,1.307826042175293,2.8019728660583496
1713358343389549000,6.665549072265625,-1.2741749286651611,3.777986526489258,1.4638800621032715
1713358343399528200,6.675528076171875,0.8055695295333862,5.369597434997559,0.9737892746925354
1713358343409507600,6.685507568359375,1.7687264680862427,6.211529731750488,0.8360434174537659
1713358343419456300,6.695456298828125,4.412435531616211,6.160484313964844,-0.938503086566925
1713358343429435400,6.705435302734375,3.4358110427856445,5.084392547607422,-0.5639604330062866
1713358343439414800,6.715414794921875,1.3984802961349487,3.230555534362793,-0.2613397240638733
1713358343449394000,6.725393798828125,1.7787437438964844,1.2365331649780273,-2.231447219848633
1713358343459373300,6.735373291015625,1.8395336866378784,-0.35210227966308594,-5.625311374664307
1713358343469322000,6.745322021484375,0.46256589889526367,-1.5105667114257812,-8.696450233459473
1713358343479301000,6.755301025390625,-0.3152494430541992,-2.580376625061035,-10.889904975891113
1713358343489250000,6.76525,-0.5822646617889404,-2.4876012802124023,-9.93001937866211
1713358343499229200,6.775229248046875,-0.6532412767410278,-0.18101787567138672,-5.717062473297119
1713358343509208300,6.785208251953125,0.7508774995803833,2.9434328079223633,-4.5988030433654785
1713358343519157200,6.7951572265625,2.412555694580078,5.269107818603516,-4.018661022186279
1713358343529136400,6.805136474609375,3.474581241607666,6.427410125732422,-3.908129930496216
1713358343539115800,6.81511572265625,3.7083568572998047,6.598664283752441,-4.153887748718262
1713358343549064400,6.825064453125,2.763064384460449,6.127895355224609,-4.114193439483643
1713358343559043600,6.835043701171875,1.1828848123550415,4.884125709533691,-3.0122759342193604
1713358343569023000,6.84502294921875,0.3221970796585083,3.2531137466430664,-1.1789169311523438
1713358343578971600,6.8549716796875,0.128440260887146,1.3739700317382812,0.6352861523628235
1713358343588950800,6.86495068359375,0.612891674041748,-0.563542366027832,2.1677284240722656
1713358343598930200,6.87493017578125,1.2270814180374146,-2.240764617919922,3.2207131385803223
1713358343608878800,6.88487890625,1.3614885807037354,-3.1205759048461914,3.704444408416748
1713358343618858000,6.89485791015625,0.8556699752807617,-2.522677421569824,3.668403148651123
1713358343628837400,6.90483740234375,-0.18985021114349365,-1.0923271179199219,3.242675542831421
1713358343638786000,6.9147861328125,-0.785009503364563,0.4078664779663086,2.904942274093628
1713358343648765400,6.924765380859375,-0.47438180446624756,1.7246150970458984,2.835893154144287
1713358343658744600,6.93474462890625,-0.23237133026123047,2.244342803955078,1.970076322555542
1713358343668693200,6.944693359375,-0.6303725242614746,2.019582748413086,1.2024352550506592
1713358343678672600,6.954672607421875,-0.06670808792114258,1.3834028244018555,0.7052879333496094
1713358343688651800,6.96465185546875,0.4434269666671753,1.0716724395751953,1.4612938165664673
1713358343698600400,6.974600341796875,0.8479282855987549,0.7376241683959961,2.804884433746338
1713358343708579800,6.984579833984375,2.320300817489624,-0.18847274780273438,2.914214611053467
1713358343718559000,6.99455908203125,3.603717803955078,-0.7425651550292969,2.179082155227661
1713358343728538400,7.004538330078125,5.45864725112915,-0.7532949447631836,1.2288459539413452
1713358343738487000,7.014487060546875,7.2148847579956055,-0.24065017700195312,0.9320992231369019
1713358343748466200,7.024466064453125,7.475297927856445,0.5022058486938477,0.7901446223258972
1713358343758445600,7.034445556640625,6.525275230407715,0.8594179153442383,1.392594814300537
1713358343768394200,7.044394287109375,5.646548271179199,1.1506643295288086,3.342358112335205
1713358343778373400,7.054373291015625,4.9065656661987305,0.8587179183959961,5.220672130584717
1713358343788352800,7.064352783203125,3.968129873275757,-0.15185928344726562,6.2130937576293945
1713358343798301400,7.074301513671875,3.3032755851745605,-1.5529756546020508,5.373985290527344
1713358343808280600,7.084280517578125,2.3881442546844482,-3.140779495239258,3.9668984413146973
1713358343818260000,7.094260009765625,1.684706211090088,-4.58769416809082,2.4112062454223633
1713358343828208600,7.104208740234375,0.9121713638305664,-5.341577529907227,1.0275242328643799
1713358343838188000,7.11418798828125,0.1949937343597412,-5.22077751159668,0.8444641828536987
1713358343848167200,7.124167236328125,-0.3857874870300293,-3.958563804626465,1.0359117984771729
1713358343858115800,7.13411572265625,-0.590850830078125,-2.3162002563476562,0.8399794101715088
1713358343868095200,7.14409521484375,-1.1996476650238037,-0.30827808380126953,0.3591080904006958
1713358343878074400,7.154074462890625,-2.3659539222717285,1.5208091735839844,0.024358034133911133
1713358343888023000,7.16402294921875,-2.5131657123565674,2.4054250717163086,-0.7980911731719971
1713358343898002400,7.17400244140625,-2.2460203170776367,2.2221155166625977,-3.2726082801818848
1713358343907981600,7.183981689453125,-2.5306601524353027,1.2731914520263672,-6.694632530212402
1713358343917930200,7.19393017578125,-2.955220937728882,-0.9345216751098633,-10.535524368286133
1713358343927909600,7.20390966796875,-2.5138580799102783,-4.273067474365234,-13.263243675231934
1713358343937888800,7.213888671875,-1.529031753540039,-8.10312557220459,-15.328805923461914
1713358343947837700,7.223837646484375,-1.2116743326187134,-10.806966781616211,-15.492822647094727
1713358343957816800,7.23381689453125,-2.294668197631836,-10.456705093383789,-11.529902458190918
1713358343967796000,7.2437958984375,-3.6708083152770996,-7.069454193115234,-4.602272033691406
1713358343977745000,7.253744873046875,-6.2389984130859375,-4.7316694259643555,-0.25729870796203613
1713358343987724000,7.26372412109375,-10.751700401306152,-3.973674774169922,2.2189242839813232
1713358343997703400,7.273703369140625,-12.413238525390625,-3.6515398025512695,4.101681709289551
1713358344007652000,7.283652099609375,-10.583450317382812,-3.177661895751953,6.770786285400391
1713358344017631200,7.29363134765625,-8.999908447265625,-1.7333240509033203,8.842752456665039
1713358344027610600,7.303610595703125,-7.580836772918701,0.44449615478515625,10.806831359863281
1713358344037589800,7.31358984375,-5.843501567840576,2.0269546508789062,9.00056266784668
1713358344047538400,7.323538330078125,-2.1886143684387207,3.5297651290893555,6.611690044403076
1713358344057517800,7.333517822265625,2.4977128505706787,4.491033554077148,6.149460792541504
1713358344067497000,7.3434970703125,5.073704242706299,4.530261993408203,4.1677350997924805
1713358344077445600,7.353445556640625,5.952876567840576,4.740719795227051,2.326096534729004
1713358344087425000,7.363425048828125,4.925347805023193,4.759818077087402,0.2915647327899933
1713358344097404200,7.373404052734375,3.7704756259918213,4.936850547790527,-1.1167962551116943
1713358344107353000,7.38335302734375,2.9814209938049316,5.054267883300781,-2.674957036972046
1713358344117332200,7.393332275390625,2.287257194519043,5.645376205444336,-3.701429605484009
1713358344127311400,7.403311279296875,1.7154111862182617,6.3057966232299805,-4.446170330047607
1713358344137260300,7.41326025390625,1.2233343124389648,6.775299072265625,-4.393252372741699
1713358344147239400,7.423239501953125,0.5980228185653687,6.715245246887207,-3.5281825065612793
1713358344157218600,7.433218505859375,0.04593557119369507,6.112723350524902,-2.3578238487243652
1713358344167167500,7.44316748046875,-0.3268931806087494,5.224936485290527,-1.5729128122329712
1713358344177146600,7.453146728515625,-0.4570334255695343,3.9839820861816406,-1.4670894145965576
1713358344187126000,7.4631259765625,-0.3835107386112213,2.608762741088867,-1.4371832609176636
1713358344197074700,7.47307470703125,-0.14378035068511963,1.0808792114257812,-1.3920750617980957
1713358344207053800,7.4830537109375,0.29878708720207214,-0.37026500701904297,-0.9215739965438843
1713358344217033200,7.493033203125,0.7278789281845093,-1.480454444885254,0.4487476348876953
1713358344226982000,7.50298193359375,1.0895241498947144,-2.4637107849121094,2.379145383834839
1713358344236961000,7.5129609375,1.5048376321792603,-2.7859086990356445,4.439872741699219
1713358344246940400,7.5229404296875,1.2405648231506348,-2.489222526550293,5.669022560119629
1713358344256889000,7.53288916015625,0.35409292578697205,-2.293490409851074,6.3910956382751465
1713358344266868200,7.5428681640625,-0.38102129101753235,-2.517979621887207,6.515953063964844
1713358344276847600,7.55284765625,-0.11011111736297607,-2.925546646118164,5.488070487976074
1713358344286796300,7.56279638671875,-0.37921142578125,-3.8747730255126953,3.8252954483032227
1713358344296775700,7.572775634765625,-1.296660304069519,-4.333005905151367,1.9924489259719849
1713358344306754800,7.5827548828125,0.38800883293151855,-4.609803199768066,-0.32412976026535034
1713358344316734000,7.59273388671875,2.280498743057251,-5.144829750061035,-3.0232484340667725
1713358344326683000,7.602682861328125,3.856268882751465,-4.639618873596191,-6.210890293121338
1713358344336662000,7.612662109375,3.6190123558044434,-3.2768354415893555,-8.227701187133789
1713358344346641400,7.622641357421875,1.1645057201385498,-3.862791061401367,-6.248939514160156
1713358344356590000,7.632590087890625,2.0515506267547607,-6.0050458908081055,-3.408137321472168
1713358344366569200,7.6425693359375,1.8648960590362549,-6.9344635009765625,-3.3784844875335693
1713358344376548600,7.652548583984375,-3.0206756591796875,-7.260459899902344,-4.875952243804932
1713358344386497300,7.662497314453125,-9.239958763122559,-7.476800918579102,-5.443037033081055
1713358344396476400,7.672476318359375,-11.553670883178711,-4.549554824829102,-3.532989501953125
1713358344406455800,7.682455810546875,-8.295286178588867,-1.1434040069580078,0.7343720197677612
1713358344416404500,7.692404541015625,-2.984006881713867,0.19129467010498047,4.624089241027832
1713358344426383600,7.702383544921875,0.28200459480285645,1.6480255126953125,5.873551845550537
1713358344436363000,7.712363037109375,0.5700033903121948,3.2498703002929688,4.340765953063965
1713358344446311700,7.722311767578125,0.3999612331390381,4.650205612182617,2.455723762512207
1713358344456291000,7.732291015625,0.32795798778533936,5.520258903503418,0.8020960092544556
1713358344466270200,7.742270263671875,1.5564377307891846,5.627480506896973,-0.38159990310668945
1713358344476219000,7.752218994140625,5.163119316101074,3.7581987380981445,-1.9510669708251953
1713358344486198300,7.7621982421875,1.794411540031433,2.424614906311035,-3.1276941299438477
1713358344496177400,7.772177490234375,-0.0792151689529419,1.2072677612304688,-5.026393890380859
1713358344506126000,7.7821259765625,-1.8204785585403442,-0.5255613327026367,-7.632693767547607
1713358344516105500,7.79210546875,-1.5876165628433228,-1.686833381652832,-8.864425659179688
1713358344526084600,7.802084716796875,0.21796941757202148,-1.7468652725219727,-7.935973167419434
1713358344536033300,7.812033203125,1.2151340246200562,-0.5926446914672852,-4.7819976806640625
1713358344546012700,7.8220126953125,1.7202637195587158,2.132441520690918,-3.698009490966797
1713358344555961300,7.83196142578125,2.108497142791748,4.650428771972656,-3.361367702484131
1713358344565940700,7.841940673828125,3.03903865814209,6.3897809982299805,-2.9712233543395996
1713358344575919900,7.851919921875,3.5384488105773926,6.953929901123047,-3.280904531478882
1713358344585899000,7.86189892578125,3.214730739593506,6.459750175476074,-3.2048137187957764
1713358344595848000,7.871847900390625,2.142697811126709,5.458853721618652,-2.168874979019165
1713358344605827000,7.8818271484375,1.0233038663864136,4.019173622131348,-0.2396928071975708
1713358344615806200,7.89180615234375,0.6135902404785156,2.0410871505737305,1.699992299079895
1713358344625785600,7.90178564453125,0.9491689205169678,-0.09392356872558594,3.566436529159546
1713358344635734300,7.911734375,1.2296465635299683,-1.981745719909668,4.605470180511475
1713358344645713700,7.921713623046875,0.9567000865936279,-2.9748058319091797,4.553468704223633
1713358344655692800,7.93169287109375,-0.021706461906433105,-2.668795585632324,3.850611686706543
1713358344665641500,7.941641357421875,-0.9835668802261353,-1.6724891662597656,3.0152695178985596
1713358344675620900,7.951620849609375,-1.4729397296905518,-0.7122888565063477,2.2430596351623535
1713358344685600000,7.96160009765625,-1.5887044668197632,-0.17319583892822266,1.4604978561401367
1713358344695548700,7.971548583984375,-1.4467790126800537,-0.10021018981933594,0.6186801195144653
1713358344705528000,7.981528076171875,-1.394301176071167,-0.4358196258544922,0.22565925121307373
1713358344715507200,7.991507080078125,-0.7009496688842773,-0.8303050994873047,0.09413635730743408
1713358344725456000,8.001455810546876,0.8555648326873779,-0.9802923202514648,0.21231937408447266
1713358344735435300,8.011435302734375,2.0456621646881104,-0.9313507080078125,0.26855969429016113
1713358344745414400,8.021414306640626,4.602263927459717,-0.5495538711547852,-0.5487484931945801
1713358344755363300,8.03136328125,7.8045244216918945,0.22240924835205078,-1.5456634759902954
1713358344765342500,8.041342529296875,9.99362564086914,1.073568344116211,-2.013280153274536
1713358344775321600,8.051321533203126,10.816347122192383,2.32425594329834,-1.249959945678711
1713358344785270500,8.0612705078125,8.530155181884766,3.318863868713379,0.48006147146224976
1713358344795249700,8.071249755859375,5.477067947387695,3.8456220626831055,2.981613874435425
1713358344805198300,8.0811982421875,4.2823805809021,3.1185951232910156,5.400630950927734
1713358344815177700,8.091177734375,3.9261012077331543,0.9583587646484375,6.744849681854248
1713358344825156900,8.101156982421875,3.0827319622039795,-1.8002653121948242,6.048000812530518
1713358344835105500,8.11110546875,2.3262763023376465,-4.391986846923828,4.161426067352295
1713358344845085000,8.1210849609375,2.1941635608673096,-6.489142417907715,2.7160346508026123
1713358344855064000,8.13106396484375,2.3744571208953857,-7.31229305267334,2.8349509239196777
1713358344865043500,8.14104345703125,0.8613049983978271,-6.047018051147461,4.1478471755981445
1713358344874992000,8.1509921875,-0.48369574546813965,-3.5780839920043945,4.055113792419434
1713358344884971300,8.16097119140625,-0.9456068277359009,-1.133772850036621,3.0535755157470703
1713358344894950700,8.17095068359375,-1.6388540267944336,0.8982305526733398,2.539865016937256
1713358344904929800,8.1809296875,-2.985086679458618,2.1368541717529297,1.7974623441696167
1713358344914878700,8.190878662109375,-3.034705877304077,2.875955581665039,0.2958424687385559
1713358344924857900,8.20085791015625,-2.4170570373535156,2.897406578063965,-2.0794460773468018
1713358344934837000,8.2108369140625,-2.9482758045196533,1.9515161514282227,-4.410149097442627
1713358344944786000,8.220785888671875,-3.5927741527557373,0.3087778091430664,-6.510504722595215
1713358344954765000,8.23076513671875,-3.901024580001831,-2.5572195053100586,-9.77623462677002
1713358344964744400,8.240744384765625,-2.982285737991333,-6.415863990783691,-13.750961303710938
1713358344974693000,8.250693115234375,-1.3351343870162964,-10.34201717376709,-16.070899963378906
1713358344984672300,8.26067236328125,-1.5387107133865356,-12.21601390838623,-15.419191360473633
1713358344994651600,8.270651611328125,-3.28682279586792,-9.997098922729492,-9.265949249267578
1713358345004600300,8.280600341796875,-5.5260772705078125,-7.046255111694336,-3.387803077697754
1713358345014579500,8.290579345703126,-8.594382286071777,-5.514786720275879,0.14225149154663086
1713358345024558800,8.300558837890625,-10.114912986755371,-4.398207664489746,2.5509533882141113
1713358345034507500,8.310507568359375,-10.020997047424316,-2.823357582092285,4.2894086837768555
1713358345044486700,8.320486572265626,-9.39194107055664,-0.9142532348632812,6.9840803146362305
1713358345054466000,8.330466064453125,-8.929489135742188,1.621659278869629,10.390364646911621
1713358345064414700,8.340414794921875,-7.730911731719971,3.5890884399414062,9.809463500976562
1713358345074393900,8.350393798828126,-4.415162086486816,5.210036277770996,7.459869861602783
1713358345084342800,8.3603427734375,1.2045912742614746,6.159985542297363,6.487530708312988
1713358345094322000,8.370322021484375,4.4895100593566895,6.0484466552734375,4.292413711547852
1713358345104301300,8.38030126953125,5.7207865715026855,5.720893859863281,2.4500977993011475
1713358345114250000,8.39025,4.7840986251831055,5.550558090209961,0.9334478378295898
1713358345124229000,8.40022900390625,2.9970197677612305,5.590785026550293,-0.3378036916255951
1713358345134208500,8.41020849609375,1.969648838043213,5.344374656677246,-2.542247772216797
1713358345144157200,8.4201572265625,1.6482141017913818,5.383279800415039,-3.488551378250122
1713358345154136300,8.43013623046875,1.4304659366607666,5.399165153503418,-3.156176805496216
1713358345164115700,8.44011572265625,1.0865613222122192,4.91478157043457,-2.879727363586426
1713358345174094800,8.4500947265625,0.22664761543273926,4.230360984802246,-2.3679420948028564
1713358345184074200,8.46007421875,-1.0146710872650146,3.4449338912963867,-1.6636297702789307
1713358345194023000,8.47002294921875,-1.4599125385284424,2.628734588623047,-1.3518213033676147
1713358345204002000,8.480001953125,-0.9466843605041504,1.5505943298339844,-1.2067348957061768
1713358345213951000,8.489950927734375,0.0024919509887695312,0.4189329147338867,-0.6689236164093018
1713358345223930000,8.49993017578125,0.7310663461685181,-0.5848464965820312,0.2164040058851242
1713358345233909200,8.5099091796875,1.085604190826416,-1.1748161315917969,1.288200855255127
1713358345243858200,8.519858154296875,1.018489122390747,-1.3307256698608398,3.0311684608459473
1713358345253837300,8.52983740234375,0.9790363311767578,-1.1349172592163086,5.247272491455078
1713358345263816700,8.539816650390625,1.0304908752441406,-1.0421953201293945,6.678720474243164
1713358345273765400,8.549765380859375,0.9391021728515625,-1.0740814208984375,7.611322402954102
1713358345283744500,8.55974462890625,0.6015612483024597,-1.681767463684082,6.921478748321533
1713358345293724000,8.569723876953125,0.15169113874435425,-2.763678550720215,4.2755126953125
1713358345303672600,8.579672607421875,-2.9976730346679688,-4.745516777038574,1.2057055234909058
1713358345313651700,8.589651611328126,-3.872044801712036,-6.8724470138549805,-1.584504246711731
1713358345323631000,8.599631103515625,-1.6516603231430054,-8.69133186340332,-5.265134811401367
1713358345333579800,8.609579833984375,4.961723327636719,-9.155489921569824,-9.47868824005127
1713358345343559000,8.619558837890626,7.652588844299316,-5.398879051208496,-10.063632011413574
1713358345353538300,8.629538330078125,2.8001232147216797,-1.8713493347167969,-7.204538345336914
1713358345363487000,8.639487060546875,1.0203149318695068,-2.13832950592041,-3.375791072845459
1713358345373466400,8.64946630859375,1.8241302967071533,-3.2072086334228516,-0.4048863649368286
1713358345383445500,8.659445556640625,-1.3997039794921875,-4.330183982849121,-1.7773895263671875
1713358345393394200,8.669394287109375,-5.773743629455566,-7.811859130859375,-5.0674214363098145
1713358345403373600,8.67937353515625,-9.277730941772461,-9.580106735229492,-3.9544589519500732
1713358345413352700,8.689352783203125,-10.054020881652832,-3.616238594055176,-0.598503828048706
1713358345423301400,8.69930126953125,-6.801267147064209,0.13715076446533203,2.8947343826293945
1713358345433280800,8.70928076171875,-3.648136854171753,2.126328468322754,4.234565258026123
1713358345443260000,8.719260009765625,-1.042973279953003,4.055943489074707,4.238358020782471
1713358345453239300,8.7292392578125,0.7039960622787476,5.189311981201172,3.751171588897705
1713358345463218400,8.739218505859375,1.467193603515625,5.3797454833984375,3.922903537750244
1713358345473167000,8.7491669921875,1.092592477798462,4.791892051696777,2.4668338298797607
1713358345483146500,8.759146484375,1.2537832260131836,4.429969787597656,0.5306691527366638
1713358345493095200,8.76909521484375,1.7028212547302246,3.6576108932495117,-1.2443128824234009
1713358345503074300,8.77907421875,1.6438407897949219,1.5298023223876953,-3.78013277053833
1713358345513053700,8.7890537109375,0.2387981414794922,-0.41337013244628906,-6.0960540771484375
1713358345523002400,8.79900244140625,-0.9620115756988525,-1.889322280883789,-8.375874519348145
1713358345532981500,8.8089814453125,-0.5183358192443848,-2.7447967529296875,-8.32141399383545
1713358345542961000,8.8189609375,0.017818927764892578,-2.4710264205932617,-5.950589179992676
1713358345552909600,8.82890966796875,0.2903708219528198,-0.6192378997802734,-4.675748825073242
1713358345562889000,8.838888916015625,0.9992107152938843,2.3434886932373047,-3.792710542678833
1713358345572868000,8.8488681640625,1.1420555114746094,4.62843132019043,-2.622880697250366
1713358345582816800,8.858816650390626,0.8784157037734985,5.729203224182129,-2.8365111351013184
1713358345592796200,8.868796142578125,0.9342265129089355,5.919345855712891,-3.378852128982544
1713358345602775300,8.878775390625,1.1772760152816772,5.488500595092773,-3.699683427810669
1713358345612724000,8.888723876953126,0.6677746772766113,4.397978782653809,-3.3055548667907715
1713358345622703400,8.898703369140625,0.18782031536102295,2.8540115356445312,-2.539626121520996
1713358345632682500,8.9086826171875,0.3048449754714966,1.4154338836669922,-1.1090072393417358
1713358345642631200,8.918631103515626,1.049657940864563,0.4310140609741211,1.074456810951233
1713358345652610600,8.928610595703125,1.834437370300293,-0.23781299591064453,2.940258026123047
1713358345662589700,8.938589599609376,1.9885622262954712,-0.6842718124389648,4.410935401916504
1713358345672538600,8.94853857421875,1.7083969116210938,-0.9523115158081055,5.0840864181518555
1713358345682517800,8.958517822265625,1.0029445886611938,-0.7425050735473633,5.159790515899658
1713358345692497000,8.968496826171876,0.4082096815109253,-0.1189565658569336,4.791656970977783
1713358345702445800,8.97844580078125,-0.06471192836761475,0.06862640380859375,3.7425055503845215
1713358345712425000,8.988425048828125,-0.5722354650497437,-0.7132120132446289,1.9195138216018677
1713358345722404400,8.998404296875,-1.0250986814498901,-1.4616012573242188,0.31190598011016846
1713358345732383500,9.008383544921875,-1.099278450012207,-1.6795854568481445,-0.3219616413116455
1713358345742332200,9.018332275390625,-0.2866349220275879,-1.2358160018920898,0.5226960182189941
1713358345752311600,9.0283115234375,1.8839311599731445,-0.6371746063232422,1.7720876932144165
1713358345762290700,9.038290771484375,4.403270244598389,-0.0007600784301757812,2.035085678100586
1713358345772239400,9.0482392578125,6.814705848693848,0.6035165786743164,2.1547434329986572
1713358345782218800,9.05821875,8.416263580322266,1.5111055374145508,2.6901307106018066
1713358345792198000,9.068197998046875,8.868773460388184,2.344161033630371,2.406480073928833
1713358345802146600,9.078146484375,6.371895790100098,3.0938549041748047,2.3108232021331787
1713358345812126000,9.0881259765625,3.659118175506592,3.143496513366699,2.7970523834228516
1713358345822105000,9.09810498046875,2.3212075233459473,1.7981863021850586,3.7395265102386475
1713358345832054000,9.108053955078125,1.7538213729858398,-0.7695865631103516,3.634638786315918
1713358345842033200,9.118033203125,1.3175389766693115,-2.994182586669922,2.5763540267944336
1713358345852012300,9.12801220703125,1.70857572555542,-4.515529632568359,1.738839864730835
1713358345861961200,9.137961181640625,3.0736677646636963,-5.173762321472168,2.131701946258545
1713358345871940400,9.1479404296875,2.8918704986572266,-4.882383346557617,3.5359742641448975
1713358345881919500,9.15791943359375,2.0185742378234863,-3.969515800476074,4.133700370788574
1713358345891868400,9.167868408203125,1.3144309520721436,-2.4706878662109375,3.424628257751465
1713358345901847600,9.17784765625,0.012689352035522461,-0.7974472045898438,2.522704601287842
1713358345911827000,9.187826904296875,-1.9284119606018066,0.5160655975341797,2.086848497390747
1713358345921775600,9.197775634765625,-2.7562742233276367,1.6283435821533203,1.4897209405899048
1713358345931754800,9.207754638671876,-2.2426888942718506,2.491053581237793,-0.5431292057037354
1713358345941734100,9.217734130859375,-2.3736093044281006,2.16909122467041,-2.763759136199951
1713358345951682800,9.227682861328125,-3.4291489124298096,0.49274158477783203,-5.814129829406738
1713358345961662000,9.237661865234376,-3.77748703956604,-3.1375255584716797,-9.472396850585938
1713358345971641300,9.247641357421875,-2.573977470397949,-8.038137435913086,-13.542120933532715
1713358345981590000,9.257590087890625,-1.138146162033081,-12.121110916137695,-16.328269958496094
1713358345991569200,9.267569091796876,-1.5492621660232544,-12.689128875732422,-14.359750747680664
1713358346001548500,9.277548583984375,-4.146411895751953,-8.798322677612305,-6.509097099304199
1713358346011497200,9.287497314453125,-6.63535213470459,-5.530490875244141,-0.1141350269317627
1713358346021476600,9.2974765625,-9.686503410339355,-4.106479644775391,2.345613479614258
1713358346031455700,9.307455810546875,-10.793473243713379,-2.888791084289551,3.418562889099121
1713358346041435000,9.317434814453126,-10.11575984954834,-1.3650569915771484,4.969808578491211
1713358346051383800,9.3273837890625,-9.073824882507324,0.5153770446777344,7.21345853805542
1713358346061363000,9.337363037109375,-7.513721466064453,2.586850166320801,8.830326080322266
1713358346071342300,9.34734228515625,-5.830992698669434,3.674928665161133,6.837746620178223
1713358346081291000,9.357291015625,-1.2545530796051025,5.037806510925293,4.099277496337891
1713358346091270100,9.367270263671875,4.312502861022949,5.294668197631836,3.3383712768554688
1713358346101249500,9.37724951171875,5.042762279510498,4.549961090087891,1.7284117937088013
1713358346111198200,9.3871982421875,4.317692279815674,4.573227882385254,0.43466758728027344
1713358346121177300,9.39717724609375,3.3555972576141357,4.448677062988281,-1.0224465131759644
1713358346131156700,9.40715673828125,2.4684886932373047,4.289063453674316,-2.1839957237243652
1713358346141105400,9.41710546875,2.108814239501953,4.118577003479004,-2.9685280323028564
1713358346151084500,9.42708447265625,1.8078162670135498,4.360288619995117,-2.982715368270874
1713358346161064000,9.43706396484375,1.1436196565628052,4.449909210205078,-2.783771276473999
1713358346171012600,9.4470126953125,0.24222445487976074,4.330975532531738,-2.7033448219299316
1713358346180992000,9.456991943359375,-0.6313571333885193,4.150081634521484,-2.145875930786133
1713358346190971100,9.46697119140625,-1.4759083986282349,3.5830554962158203,-1.3999176025390625
1713358346200919800,9.476919921875,-1.3487176895141602,2.748227119445801,-0.8570144772529602
1713358346210899200,9.486899169921875,-0.3655235469341278,2.284027099609375,-0.8110167384147644
1713358346220878300,9.49687841796875,0.5739960074424744,1.905466079711914,-0.8635843396186829
1713358346230827000,9.506826904296876,1.1508591175079346,1.5216484069824219,-0.5620575547218323
1713358346240806400,9.516806396484375,1.474937081336975,1.3306703567504883,0.1791478842496872
1713358346250785500,9.52678564453125,1.6003334522247314,1.3316459655761719,1.5945795774459839
1713358346260734200,9.536734130859376,1.866553783416748,1.43524169921875,3.5017471313476562
1713358346270713600,9.546713623046875,1.9493688344955444,1.4377899169921875,5.11808443069458
1713358346280692700,9.556692626953126,1.5636372566223145,1.0023574829101562,6.523566722869873
1713358346290641700,9.5666416015625,1.4441176652908325,-0.07138347625732422,7.276814937591553
1713358346300620800,9.576620849609375,0.4955354332923889,-2.259967803955078,5.393661975860596
1713358346310600000,9.586599853515626,-1.9909653663635254,-4.740740776062012,2.491237163543701
1713358346320579300,9.596579345703125,-4.033033847808838,-7.126819610595703,0.8272485733032227
1713358346330558500,9.606558349609376,-3.0196585655212402,-8.837899208068848,-1.9059109687805176
1713358346340507100,9.616507080078126,0.5319907069206238,-9.777220726013184,-6.452023983001709
1713358346350486500,9.626486572265625,2.6525518894195557,-6.424078941345215,-6.363287925720215
1713358346360465700,9.636465576171876,1.9091798067092896,-0.7966718673706055,-3.5510101318359375
1713358346370414600,9.64641455078125,3.628748893737793,1.9769649505615234,-0.1723516881465912
1713358346380393700,9.656393798828125,3.516591787338257,2.7473373413085938,3.6470530033111572
1713358346390372900,9.666372802734376,3.3375449180603027,1.1706666946411133,5.992221355438232
1713358346400321800,9.67632177734375,1.351423978805542,-3.4802627563476562,6.647304534912109
1713358346410301000,9.686301025390625,-3.106449604034424,-12.462997436523438,1.2823868989944458
1713358346420249600,9.69624951171875,-14.531654357910156,-21.849769592285156,-5.36314058303833
1713358346430229000,9.70622900390625,-26.6771183013916,-20.872318267822266,-12.187193870544434
1713358346440208100,9.7162080078125,-9.622891426086426,-8.244897842407227,-13.263154029846191
1713358346450156800,9.72615673828125,2.949683904647827,1.904618263244629,-4.956258773803711
1713358346460136200,9.73613623046875,6.616008758544922,7.253970146179199,-1.8868558406829834
1713358346470115300,9.746115234375,3.237478256225586,8.312785148620605,0.7363999485969543
1713358346480064300,9.756064208984375,0.7281845808029175,7.801044464111328,2.139484405517578
1713358346490043400,9.76604345703125,0.9137821197509766,7.832535743713379,1.709006905555725
1713358346500022500,9.7760224609375,1.9475152492523193,7.616977691650391,1.2739570140838623
1713358346509971500,9.785971435546875,2.113828182220459,6.18382453918457,0.22011405229568481
1713358346519950600,9.79595068359375,1.6398813724517822,4.631482124328613,-2.73409366607666
1713358346529930000,9.805929931640625,-0.23768699169158936,3.4216232299804688,-6.46454381942749
1713358346539878700,9.815878662109375,-1.6863595247268677,1.5560808181762695,-9.441498756408691
1713358346549857800,9.82585791015625,-0.18447887897491455,-1.7259416580200195,-11.224591255187988
1713358346559837200,9.835837158203125,2.0346715450286865,-5.21195125579834,-10.262680053710938
1713358346569785900,9.845785888671875,2.1300268173217773,-4.477997779846191,-8.719453811645508
1713358346579765000,9.855764892578126,1.3498059511184692,-0.3972625732421875,-6.772653102874756
1713358346589744400,9.865744384765625,2.387326240539551,2.905329704284668,-1.755769968032837
1713358346599723500,9.8757236328125,3.975492477416992,5.020846366882324,0.36003202199935913
1713358346609703000,9.885702880859375,4.196741580963135,5.735544204711914,0.3220176100730896
1713358346619651600,9.895651611328125,3.073714256286621,5.427539825439453,0.7081568241119385
1713358346629630700,9.905630615234376,1.4330745935440063,4.1446123123168945,1.6436858177185059
1713358346639579600,9.91557958984375,0.07802426815032959,2.425717353820801,2.2352042198181152
1713358346649558800,9.925558837890625,-1.0535343885421753,0.48987483978271484,2.4611213207244873
1713358346659538000,9.935537841796876,-1.2669379711151123,-1.1714677810668945,2.180440664291382
1713358346669486800,9.94548681640625,-1.1197024583816528,-2.014847755432129,2.1194233894348145
1713358346679466000,9.955466064453125,-1.0377020835876465,-2.197394371032715,2.0918667316436768
1713358346689445400,9.9654453125,-1.033247470855713,-1.909348487854004,1.9257768392562866
1713358346699394000,9.97539404296875,-0.9840074777603149,-1.1446409225463867,2.187091827392578
1713358346709373200,9.985373291015625,0.6668967008590698,0.17167282104492188,4.0485076904296875
1713358346719352600,9.9953525390625,0.18909931182861328,1.139394760131836,3.5130085945129395
1713358346729301200,10.00530126953125,1.7932616472244263,1.652674674987793,3.2066922187805176
1713358346739280400,10.0152802734375,1.887878179550171,1.5068778991699219,2.3919169902801514
1713358346749259800,10.025259765625,0.4751925468444824,0.7619638442993164,0.8349043130874634
1713358346759208400,10.03520849609375,-0.5805872678756714,0.2719612121582031,0.06526702642440796
1713358346769187600,10.0451875,-0.6920965909957886,0.0014591217041015625,-0.14589142799377441
1713358346779167000,10.0551669921875,0.17546892166137695,0.29717063903808594,0.08441126346588135
1713358346789115600,10.06511572265625,2.6347312927246094,0.6517229080200195,0.6767956018447876
1713358346799094800,10.0750947265625,5.507343292236328,0.8389348983764648,1.008370041847229
1713358346809074200,10.08507421875,7.5534162521362305,1.1998462677001953,0.924299955368042
1713358346819022800,10.09502294921875,8.533002853393555,1.776413917541504,0.629044234752655
1713358346829002200,10.105002197265625,8.701577186584473,2.346930503845215,1.070554256439209
1713358346838981400,10.1149814453125,6.5578718185424805,2.7446346282958984,2.006596326828003
1713358346848930000,10.124929931640626,3.7920703887939453,2.561359405517578,3.424628973007202
1713358346858909400,10.134909423828125,3.0605804920196533,1.0712461471557617,4.838001251220703
1713358346868888600,10.144888671875,2.979403495788574,-1.7754335403442383,4.746148586273193
1713358346878868000,10.154867919921875,2.8158795833587646,-4.395363807678223,2.840583562850952
1713358346888816600,10.164816650390625,3.1764140129089355,-6.200653076171875,1.6494636535644531
1713358346898795800,10.174795654296876,3.7397818565368652,-6.7637739181518555,1.3604694604873657
1713358346908775200,10.184775146484375,4.0476274490356445,-5.82308292388916,2.270704507827759
1713358346918723800,10.194723876953125,2.4736406803131104,-3.929403305053711,3.7275683879852295
1713358346928703000,10.204702880859376,0.34427428245544434,-1.6282825469970703,3.591203212738037
1713358346938682400,10.214682373046875,-0.5547933578491211,0.30941104888916016,3.176506280899048
1713358346948631000,10.224631103515625,-1.4727753400802612,1.5733022689819336,2.746333599090576
1713358346958610200,10.234610107421876,-2.0524544715881348,2.2620763778686523,1.747323751449585
1713358346968589600,10.244589599609375,-1.5719854831695557,2.777986526489258,-0.08057749271392822
1713358346978538200,10.254538330078125,-1.1917448043823242,2.8866024017333984,-2.425886869430542
1713358346988517600,10.264517578125,-1.2779182195663452,2.228870391845703,-5.08659029006958
1713358346998496800,10.274496826171875,-1.9070414304733276,0.6962051391601562,-7.987932205200195
1713358347008445400,10.284445556640625,-2.3153913021087646,-2.4314136505126953,-10.646533012390137
1713358347018424800,10.2944248046875,-1.5936717987060547,-6.540371894836426,-13.764049530029297
1713358347028404000,10.304404052734375,-0.9938497543334961,-10.384161949157715,-15.54940128326416
1713358347038352600,10.3143525390625,-1.6532461643218994,-12.472159385681152,-13.303558349609375
1713358347048332000,10.32433203125,-3.4707717895507812,-10.550182342529297,-6.741448879241943
1713358347058311200,10.334311279296875,-6.397428512573242,-7.567962646484375,-1.638401746749878
1713358347068259800,10.344259765625,-10.820406913757324,-6.2680206298828125,0.07524287700653076
1713358347078239200,10.3542392578125,-12.33305549621582,-5.437844276428223,1.6341310739517212
1713358347088218400,10.36421826171875,-10.682653427124023,-3.8124589920043945,3.4750912189483643
1713358347098167300,10.374167236328125,-9.440630912780762,-2.1053590774536133,5.4978485107421875
1713358347108146400,10.384146484375,-7.632397174835205,-0.20283031463623047,6.96502161026001
1713358347118125600,10.39412548828125,-5.5655999183654785,1.2251052856445312,6.994219779968262
1713358347128074500,10.404074462890625,-3.2321784496307373,2.1780996322631836,5.89005184173584
1713358347138053600,10.4140537109375,0.616980791091919,3.010805130004883,5.0010528564453125
1713358347148033000,10.424032958984375,4.587294578552246,3.593411445617676,4.4572296142578125
1713358347157981700,10.433981689453125,5.9994797706604,3.758267402648926,3.2083654403686523
1713358347167960800,10.4439609375,5.733236789703369,4.121316909790039,1.707475185394287
1713358347177940200,10.453940185546875,3.985217332839966,4.199867248535156,0.5912282466888428
1713358347187919400,10.46391943359375,2.345268487930298,4.209519386291504,-0.3751189708709717
1713358347197868000,10.473867919921876,1.0700688362121582,4.444522857666016,-1.6778899431228638
1713358347207847400,10.483847412109375,0.24461108446121216,5.272677421569824,-2.8645637035369873
1713358347217826600,10.49382666015625,0.0663197934627533,6.158047676086426,-3.3759968280792236
1713358347227775200,10.503775146484376,0.2090517282485962,6.618289947509766,-3.305917263031006
1713358347237754600,10.513754638671875,0.5316084623336792,6.556525230407715,-2.658104658126831
1713358347247733800,10.523733642578126,0.5723915696144104,5.897724151611328,-2.1006782054901123
1713358347257682400,10.533682373046876,0.551497220993042,5.159505844116211,-1.983001470565796
1713358347267661800,10.543661865234375,0.5019429326057434,4.492978096008301,-2.1021056175231934
1713358347277641000,10.553640869140626,0.47978857159614563,3.9557266235351562,-2.009212017059326
1713358347287590000,10.56358984375,0.7013182640075684,3.413766860961914,-1.811107873916626
1713358347297569000,10.573569091796875,0.953141450881958,2.8549137115478516,-1.351686954498291
1713358347307548200,10.583548095703126,1.1007730960845947,2.1665573120117188,-0.30425888299942017
1713358347317497000,10.5934970703125,1.2115423679351807,1.3246116638183594,1.4654673337936401
1713358347327476200,10.603476318359375,1.4954776763916016,0.4555788040161133,3.714973211288452
1713358347337455600,10.61345556640625,2.0591626167297363,-0.4502105712890625,6.459549903869629
1713358347347404300,10.623404296875,2.115361452102661,-2.003885269165039,8.272896766662598
1713358347357383400,10.633383544921875,1.3831400871276855,-4.211123466491699,8.727232933044434
1713358347367362800,10.64336279296875,-0.24823489785194397,-6.409394264221191,7.322835445404053
1713358347377311500,10.6533115234375,-5.89668083190918,-8.114885330200195,2.859354019165039
1713358347387290600,10.66329052734375,-6.260729789733887,-8.192980766296387,-1.3472176790237427
1713358347397270000,10.67327001953125,-1.524332880973816,-7.133675575256348,-4.852994918823242
1713358347407218700,10.68321875,3.729966878890991,-5.174490928649902,-7.403306007385254
1713358347417197800,10.69319775390625,6.469101905822754,-3.0666122436523438,-8.042312622070312
1713358347427177200,10.70317724609375,5.722318172454834,-1.2518291473388672,-5.138284206390381
1713358347437156400,10.71315625,4.9982008934021,-1.4785594940185547,-0.3136860132217407
1713358347447105300,10.723105224609375,5.309901714324951,-3.437345504760742,3.468987464904785
1713358347457084400,10.73308447265625,4.196197032928467,-6.3344011306762695,3.694497585296631
1713358347467063600,10.7430634765625,-1.928288459777832,-10.533049583435059,-0.17707136273384094
1713358347477043000,10.75304296875,-8.802733421325684,-13.45674991607666,-4.23542594909668
1713358347486991600,10.76299169921875,-12.653714179992676,-9.352059364318848,-5.818261623382568
1713358347496971000,10.772970947265625,-12.24095630645752,-3.2224321365356445,-4.206923007965088
1713358347506950100,10.7829501953125,-7.569202423095703,-0.7759828567504883,-0.8047527074813843
1713358347516898800,10.79289892578125,-2.7056097984313965,0.9224100112915039,1.885512351989746
1713358347526878200,10.802878173828125,1.127312183380127,3.1598262786865234,2.952906608581543
1713358347536857300,10.812857421875,2.6711788177490234,4.837322235107422,3.0642266273498535
1713358347546806000,10.822805908203126,2.8681869506835938,6.099590301513672,1.6494832038879395
1713358347556785400,10.832785400390625,1.3948559761047363,7.069640159606934,-0.7049695253372192
1713358347566764500,10.8427646484375,0.3520156145095825,7.170104026794434,-1.6151313781738281
1713358347576713200,10.852713134765626,0.24210810661315918,5.455112457275391,-1.6163411140441895
1713358347586692600,10.862692626953125,1.741142988204956,2.357067108154297,-3.4620561599731445
1713358347596671700,10.872671630859376,0.14075970649719238,-0.3501272201538086,-6.060632228851318
1713358347606620400,10.882620361328126,-1.8291453123092651,-2.165557861328125,-8.152560234069824
1713358347616599800,10.892599853515625,-1.6593666076660156,-3.0068359375,-8.816195487976074
1713358347626579000,10.902578857421876,-0.30467140674591064,-2.206423759460449,-8.160152435302734
1713358347636527900,10.91252783203125,1.7594678401947021,0.24193572998046875,-7.881770610809326
1713358347646507000,10.922507080078125,3.0481276512145996,3.2310791015625,-6.275540828704834
1713358347656455700,10.93245556640625,3.4282193183898926,5.730764389038086,-4.307062149047852
1713358347666435000,10.94243505859375,3.234353542327881,7.305665016174316,-2.812476634979248
1713358347676414200,10.952414306640625,2.7943835258483887,7.413243293762207,-2.143587112426758
1713358347686363000,10.96236279296875,2.3859176635742188,6.1497697830200195,-1.9769002199172974
1713358347696342300,10.97234228515625,1.7154455184936523,3.9292373657226562,-1.0873970985412598
1713358347706321400,10.9823212890625,1.549985408782959,1.1028680801391602,0.3095766007900238
1713358347716300800,10.99230078125,1.4560673236846924,-1.294097900390625,1.9181232452392578
1713358347726250200,11.002250244140624,1.0332496166229248,-2.9554834365844727,3.190148115158081
1713358347736229600,11.012229736328125,0.18870067596435547,-3.093526840209961,4.3592848777771
1713358347746208800,11.022208740234374,-1.3243522644042969,-2.1525535583496094,4.401828289031982
1713358347756188200,11.032188232421875,-1.973415493965149,-0.7489767074584961,3.8717923164367676
1713358347766136800,11.04213671875,-1.575488567352295,0.2787332534790039,3.0404915809631348
1713358347776116000,11.052115966796874,-0.7230725288391113,0.4660224914550781,2.1841156482696533
1713358347786095400,11.062095458984375,0.11416518688201904,0.22531890869140625,1.2503637075424194
1713358347796044000,11.0720439453125,0.45813024044036865,-0.07773685455322266,0.6475815773010254
1713358347806023400,11.0820234375,0.3768376111984253,-0.2216472625732422,1.0115314722061157
1713358347816002600,11.09200244140625,-0.27245640754699707,-0.49150657653808594,2.1242642402648926
1713358347825946400,11.1019462890625,-0.8200745582580566,-0.5530290603637695,3.078050136566162
1713358347835925800,11.11192578125,-0.28537213802337646,-0.3928871154785156,2.8503246307373047
1713358347845905000,11.12190478515625,1.99134361743927,-0.068511962890625,1.8106638193130493
1713358347855853600,11.131853515625,4.898367404937744,0.4306058883666992,1.0599534511566162
1713358347865833000,11.1418330078125,7.721172332763672,0.7875890731811523,0.8150789737701416
1713358347875812000,11.15181201171875,9.078996658325195,1.1610040664672852,1.2976820468902588
1713358347885760800,11.1617607421875,8.419309616088867,1.7637348175048828,2.477677345275879
1713358347895740200,11.171740234375,6.030450820922852,2.417085647583008,4.295378684997559
1713358347905719300,11.18171923828125,3.875558376312256,2.5489606857299805,5.474111557006836
1713358347915668000,11.19166796875,2.620581865310669,1.068802833557129,5.561707973480225
1713358347925647400,11.2016474609375,2.6601946353912354,-1.6888656616210938,4.436782360076904
1713358347935626500,11.21162646484375,3.0324249267578125,-4.319405555725098,2.5039687156677246
1713358347945575200,11.2215751953125,3.7125985622406006,-5.754264831542969,1.3280525207519531
1713358347955554600,11.231554443359375,4.4745683670043945,-5.364626884460449,1.351630449295044
1713358347965503200,11.241503173828125,3.98931884765625,-3.9310379028320312,2.456052303314209
1713358347975482600,11.251482666015624,2.32487154006958,-2.4381885528564453,2.9686121940612793
1713358347985461800,11.261461669921875,1.2360609769821167,-0.6782426834106445,2.587902307510376
1713358347995410400,11.271410400390625,0.4411383867263794,1.1658620834350586,1.7024611234664917
1713358348005389800,11.281389892578124,-1.3384630680084229,2.5904150009155273,1.1024556159973145
1713358348015369000,11.291368896484375,-3.285615921020508,2.905280113220215,0.6828475594520569
1713358348025348400,11.301348388671874,-3.730391502380371,2.741140365600586,-0.791351318359375
1713358348035327500,11.311327392578125,-3.4232490062713623,2.3771209716796875,-2.840179443359375
1713358348045276200,11.321276123046875,-3.7038519382476807,1.1339073181152344,-5.164721965789795
1713358348055255600,11.331255615234374,-4.285787582397461,-1.6246013641357422,-8.124616622924805
1713358348065234700,11.341234619140625,-3.3743233680725098,-5.289440155029297,-11.211705207824707
1713358348075183400,11.351183349609375,-1.4657282829284668,-9.359078407287598,-14.067893981933594
1713358348085162800,11.361162841796874,-0.6285228729248047,-12.386584281921387,-13.963943481445312
1713358348095142000,11.371141845703125,-1.698425054550171,-11.717766761779785,-8.730725288391113
1713358348105090600,11.381090576171875,-4.954959869384766,-8.679871559143066,-2.28830623626709
1713358348115070000,11.391070068359374,-8.834577560424805,-7.001837730407715,0.6434040069580078
1713358348125049000,11.401049072265625,-10.701793670654297,-6.367569923400879,2.0102572441101074
1713358348134998000,11.410998046875,-10.806290626525879,-5.151833534240723,3.7688348293304443
1713358348144977200,11.42097705078125,-10.054183959960938,-3.066512107849121,5.3645339012146
1713358348154956300,11.430956298828125,-9.235225677490234,-0.7368497848510742,7.477536678314209
1713358348164905200,11.4409052734375,-7.568950653076172,1.2054872512817383,8.441889762878418
1713358348174884400,11.45088427734375,-5.4849677085876465,2.450596809387207,6.345091342926025
1713358348184863700,11.46086376953125,-1.1899833679199219,3.7737045288085938,5.120616436004639
1713358348194812400,11.4708125,4.088145732879639,4.450794219970703,5.5646281242370605
1713358348204791600,11.48079150390625,5.947368144989014,4.18585205078125,3.4634909629821777
1713358348214771000,11.49077099609375,4.496774673461914,3.845489501953125,0.9854936599731445
1713358348224719600,11.5007197265625,2.7740638256073,4.303110122680664,-0.1685616672039032
1713358348234698800,11.51069873046875,1.9432775974273682,4.566239356994629,-1.0788698196411133
1713358348244678100,11.52067822265625,1.643162488937378,4.671451568603516,-2.18648099899292
1713358348254626800,11.530626708984375,1.1365442276000977,5.116484642028809,-3.0566821098327637
1713358348264606000,11.54060595703125,0.46841204166412354,5.645665168762207,-3.871671199798584
1713358348274555000,11.550554931640624,-0.2136954665184021,5.7914533615112305,-3.7967309951782227
1713358348284534000,11.560533935546875,-0.14285069704055786,5.655300140380859,-2.6643922328948975
1713358348294513400,11.570513427734374,-0.26057398319244385,5.197183609008789,-1.373521327972412
1713358348304492500,11.580492431640625,-0.4481945037841797,4.523106575012207,-0.9741413593292236
1713358348314471700,11.5904716796875,-0.8511406779289246,3.82753849029541,-1.1959909200668335
1713358348324420600,11.600420654296874,-1.2613029479980469,3.3545637130737305,-1.283949613571167
1713358348334399700,11.610399658203125,-1.1616030931472778,2.898318290710449,-1.058283805847168
1713358348344379000,11.62037890625,-0.469909131526947,2.386782646179199,-0.4150536060333252
1713358348354327800,11.630327880859374,0.18958383798599243,1.771956443786621,0.5997118949890137
1713358348364307000,11.640306884765625,0.9259585738182068,1.0751237869262695,2.069542169570923
1713358348374286300,11.650286376953124,1.8135417699813843,0.4774007797241211,4.438689231872559
1713358348384235000,11.660235107421874,2.574732542037964,-0.46602344512939453,6.395072937011719
1713358348394214100,11.670214111328125,2.8251419067382812,-1.9359445571899414,7.427136421203613
1713358348404193500,11.680193603515624,2.375521659851074,-3.7547550201416016,6.146984100341797
1713358348414142200,11.69014208984375,-0.30199897289276123,-5.546657562255859,3.0783088207244873
1713358348424121300,11.700121337890625,-4.580251693725586,-7.26661491394043,0.03774860501289368
1713358348434100700,11.710100830078124,-3.5342960357666016,-8.866180419921875,-2.0395667552948
1713358348444049400,11.72004931640625,-0.29037755727767944,-8.904109954833984,-5.482112884521484
1713358348454028500,11.730028564453125,3.4146499633789062,-6.366865158081055,-7.901345252990723
1713358348464008000,11.740008056640624,4.317323207855225,-2.60623836517334,-7.403115749359131
1713358348473956600,11.74995654296875,4.298573970794678,-0.03500080108642578,-4.6181182861328125
1713358348483936000,11.75993603515625,4.475675106048584,0.1629314422607422,0.4618757665157318
1713358348493915100,11.7699150390625,4.508405685424805,-1.4470624923706055,4.175327777862549
1713358348503863800,11.77986376953125,3.941494941711426,-4.404660224914551,4.046931266784668
1713358348513843200,11.78984326171875,-0.11448831856250763,-7.714841842651367,0.9331690073013306
1713358348523822300,11.799822265625,-6.29800271987915,-10.910470962524414,-2.0095019340515137
1713358348533771000,11.80977099609375,-11.318413734436035,-9.174423217773438,-3.0856680870056152
1713358348543750400,11.81975048828125,-13.905984878540039,-4.249458312988281,-2.1385321617126465
1713358348553729500,11.8297294921875,-10.422842979431152,-1.797551155090332,0.09022730588912964
1713358348563678200,11.83967822265625,-3.4838156700134277,0.7353239059448242,1.511286973953247
1713358348573657600,11.84965771484375,1.519981861114502,2.634672164916992,2.0597167015075684
1713358348583636700,11.85963671875,3.30334210395813,3.7471141815185547,2.315707206726074
1713358348593616100,11.8696162109375,2.5138471126556396,4.448725700378418,1.90962815284729
1713358348603564800,11.879564697265625,1.2411175966262817,5.484875679016113,0.40597301721572876
1713358348613544000,11.8895439453125,1.0769965648651123,6.134614944458008,-0.802493155002594
1713358348623523300,11.8995234375,1.8546876907348633,4.76280403137207,-1.9754869937896729
1713358348633472000,11.909471923828125,1.4066836833953857,2.985614776611328,-4.009306907653809
1713358348643451400,11.919451416015624,0.09119415283203125,0.9673843383789062,-6.759273529052734
1713358348653430500,11.929430419921875,-1.1243407726287842,-0.833745002746582,-9.620704650878906
1713358348663379200,11.939379150390625,-0.6038824319839478,-2.1970529556274414,-10.86833381652832
1713358348673358600,11.949358642578124,0.7021932601928711,-2.2862462997436523,-8.507229804992676
1713358348683337700,11.959337646484375,1.6014546155929565,-0.050490379333496094,-6.0602498054504395
1713358348693286400,11.969286376953125,2.3456332683563232,2.3939952850341797,-4.702147960662842
1713358348703265800,11.979265869140624,3.0390872955322266,4.26214599609375,-3.010326623916626
1713358348713245000,11.989244873046875,3.3954663276672363,5.415165901184082,-2.538403272628784
1713358348723193600,11.999193603515625,3.269547939300537,5.758964538574219,-2.300185203552246
1713358348733173000,12.009173095703124,2.2685370445251465,5.225788116455078,-1.349073886871338
1713358348743152000,12.019152099609375,1.18418288230896,3.863027572631836,-0.05962282419204712
1713358348753101000,12.02910107421875,0.18995821475982666,2.072793960571289,0.9380469918251038
1713358348763080200,12.039080078125,-0.190474271774292,0.08695602416992188,1.9927279949188232
1713358348773059300,12.049059326171875,0.11042618751525879,-1.6711750030517578,2.6406521797180176
1713358348783008300,12.05900830078125,0.4431089162826538,-2.6549205780029297,3.1143016815185547
1713358348792987400,12.0689873046875,0.4433327913284302,-2.846920967102051,3.0886504650115967
1713358348802966500,12.078966552734375,-0.16748273372650146,-2.301912307739258,2.8676064014434814
1713358348812915500,12.08891552734375,-0.8356667757034302,-0.8982362747192383,2.66638445854187
1713358348822894600,12.09889453125,-1.1754579544067383,0.6662387847900391,2.6674609184265137
1713358348832874000,12.1088740234375,-1.1310635805130005,1.7150144577026367,2.876157522201538
1713358348842822700,12.11882275390625,0.2710394859313965,2.2978553771972656,3.3804445266723633
1713358348852801800,12.1288017578125,0.29514622688293457,2.1999387741088867,2.5857186317443848
1713358348862781200,12.13878125,0.42012453079223633,1.9070138931274414,2.1227798461914062
1713358348872760300,12.14876025390625,0.4963794946670532,1.3812332153320312,2.0346498489379883
1713358348882709000,12.158708984375,0.7223708629608154,0.7116842269897461,1.8649531602859497
1713358348892688400,12.1686884765625,2.0386502742767334,0.36722850799560547,1.8231865167617798
1713358348902667500,12.17866748046875,4.30104923248291,0.33928585052490234,1.6606159210205078
1713358348912647000,12.18864697265625,6.15013313293457,0.13395118713378906,1.3223581314086914
1713358348922595600,12.198595703125,7.34872579574585,0.21678543090820312,0.8903731107711792
1713358348932574700,12.20857470703125,7.663290977478027,0.28771305084228516,0.5970444679260254
1713358348942554000,12.21855419921875,6.162105560302734,0.22678184509277344,1.8675307035446167
1713358348952502800,12.228502685546875,4.277121543884277,0.2346782684326172,3.6583969593048096
1713358348962482000,12.23848193359375,3.0233283042907715,-0.023284912109375,5.032949447631836
1713358348972461300,12.24846142578125,2.212961435317993,-1.3275375366210938,5.559444904327393
1713358348982410000,12.258409912109375,1.334449291229248,-2.780148506164551,4.9001617431640625
1713358348992389400,12.268389404296874,1.709770679473877,-4.091976165771484,3.7969160079956055
1713358349002368500,12.278368408203125,3.493744134902954,-4.812443733215332,3.5148813724517822
1713358349012317200,12.288317138671875,4.164334297180176,-4.334752082824707,4.152974605560303
1713358349022296600,12.298296630859374,3.0189366340637207,-3.079268455505371,4.171292304992676
1713358349032275700,12.308275634765625,1.978071928024292,-1.7123565673828125,3.1040842533111572
1713358349042224400,12.318224365234375,1.5161337852478027,-0.2440195083618164,2.0624947547912598
1713358349052203800,12.328203857421874,0.02306532859802246,0.9907627105712891,1.286595344543457
1713358349062183000,12.338182861328125,-1.6049833297729492,1.7093687057495117,0.45290184020996094
1713358349072131600,12.348131591796875,-2.3834762573242188,2.2031116485595703,-0.7331670522689819
1713358349082111000,12.358111083984374,-2.0632548332214355,2.5909061431884766,-2.6158483028411865
1713358349092059600,12.3680595703125,-2.7372961044311523,2.0604124069213867,-4.698227405548096
1713358349102039000,12.3780390625,-4.244520664215088,0.2436237335205078,-6.997753143310547
1713358349112018200,12.38801806640625,-3.8713059425354004,-2.8693923950195312,-10.379554748535156
1713358349121966800,12.397966796875,-2.36751651763916,-7.058192253112793,-13.856059074401855
1713358349131946200,12.4079462890625,-1.136035680770874,-11.1091890335083,-15.16344928741455
1713358349141925400,12.41792529296875,-1.4058588743209839,-13.228118896484375,-12.526886940002441
1713358349151904800,12.42790478515625,-3.5212512016296387,-10.772109985351562,-5.940762519836426
1713358349161853400,12.437853515625,-7.002562046051025,-7.715946197509766,-0.9934680461883545
1713358349171832600,12.44783251953125,-10.350275993347168,-6.10001277923584,1.1179473400115967
1713358349181812000,12.45781201171875,-11.542516708374023,-4.525078773498535,2.931549072265625
1713358349191791000,12.467791015625,-10.281137466430664,-2.9980592727661133,4.437723636627197
1713358349201739800,12.47773974609375,-9.18541145324707,-1.0264549255371094,6.406426906585693
1713358349211719200,12.48771923828125,-7.840723514556885,0.9898481369018555,7.688779354095459
1713358349221698300,12.4976982421875,-6.033186435699463,2.2867021560668945,6.407166004180908
1713358349231647000,12.50764697265625,-3.963771343231201,3.3619890213012695,4.605524063110352
1713358349241626400,12.51762646484375,1.3884782791137695,4.513055801391602,3.9793601036071777
1713358349251605500,12.52760546875,6.4816389083862305,4.761507034301758,3.221658945083618
1713358349261554200,12.53755419921875,6.52541446685791,4.185669898986816,1.0078685283660889
1713358349271533600,12.547533447265625,4.55034875869751,4.145756721496582,-0.6417638063430786
1713358349281512700,12.5575126953125,2.3670432567596436,4.605353355407715,-0.9534463882446289
1713358349291461600,12.567461669921874,1.1066511869430542,4.69169807434082,-1.8166134357452393
1713358349301440800,12.577440673828125,0.7842507362365723,4.921907424926758,-2.707761287689209
1713358349311420000,12.587419921875,0.33583223819732666,5.334392547607422,-3.399392604827881
1713358349321368800,12.597368896484374,-0.014275193214416504,5.621212959289551,-3.5060882568359375
1713358349331348000,12.607347900390625,-0.3454574942588806,5.522656440734863,-2.8514516353607178
1713358349341327400,12.617327392578124,-0.43845051527023315,5.130619049072266,-1.9026328325271606
1713358349351276000,12.627276123046874,-0.2753203511238098,4.395867347717285,-1.3905513286590576
1713358349361255200,12.637255126953125,-0.35906660556793213,3.553802490234375,-1.3443071842193604
1713358349371234600,12.647234619140624,-0.3468376398086548,2.846564292907715,-1.3843951225280762
1713358349381183200,12.657183349609374,-0.19529575109481812,2.446160316467285,-1.2704581022262573
1713358349391162400,12.667162353515625,-0.01389402151107788,2.1845741271972656,-0.9308977723121643
1713358349401111300,12.677111328125,0.2579572796821594,1.7791023254394531,0.05871841311454773
1713358349411090400,12.68709033203125,0.6863378286361694,1.1720876693725586,1.6296600103378296
1713358349421069600,12.697069580078125,1.5914663076400757,0.8120517730712891,3.6234257221221924
1713358349431049000,12.707049072265624,2.4452757835388184,0.6259346008300781,5.426457405090332
1713358349440997600,12.71699755859375,3.0912694931030273,0.3477602005004883,6.5735063552856445
1713358349450977000,12.72697705078125,2.4608123302459717,-0.36382389068603516,5.8699212074279785
1713358349460956200,12.7369560546875,0.4198489189147949,-2.328890800476074,2.9214487075805664
1713358349470935300,12.746935302734375,0.14957696199417114,-4.414236068725586,1.352112889289856
1713358349480884200,12.75688427734375,1.1848454475402832,-6.801054000854492,0.2473241537809372
1713358349490863400,12.76686328125,0.9187819361686707,-8.588120460510254,-3.246748685836792
1713358349500842800,12.7768427734375,0.011598169803619385,-8.567401885986328,-6.323448657989502
1713358349510791400,12.78679150390625,-0.1077454686164856,-5.736453056335449,-5.29754638671875
1713358349520770600,12.7967705078125,1.5839097499847412,-2.6904640197753906,-1.8124240636825562
1713358349530750000,12.80675,1.78175687789917,-1.2636098861694336,2.3194544315338135
1713358349540698600,12.81669873046875,1.3226103782653809,-2.8423643112182617,5.064465522766113
