time,seconds_elapsed,z,y,x
1713358336779515400,0.055515380859375,10.363525390625,4.6353912353515625,1.0742340087890625
1713358336789525000,0.06552490234375,10.933349609375,4.1972503662109375,0.609771728515625
1713358336799534800,0.075534912109375,11.711471557617188,3.8429107666015625,0.612152099609375
1713358336809544700,0.085544677734375,11.625274658203125,3.792633056640625,0.9688873291015625
1713358336819554300,0.09555419921875,10.930953979492188,3.742340087890625,1.25140380859375
1713358336829564200,0.105564208984375,10.432968139648438,3.92669677734375,1.6273040771484375
1713358336839548000,0.1155478515625,9.274169921875,4.5300445556640625,0.928192138671875
1713358336849527000,0.125527099609375,8.74505615234375,6.172454833984375,0.241058349609375
1713358336859539000,0.1355390625,9.0203857421875,5.9138946533203125,-0.307220458984375
1713358336869518300,0.145518310546875,9.389083862304688,5.1932373046875,0.863555908203125
1713358336879507500,0.155507568359375,9.700332641601562,4.4366607666015625,1.138885498046875
1713358336889513000,0.165512939453125,9.946945190429688,3.66094970703125,1.2322540283203125
1713358336899481900,0.17548193359375,9.628509521484375,3.3975830078125,1.160430908203125
1713358336909461000,0.1854609375,8.821670532226562,2.7080535888671875,0.705535888671875
1713358336919440400,0.1954404296875,9.142486572265625,3.055206298828125,1.6177215576171875
1713358336929389000,0.20538916015625,8.369155883789062,3.84051513671875,-0.4580535888671875
1713358336939368200,0.2153681640625,8.156082153320312,4.19964599609375,1.07183837890625
1713358336949347600,0.22534765625,7.9549713134765625,3.6058807373046875,0.801300048828125
1713358336959326700,0.23532666015625,8.060302734375,3.603485107421875,0.9784698486328125
1713358336969306000,0.24530615234375,7.904693603515625,3.7016448974609375,1.1843719482421875
1713358336979254800,0.2552548828125,7.6820220947265625,3.6968536376953125,1.27056884765625
1713358336989234000,0.26523388671875,7.6820220947265625,3.739959716796875,1.1724090576171875
1713358336999213300,0.27521337890625,7.8280792236328125,3.6633453369140625,1.12451171875
1713358337009192400,0.2851923828125,7.758636474609375,3.64178466796875,0.6815948486328125
1713358337019141000,0.29514111328125,7.6078033447265625,3.773468017578125,0.3655548095703125
1713358337029120500,0.30512060546875,7.4234466552734375,3.7974090576171875,0.358367919921875
1713358337039099600,0.315099609375,7.1169891357421875,3.73516845703125,0.3631591796875
1713358337049048300,0.32504833984375,6.8943328857421875,3.6178436279296875,0.272186279296875
1713358337059027700,0.33502783203125,6.5352020263671875,3.7902374267578125,0.1764068603515625
1713358337069006800,0.3450068359375,6.2071990966796875,4.0081024169921875,-0.0582122802734375
1713358337078955800,0.354955810546875,6.23114013671875,4.206817626953125,-0.3910064697265625
1713358337088935000,0.364934814453125,6.310150146484375,4.1349945068359375,-0.572967529296875
1713358337098914000,0.3749140625,6.647735595703125,4.44384765625,-0.467620849609375
1713358337108863000,0.384863037109375,6.7578582763671875,4.312164306640625,-0.434112548828125
1713358337118842000,0.394842041015625,7.3372650146484375,4.2307586669921875,-0.45086669921875
1713358337128821500,0.404821533203125,7.9813079833984375,4.300201416015625,-0.2736968994140625
1713358337138770200,0.414770263671875,8.57745361328125,4.3624420166015625,-0.362274169921875
1713358337148749300,0.424749267578125,8.929397583007812,4.7838287353515625,-0.402984619140625
1713358337158728700,0.434728759765625,9.20953369140625,5.030426025390625,-0.5490264892578125
1713358337168707800,0.444707763671875,9.003631591796875,5.1309814453125,-0.97998046875
1713358337178656500,0.454656494140625,9.314865112304688,5.4039306640625,-0.6807098388671875
1713358337188636000,0.464635986328125,9.51837158203125,5.3536529541015625,-0.83154296875
1713358337198615000,0.474614990234375,9.870330810546875,5.4709625244140625,-0.900970458984375
1713358337208563700,0.484563720703125,10.124114990234375,5.2554779052734375,-1.1882781982421875
1713358337218543000,0.494543212890625,10.562255859375,5.61700439453125,-1.006317138671875
1713358337228522200,0.504522216796875,10.818435668945312,5.411102294921875,-1.090118408203125
1713358337238471200,0.51447119140625,11.476837158203125,5.684051513671875,-0.40777587890625
1713358337248450300,0.5244501953125,11.405014038085938,5.5403900146484375,-0.0318756103515625
1713358337258429400,0.534429443359375,11.357131958007812,5.537994384765625,0.315277099609375
1713358337268378400,0.54437841796875,11.833572387695312,6.0742950439453125,0.612152099609375
1713358337278357500,0.554357421875,11.812026977539062,5.727142333984375,-0.546630859375
1713358337288336600,0.564336669921875,12.149612426757812,7.228302001953125,-0.0941314697265625
1713358337298285600,0.57428564453125,12.207061767578125,6.6728515625,-1.5569915771484375
1713358337308264700,0.5842646484375,12.573379516601562,6.36639404296875,-1.9640045166015625
1713358337318244000,0.594244140625,13.0450439453125,6.02880859375,-1.908935546875
1713358337328192800,0.60419287109375,12.817581176757812,4.2762603759765625,-1.46600341796875
1713358337338172000,0.614171875,12.630844116210938,3.5220794677734375,-1.24334716796875
1713358337348151300,0.6241513671875,12.278900146484375,2.9259185791015625,-1.217010498046875
1713358337358100000,0.634099853515625,11.606124877929688,2.526092529296875,-0.8746337890625
1713358337368079000,0.6440791015625,10.483245849609375,2.832550048828125,-0.59930419921875
1713358337378028000,0.654028076171875,9.11614990234375,2.494964599609375,-0.3167877197265625
1713358337388007200,0.664007080078125,8.089035034179688,2.4806060791015625,0.1548614501953125
1713358337397986300,0.673986328125,6.8991241455078125,2.9761962890625,0.097412109375
1713358337407935200,0.683935302734375,5.000518798828125,3.1988677978515625,-0.5777587890625
1713358337417914400,0.693914306640625,3.86566162109375,3.455047607421875,-0.26171875
1713358337427893800,0.703893798828125,4.229583740234375,4.005706787109375,0.3272552490234375
1713358337437873000,0.713872802734375,4.0883331298828125,4.6258087158203125,-0.4269256591796875
1713358337447821600,0.723821533203125,4.619842529296875,4.6784820556640625,0.1213531494140625
1713358337457801000,0.733801025390625,2.77630615234375,-0.706085205078125,4.5123138427734375
1713358337467780000,0.743780029296875,3.595123291015625,1.19970703125,2.6304779052734375
1713358337477759500,0.753759521484375,5.4482421875,3.498138427734375,-0.867462158203125
1713358337487708200,0.763708251953125,8.096221923828125,3.0240936279296875,-0.0414581298828125
1713358337497699300,0.77369921875,5.1082611083984375,2.40399169921875,2.0726165771484375
1713358337507678500,0.783678466796875,3.9207305908203125,2.8301544189453125,2.4006195068359375
1713358337517627100,0.793627197265625,4.6797027587890625,3.6274261474609375,2.2928924560546875
1713358337527606500,0.8036064453125,5.8265228271484375,4.0440216064453125,1.8619384765625
1713358337537585700,0.813585693359375,7.207977294921875,3.5436248779296875,1.826019287109375
1713358337547534600,0.82353466796875,7.1576995849609375,1.6833343505859375,0.8036956787109375
1713358337557513700,0.833513671875,7.27740478515625,-0.993377685546875,-0.486785888671875
1713358337567492900,0.843492919921875,9.5159912109375,-2.85845947265625,-1.7365570068359375
1713358337577441800,0.85344189453125,20.225250244140625,-2.403564453125,-9.7906494140625
1713358337587421000,0.8634208984375,22.952239990234375,-2.4490509033203125,-13.86798095703125
1713358337597400300,0.873400390625,22.739166259765625,-3.909515380859375,-8.916763305664062
1713358337607349000,0.883348876953125,19.468673706054688,-7.259002685546875,-2.2297515869140625
1713358337617328000,0.893328125,14.273269653320312,-10.08416748046875,2.0510711669921875
1713358337627307500,0.9033076171875,9.5279541015625,-8.808059692382812,3.1165008544921875
1713358337637256200,0.913256103515625,1.270355224609375,-5.5639190673828125,5.9967193603515625
1713358337647235300,0.9232353515625,-4.470947265625,-3.411529541015625,8.517807006835938
1713358337657184300,0.933184326171875,-6.7358551025390625,-2.08514404296875,8.005447387695312
1713358337667163400,0.943163330078125,-5.6512908935546875,-0.8784637451171875,3.6815185546875
1713358337677142500,0.953142578125,-1.983367919921875,-0.595947265625,1.287322998046875
1713358337687091500,0.963091552734375,3.7938385009765625,-0.294281005859375,3.4971771240234375
1713358337697070600,0.973070556640625,1.588775634765625,0.148651123046875,6.190643310546875
1713358337707067400,0.9830673828125,1.629486083984375,0.2276611328125,7.955169677734375
1713358337717046500,0.993046630859375,-0.716827392578125,0.6801605224609375,9.669418334960938
1713358337726995200,1.0029951171875,-2.29461669921875,3.3951873779296875,13.615066528320312
1713358337736974600,1.012974609375,-3.261871337890625,7.527587890625,18.326858520507812
1713358337746953700,1.02295361328125,-3.029632568359375,7.3623809814453125,18.250244140625
1713358337756902400,1.03290234375,1.90960693359375,2.01373291015625,11.168197631835938
1713358337766881800,1.0428818359375,5.7953948974609375,-0.0572509765625,10.471481323242188
1713358337776861000,1.05286083984375,8.065093994140625,-1.3453369140625,8.692596435546875
1713358337786809900,1.062809814453125,10.655624389648438,-3.275054931640625,4.5601959228515625
1713358337796789000,1.0727890625,12.520706176757812,-2.8656463623046875,1.095794677734375
1713358337806768000,1.08276806640625,11.58935546875,2.4398956298828125,15.192840576171875
1713358337816693000,1.09269287109375,9.108963012695312,4.7742462158203125,14.687667846679688
1713358337826672000,1.102672119140625,10.983627319335938,3.3473052978515625,14.141799926757812
1713358337836651300,1.1126513671875,10.152847290039062,2.250762939453125,12.039688110351562
1713358337846600200,1.12260009765625,12.927719116210938,-0.686920166015625,6.8586273193359375
1713358337856579300,1.132579345703125,13.46881103515625,1.8245849609375,12.762725830078125
1713358337866558700,1.142558837890625,12.039474487304688,1.9538726806640625,13.763504028320312
1713358337876507400,1.15250732421875,14.802383422851562,2.2435760498046875,15.559158325195312
1713358337886486500,1.162486572265625,14.373825073242188,-0.1506195068359375,15.178482055664062
1713358337896466000,1.1724658203125,11.275726318359375,-4.7762298583984375,5.95123291015625
1713358337906414600,1.18241455078125,11.603729248046875,-7.158447265625,-2.5841064453125
1713358337916393700,1.192393798828125,8.297332763671875,-8.008392333984375,-6.838592529296875
1713358337926373000,1.202373046875,6.235931396484375,-3.84967041015625,-2.8402862548828125
1713358337936321800,1.21232177734375,5.09149169921875,-2.24554443359375,1.1891632080078125
1713358337946301000,1.222301025390625,7.0308074951171875,-2.3173828125,2.7477874755859375
1713358337956280300,1.2322802734375,9.089813232421875,-4.3907623291015625,-1.650360107421875
1713358337966229000,1.24222900390625,12.09454345703125,-5.420257568359375,5.1180419921875
1713358337976208400,1.25220849609375,8.199172973632812,-6.365966796875,8.493865966796875
1713358337986187500,1.2621875,14.244537353515625,-8.01318359375,-2.6128387451171875
1713358337996136200,1.27213623046875,13.880615234375,-4.0747222900390625,3.7246246337890625
1713358338006115600,1.282115478515625,8.709136962890625,-4.646942138671875,6.63836669921875
1713358338016094700,1.2920947265625,8.541549682617188,-3.516876220703125,1.8930511474609375
1713358338026074000,1.30207421875,5.5727386474609375,-3.761077880859375,7.342254638671875
1713358338036022800,1.312022705078125,9.240646362304688,0.538909912109375,10.502609252929688
1713358338046002000,1.322001953125,2.666168212890625,-0.3756866455078125,13.3900146484375
1713358338055981300,1.331981201171875,2.9774169921875,-0.7563629150390625,3.494781494140625
1713358338065930000,1.341929931640625,1.7013092041015625,-1.9079742431640625,10.39007568359375
1713358338075909000,1.3519091796875,2.0819854736328125,-1.0053558349609375,10.177001953125
1713358338085888500,1.361888427734375,-3.6233978271484375,0.5269317626953125,7.6199798583984375
1713358338095837200,1.371837158203125,-2.5627593994140625,2.154998779296875,0.695953369140625
1713358338105823000,1.381822998046875,-3.5300140380859375,1.2547760009765625,3.633636474609375
1713358338115802000,1.391802001953125,-4.8324737548828125,-0.9311370849609375,6.274444580078125
1713358338125751000,1.4017509765625,-3.9298553466796875,-4.2231597900390625,5.8650360107421875
1713358338135730200,1.411730224609375,-1.6385955810546875,-8.824813842773438,4.9073638916015625
1713358338145709300,1.421709228515625,2.73321533203125,-9.569412231445312,8.781173706054688
1713358338155658200,1.431658203125,6.4083099365234375,-8.645248413085938,10.363739013671875
1713358338165637400,1.441637451171875,5.4290771484375,-8.446533203125,10.222488403320312
1713358338175616800,1.45161669921875,4.172119140625,-7.30450439453125,9.705337524414062
1713358338185565400,1.4615654296875,3.3820343017578125,-5.207183837890625,9.011016845703125
1713358338195544600,1.471544677734375,2.7523651123046875,-4.29498291015625,10.059677124023438
1713358338205524000,1.48152392578125,-3.831695556640625,-3.8257293701171875,14.493743896484375
1713358338215472600,1.49147265625,-11.2010498046875,-2.1617584228515625,18.041946411132812
1713358338225451800,1.50145166015625,-9.596923828125,-9.464065551757812,10.730056762695312
1713358338235400700,1.511400634765625,-2.299407958984375,-12.136001586914062,5.4652099609375
1713358338245379800,1.5213798828125,4.2678985595703125,-9.646026611328125,5.75250244140625
1713358338255359000,1.53135888671875,4.7539215087890625,-9.092971801757812,5.884185791015625
1713358338265308000,1.541307861328125,4.6820831298828125,-6.8424224853515625,7.8785552978515625
1713358338275280100,1.551280029296875,8.802505493164062,-6.212738037109375,7.722930908203125
1713358338285259500,1.561259521484375,1.354156494140625,-3.2989959716796875,7.61041259765625
1713358338295238700,1.57123876953125,-8.526718139648438,-5.80572509765625,7.87615966796875
1713358338305187300,1.581187255859375,-14.1602783203125,-7.869537353515625,6.6623077392578125
1713358338315166700,1.591166748046875,-14.22491455078125,-7.745025634765625,6.147552490234375
1713358338325145900,1.601145751953125,-14.758834838867188,-5.324493408203125,6.157135009765625
1713358338335125200,1.611125244140625,-13.058944702148438,-6.0068359375,5.005523681640625
1713358338345074000,1.621073974609375,-10.810791015625,-7.9940338134765625,3.19549560546875
1713358338355053000,1.631052978515625,-7.6552276611328125,-12.121627807617188,1.5602569580078125
1713358338365040000,1.6410400390625,-5.754241943359375,-18.542877197265625,-1.4875640869140625
1713358338374988800,1.65098876953125,-1.93548583984375,-19.577178955078125,-0.8339385986328125
1713358338384968000,1.660968017578125,1.016571044921875,-19.58197021484375,2.364715576171875
1713358338394916900,1.670916748046875,3.3868255615234375,-21.238754272460938,4.90496826171875
1713358338404896000,1.68089599609375,3.394012451171875,-22.991302490234375,6.5737152099609375
1713358338414875400,1.69087548828125,4.7108154296875,-25.237075805664062,5.7908172607421875
1713358338424824000,1.700823974609375,6.6620941162109375,-26.321640014648438,6.126007080078125
1713358338434803200,1.71080322265625,2.1873321533203125,-26.154052734375,6.8945465087890625
1713358338444782600,1.720782470703125,-0.716827392578125,-24.229110717773438,8.390914916992188
1713358338454731300,1.730731201171875,-1.9115447998046875,-22.110244750976562,8.955947875976562
1713358338464710400,1.74071044921875,-2.6250152587890625,-21.308181762695312,8.469924926757812
1713358338474689800,1.750689697265625,-2.8955535888671875,-19.44549560546875,9.209732055664062
1713358338484638500,1.760638427734375,-2.670501708984375,-15.60040283203125,10.837799072265625
1713358338494617600,1.77061767578125,-5.7063446044921875,-11.01312255859375,13.679718017578125
1713358338504597000,1.780596923828125,-6.7765655517578125,-8.120925903320312,15.288619995117188
1713358338514545700,1.790545654296875,-2.6944427490234375,-14.556533813476562,2.6472320556640625
1713358338524525000,1.800525146484375,5.6996307373046875,-13.0960693359375,-3.984710693359375
1713358338534499000,1.8104990234375,8.812088012695312,-13.120010375976562,-2.9097137451171875
1713358338544447700,1.82044775390625,4.9861602783203125,-15.717727661132812,-2.14117431640625
1713358338554427000,1.830427001953125,-0.5923309326171875,-9.674758911132812,0.8300323486328125
1713358338564406300,1.84040625,-2.811767578125,-8.053878784179688,1.773345947265625
1713358338574385400,1.850385498046875,0.51617431640625,-7.172821044921875,2.57061767578125
1713358338584334000,1.860333984375,9.319656372070312,-10.33795166015625,0.030364990234375
1713358338594313500,1.8703134765625,17.254043579101562,-17.137481689453125,-1.7102203369140625
1713358338604292600,1.880292724609375,18.11834716796875,-18.3154296875,-1.2457427978515625
1713358338614241500,1.890241455078125,0.4060516357421875,-9.035507202148438,8.740478515625
1713358338624220700,1.900220703125,-23.39471435546875,-1.1274566650390625,11.611114501953125
1713358338634199800,1.91019970703125,-10.82275390625,-3.270263671875,1.2490234375
1713358338644148700,1.920148681640625,-2.3616485595703125,-7.2518310546875,-4.9064788818359375
1713358338654127900,1.9301279296875,8.555908203125,-8.896636962890625,-0.1683502197265625
1713358338664107000,1.94010693359375,10.8902587890625,-11.920516967773438,-0.613677978515625
1713358338674056000,1.950055908203125,-1.0711822509765625,-7.584625244140625,0.0423431396484375
1713358338684035000,1.96003515625,-1.84210205078125,-7.5415191650390625,-1.73895263671875
1713358338694014500,1.970014404296875,2.2447967529296875,-6.58624267578125,-3.2281341552734375
1713358338703963100,1.979963134765625,2.9534759521484375,-7.1153564453125,0.4804840087890625
1713358338713942300,1.9899423828125,3.477813720703125,-8.113739013671875,-0.613677978515625
1713358338723921700,1.999921630859375,1.545684814453125,-7.395477294921875,-2.0908966064453125
1713358338733870300,2.009870361328125,4.3277435302734375,-7.816864013671875,-2.6032562255859375
1713358338743849500,2.019849365234375,9.35797119140625,-7.9461517333984375,-0.393402099609375
1713358338753828900,2.029828857421875,1.3685150146484375,-6.7227020263671875,-0.4005889892578125
1713358338763777500,2.039777587890625,2.168182373046875,-4.532012939453125,-1.6168365478515625
1713358338773756700,2.049756591796875,11.9053955078125,-5.4370269775390625,5.4364776611328125
1713358338783736000,2.059736083984375,-2.469390869140625,-5.259857177734375,-0.4484710693359375
1713358338793684700,2.069684814453125,3.77947998046875,-3.2870330810546875,2.41259765625
1713358338803664100,2.0796640625,4.9334869384765625,-5.7865753173828125,-2.325531005859375
1713358338813643300,2.089643310546875,3.0947418212890625,-5.5806732177734375,-4.11639404296875
1713358338823592000,2.099592041015625,1.5289306640625,-3.6365814208984375,-0.9775848388671875
1713358338833571300,2.1095712890625,1.7659454345703125,-2.702850341796875,-0.266510009765625
1713358338843550500,2.119550537109375,2.0508575439453125,-4.4865264892578125,-1.7964019775390625
1713358338853499100,2.1294990234375,5.412322998046875,-3.0930938720703125,-1.724578857421875
1713358338863478500,2.139478515625,5.0603790283203125,-5.049163818359375,-1.0182952880859375
1713358338873457700,2.149457763671875,5.4482421875,-5.1784515380859375,-0.33355712890625
1713358338883437000,2.15943701171875,5.3979644775390625,-5.6237640380859375,-0.1468048095703125
1713358338893385700,2.1693857421875,6.0850982666015625,-6.7059478759765625,-2.0334320068359375
1713358338903364900,2.17936474609375,5.7882080078125,-7.163238525390625,-2.579315185546875
1713358338913344300,2.18934423828125,5.73553466796875,-7.2135162353515625,-2.50030517578125
1713358338923293000,2.19929296875,5.7858123779296875,-7.342803955078125,-1.5474090576171875
1713358338933272000,2.20927197265625,5.6206207275390625,-7.9988250732421875,-3.563323974609375
1713358338943251500,2.21925146484375,6.68603515625,-8.00360107421875,-2.5218505859375
1713358338953200000,2.2292001953125,7.8304595947265625,-8.420196533203125,-3.975128173828125
1713358338963179500,2.239179443359375,9.63330078125,-9.212677001953125,-4.1259613037109375
1713358338973158700,2.24915869140625,12.369873046875,-10.172760009765625,-8.897613525390625
1713358338983107300,2.259107421875,13.7010498046875,-8.855941772460938,-7.1091461181640625
1713358338993086700,2.269086669921875,11.184738159179688,-6.157684326171875,-2.03582763671875
1713358339003065900,2.27906591796875,7.4641571044921875,-3.3660430908203125,2.9967803955078125
1713358339013014500,2.2890146484375,-4.530792236328125,-0.4355316162109375,1.667999267578125
1713358339022994000,2.298993896484375,1.74200439453125,-1.51531982421875,-0.572967529296875
1713358339032942600,2.308942626953125,2.13226318359375,-3.6413726806640625,-1.908935546875
1713358339042921700,2.318921630859375,3.77947998046875,-3.7275543212890625,0.516387939453125
1713358339052912000,2.328912109375,5.2686767578125,-4.1704864501953125,-1.6168365478515625
1713358339062860800,2.33886083984375,6.3580322265625,-3.3923797607421875,-0.7693023681640625
1713358339072840200,2.348840087890625,3.2551422119140625,-2.154571533203125,1.857147216796875
1713358339082819300,2.3588193359375,5.2878265380859375,-1.5560150146484375,1.8284149169921875
1713358339092768300,2.368768310546875,4.24395751953125,-4.1058502197265625,-1.5928955078125
1713358339102747400,2.378747314453125,3.7459564208984375,-5.5710906982421875,-2.749298095703125
1713358339112726500,2.3887265625,1.9742431640625,-6.8927001953125,-3.5489654541015625
1713358339122675500,2.398675537109375,1.51934814453125,-6.9214324951171875,-3.7668304443359375
1713358339132654600,2.408654541015625,1.0955810546875,-7.9006500244140625,-1.691070556640625
1713358339142634000,2.418634033203125,0.446746826171875,-9.392242431640625,2.201904296875
1713358339152613000,2.428613037109375,-0.8365478515625,-10.529495239257812,4.1699371337890625
1713358339162561800,2.438561767578125,-2.660919189453125,-9.57659912109375,6.5306243896484375
1713358339172541200,2.448541259765625,-0.88922119140625,-9.191131591796875,10.133895874023438
1713358339182520300,2.458520263671875,-3.95379638671875,-16.941162109375,10.375717163085938
1713358339192469000,2.468468994140625,0.2863311767578125,-20.994552612304688,6.164306640625
1713358339202448400,2.478448486328125,0.5856170654296875,-19.641815185546875,1.6703948974609375
1713358339212427500,2.488427490234375,0.044525146484375,-16.893280029296875,1.5913848876953125
1713358339222376200,2.498376220703125,-3.9418182373046875,-13.4432373046875,0.9353790283203125
1713358339232355600,2.50835546875,-6.1325225830078125,-14.192611694335938,3.274505615234375
1713358339242334700,2.518334716796875,-4.899505615234375,-13.486328125,0.8084869384765625
1713358339252283600,2.52828369140625,-2.6034698486328125,-10.778488159179688,-1.6527557373046875
1713358339262262800,2.5382626953125,-2.62261962890625,-9.286895751953125,-1.808380126953125
1713358339272242000,2.548241943359375,-3.8292999267578125,-8.860733032226562,-2.1507568359375
1713358339282190800,2.55819091796875,-2.5819244384765625,-7.86474609375,-2.7684478759765625
1713358339292170000,2.568169921875,0.434783935546875,-9.330001831054688,-5.722900390625
1713358339302149400,2.5781494140625,0.5856170654296875,-9.902206420898438,-3.7764129638671875
1713358339312098000,2.58809814453125,-1.53326416015625,-13.76165771484375,11.333389282226562
1713358339322077200,2.5980771484375,1.3158416748046875,-14.472732543945312,7.6032257080078125
1713358339332056600,2.608056640625,0.6717987060546875,-10.177536010742188,3.6192779541015625
1713358339342005200,2.618005126953125,-2.2563018798828125,-10.397811889648438,0.0112152099609375
1713358339351984400,2.627984375,-0.5013580322265625,-8.992416381835938,5.872222900390625
1713358339361963800,2.6379638671875,1.6893310546875,-6.9333953857421875,6.2505035400390625
1713358339371912400,2.647912353515625,0.408447265625,-6.7203216552734375,6.549774169921875
1713358339381891600,2.6578916015625,0.4228057861328125,-8.501602172851562,7.10284423828125
1713358339391871000,2.66787109375,1.5001983642578125,-8.973251342773438,0.6073760986328125
1713358339401819600,2.677819580078125,-0.1494140625,-8.891860961914062,1.711090087890625
1713358339411798800,2.687798828125,-0.8652801513671875,-5.736297607421875,6.7317352294921875
1713358339421778200,2.697778076171875,-11.821136474609375,0.876495361328125,-23.068893432617188
1713358339431726800,2.707726806640625,3.7938385009765625,-4.5918731689453125,-9.623046875
1713358339441706200,2.717706298828125,8.678009033203125,-9.459274291992188,8.55133056640625
1713358339451685400,2.727685302734375,0.784332275390625,-8.429779052734375,9.377334594726562
1713358339461664500,2.73766455078125,-0.2427825927734375,-8.92059326171875,8.541748046875
1713358339471613400,2.747613525390625,0.3390045166015625,-9.816024780273438,8.84820556640625
1713358339481592600,2.757592529296875,0.4922332763671875,-11.092132568359375,5.80517578125
1713358339491572000,2.767572021484375,-0.6282501220703125,-12.502304077148438,4.3878173828125
1713358339501520600,2.777520751953125,-1.04962158203125,-13.697021484375,3.4085845947265625
1713358339511497200,2.787497314453125,-0.673736572265625,-14.831863403320312,3.7677154541015625
1713358339521476600,2.7974765625,-0.463043212890625,-15.164657592773438,2.3719024658203125
1713358339531425300,2.80742529296875,-2.3233489990234375,-14.76483154296875,1.3591461181640625
1713358339541404400,2.817404296875,-2.713592529296875,-14.341064453125,0.91143798828125
1713358339551383800,2.8273837890625,-2.469390869140625,-14.285995483398438,0.8994598388671875
1713358339561332500,2.83733251953125,-0.9658355712890625,-13.634765625,1.4788665771484375
1713358339571311600,2.8473115234375,0.7029266357421875,-13.8885498046875,2.11572265625
1713358339581291000,2.857291015625,1.840179443359375,-9.859115600585938,3.77490234375
1713358339591239700,2.86723974609375,2.381256103515625,-9.22943115234375,3.712646484375
1713358339601218800,2.87721875,1.33978271484375,-5.8919219970703125,-0.7381744384765625
1713358339611198200,2.8871982421875,0.6981353759765625,-5.7339019775390625,-1.0230865478515625
1713358339621147000,2.89714697265625,0.710113525390625,-6.0547332763671875,0.74383544921875
1713358339631126300,2.907126220703125,1.14825439453125,-6.7322845458984375,1.12451171875
1713358339641105400,2.91710546875,0.9615020751953125,-5.7482757568359375,1.07183837890625
1713358339651054000,2.92705419921875,3.19769287109375,-6.9477691650390625,0.411041259765625
1713358339661033500,2.937033447265625,2.1873321533203125,-7.1752166748046875,2.482025146484375
1713358339670982100,2.946982177734375,0.6598358154296875,-6.6101837158203125,3.389434814453125
1713358339680961300,2.956961181640625,-1.128631591796875,-6.1864013671875,3.0662078857421875
1713358339690940700,2.966940673828125,-2.280242919921875,-6.169647216796875,2.776519775390625
1713358339700889300,2.976889404296875,-1.961822509765625,-6.5455322265625,3.415771484375
1713358339710868500,2.986868408203125,-0.2212371826171875,-8.104156494140625,1.7230682373046875
1713358339720848000,2.996847900390625,-0.0249176025390625,-10.0003662109375,-2.93365478515625
1713358339730827000,3.006826904296875,-0.1278533935546875,-11.755325317382812,-4.4037017822265625
1713358339740806400,3.016806396484375,-0.4031982421875,-13.29718017578125,-4.5042572021484375
1713358339750755000,3.026755126953125,-0.4031982421875,-14.815109252929688,-4.26483154296875
1713358339760734200,3.036734130859375,-1.1573638916015625,-15.289169311523438,-2.916900634765625
1713358339770713600,3.046713623046875,-1.023284912109375,-11.259719848632812,-0.9823760986328125
1713358339780662300,3.056662353515625,-4.46136474609375,-13.00030517578125,-0.4532623291015625
1713358339790641700,3.0666416015625,-6.094207763671875,-16.500625610351562,-3.0054779052734375
1713358339800590300,3.07659033203125,-2.885986328125,-16.347396850585938,-7.291107177734375
1713358339810569500,3.086569580078125,-1.698455810546875,-14.570907592773438,-7.307861328125
1713358339820548900,3.096548828125,-1.042449951171875,-11.020294189453125,-5.2512359619140625
1713358339830497500,3.10649755859375,-7.1093597412109375,1.76953125,0.3751373291015625
1713358339840476700,3.1164765625,-0.841339111328125,-7.1129608154296875,-1.2289886474609375
1713358339850456000,3.1264560546875,-6.0989990234375,-9.844741821289062,1.8451690673828125
1713358339860404700,3.13640478515625,-2.9889373779296875,-11.111282348632812,2.2617645263671875
1713358339870383900,3.1463837890625,0.8346099853515625,-7.40985107421875,3.410980224609375
1713358339880363300,3.15636328125,-1.992950439453125,-8.01318359375,2.881866455078125
1713358339890312000,3.16631201171875,-2.9266815185546875,-7.299713134765625,2.0941619873046875
1713358339900291000,3.176291015625,-3.379180908203125,-6.033172607421875,2.4844207763671875
1713358339910270500,3.1862705078125,-2.6681060791015625,-5.6548919677734375,2.5730133056640625
1713358339920219100,3.19621923828125,-1.72479248046875,-5.16168212890625,1.17718505859375
1713358339930198500,3.206198486328125,-0.9610443115234375,-4.86480712890625,-0.9967498779296875
1713358339940177700,3.216177734375,-1.1980743408203125,-5.4178619384765625,-2.54339599609375
1713358339950126300,3.226126220703125,-1.4039764404296875,-6.15289306640625,-3.134765625
1713358339960105700,3.236105712890625,-1.8325347900390625,-9.86151123046875,-2.9432373046875
1713358339970084900,3.2460849609375,-1.454254150390625,-13.637161254882812,-5.9048614501953125
1713358339980033500,3.256033447265625,-3.1589202880859375,-20.910751342773438,-11.442642211914062
1713358339990013000,3.266012939453125,-3.896331787109375,-22.565139770507812,-8.4163818359375
1713358339999992000,3.275991943359375,-2.3616485595703125,-17.542098999023438,0.1955718994140625
1713358340009971500,3.285971435546875,-2.036041259765625,-13.086502075195312,1.296905517578125
1713358340019920100,3.295920166015625,-1.26031494140625,-11.286056518554688,-0.4412841796875
1713358340029899300,3.305899169921875,-0.0751953125,-10.48638916015625,0.104583740234375
1713358340039878700,3.315878662109375,0.837005615234375,-10.105712890625,0.11895751953125
1713358340049827300,3.325827392578125,1.2583770751953125,-9.255767822265625,0.3392181396484375
1713358340059806500,3.335806396484375,0.57843017578125,-7.838409423828125,1.636871337890625
1713358340069785900,3.345785888671875,-0.9921722412109375,-2.5472259521484375,4.5218963623046875
1713358340079734500,3.355734619140625,5.7762451171875,-16.1917724609375,-4.38214111328125
1713358340089714000,3.3657138671875,4.4690093994140625,-18.07122802734375,-3.78839111328125
1713358340099693000,3.375693115234375,-2.7351531982421875,-10.80242919921875,-2.9192962646484375
1713358340109641700,3.385641845703125,-5.6991729736328125,-7.05072021484375,-2.8522491455078125
1713358340119621000,3.39562109375,-5.8595733642578125,-5.2167510986328125,-2.02386474609375
1713358340129600300,3.405600341796875,-2.797393798828125,-6.713134765625,-1.1308135986328125
1713358340139549000,3.415548828125,1.323028564453125,-8.3292236328125,-2.20343017578125
1713358340149528300,3.4255283203125,1.5049896240234375,-7.838409423828125,-2.548187255859375
1713358340159507500,3.435507568359375,0.1163482666015625,-7.88629150390625,-1.7293701171875
1713358340169456000,3.4454560546875,0.7460174560546875,-9.816024780273438,-0.288055419921875
1713358340179435500,3.455435546875,-0.398406982421875,-9.82080078125,-2.38299560546875
1713358340189414700,3.46541455078125,-0.7503509521484375,-9.51434326171875,-1.217010498046875
1713358340199363600,3.475363525390625,-0.894012451171875,-9.380279541015625,-0.7764739990234375
1713358340209342700,3.4853427734375,-1.0304718017578125,-9.435333251953125,-0.52508544921875
1713358340219321900,3.49532177734375,-1.391998291015625,-9.320419311523438,-0.170745849609375
1713358340229270800,3.505270751953125,-1.6409912109375,-9.167190551757812,0.0686798095703125
1713358340239250000,3.51525,-1.6481781005859375,-9.095367431640625,0.2817535400390625
1713358340249229300,3.525229248046875,-1.6170501708984375,-9.114517211914062,0.3655548095703125
1713358340259178000,3.535177978515625,-1.5739593505859375,-9.262954711914062,0.3703460693359375
1713358340269157000,3.5451572265625,-1.5045318603515625,-9.452102661132812,0.336822509765625
1713358340279136500,3.555136474609375,-1.2722930908203125,-9.497589111328125,0.3272552490234375
1713358340289085200,3.565085205078125,-1.0783538818359375,-9.392242431640625,0.250640869140625
1713358340299064300,3.575064208984375,-1.0089263916015625,-9.262954711914062,0.1811981201171875
1713358340309043700,3.585043701171875,-1.0400543212890625,-9.241409301757812,0.219512939453125
1713358340319022800,3.59502294921875,-1.0352630615234375,-9.389846801757812,0.245849609375
1713358340328971500,3.604971435546875,-0.9442901611328125,-9.624481201171875,0.3871002197265625
1713358340338951000,3.614950927734375,-0.7551422119140625,-9.916580200195312,0.324859619140625
1713358340348930000,3.624929931640625,-0.4917755126953125,-10.122482299804688,0.0686798095703125
1713358340358878700,3.634878662109375,-0.2212371826171875,-10.203872680664062,0.01361083984375
1713358340368858000,3.644858154296875,0.5712432861328125,-10.155990600585938,0.092620849609375
1713358340378837200,3.654837158203125,0.901641845703125,-9.887847900390625,-0.0725860595703125
1713358340388786200,3.6647861328125,1.0141754150390625,-10.716232299804688,0.5020294189453125
1713358340398765300,3.674765380859375,-0.017730712890625,-10.15838623046875,0.56427001953125
1713358340408744400,3.684744384765625,-0.309814453125,-9.136062622070312,0.6720123291015625
1713358340418693400,3.694693359375,0.1067657470703125,-9.832778930664062,-0.1372222900390625
1713358340428672500,3.704672607421875,0.573638916015625,-9.918960571289062,0.2075347900390625
1713358340438652000,3.71465185546875,0.705322265625,-9.521530151367188,0.2578125
1713358340448600600,3.7246005859375,0.384490966796875,-9.36590576171875,0.320068359375
1713358340458579700,3.734579833984375,-0.039276123046875,-9.595748901367188,0.092620849609375
1713358340468559000,3.74455908203125,-0.1781463623046875,-10.098526000976562,0.0686798095703125
1713358340478507800,3.7545078125,0.9399566650390625,-10.069808959960938,0.5092010498046875
1713358340488487000,3.76448681640625,0.6071624755859375,-10.2852783203125,0.3511962890625
1713358340498435800,3.774435791015625,0.1043701171875,-10.883834838867188,0.559478759765625
1713358340508415000,3.7844150390625,-0.0847625732421875,-11.149581909179688,0.779754638671875
1713358340518394000,3.79439404296875,-0.2379913330078125,-11.319580078125,1.0048065185546875
1713358340528343000,3.804343017578125,-1.31298828125,-11.7218017578125,1.308868408203125
1713358340538322200,3.814322265625,-1.528472900390625,-11.470413208007812,0.7510223388671875
1713358340548301600,3.824301513671875,-1.26031494140625,-10.970016479492188,-0.836334228515625
1713358340558250200,3.834250244140625,-1.0975189208984375,-10.835952758789062,-2.63916015625
1713358340568229400,3.8442294921875,-1.24835205078125,-10.87664794921875,-4.0445709228515625
1713358340578208800,3.854208740234375,-1.43988037109375,-10.756942749023438,-5.145904541015625
1713358340588188000,3.86418798828125,-1.7223968505859375,-10.29486083984375,-5.866546630859375
1713358340598167300,3.874167236328125,-2.0863189697265625,-9.60772705078125,-6.9511260986328125
1713358340608116000,3.884115966796875,-2.565155029296875,-8.726654052734375,-7.5017852783203125
1713358340618095000,3.89409521484375,-2.9434356689453125,-7.8096771240234375,-7.0037994384765625
1713358340628074500,3.904074462890625,-2.960205078125,-7.426605224609375,-5.7420501708984375
1713358340638023200,3.914023193359375,-2.62261962890625,-7.6229248046875,-3.9344329833984375
1713358340648002300,3.924002197265625,-1.9594268798828125,-8.228668212890625,-1.93048095703125
1713358340657981700,3.933981689453125,-0.9299163818359375,-9.150436401367188,-0.2736968994140625
1713358340667930400,3.943930419921875,-0.228424072265625,-10.103317260742188,1.4692840576171875
1713358340677909500,3.953909423828125,-0.53009033203125,-11.008331298828125,2.8052520751953125
1713358340687889000,3.963888916015625,-1.29144287109375,-11.695465087890625,3.7677154541015625
1713358340697837600,3.973837646484375,-2.5412139892578125,-12.475982666015625,3.3247833251953125
1713358340707817000,3.98381689453125,-4.14532470703125,-12.633987426757812,2.053466796875
1713358340717796000,3.993796142578125,-5.0216064453125,-11.9324951171875,0.8204498291015625
1713358340727744800,4.003744873046875,-4.5643157958984375,-11.075363159179688,-0.266510009765625
1713358340737724200,4.01372412109375,-3.1014556884765625,-10.223037719726562,-0.819580078125
1713358340747672800,4.0236728515625,-1.296234130859375,-9.648422241210938,-0.762115478515625
1713358340757652000,4.03365185546875,0.2049407958984375,-9.303665161132812,-0.5538177490234375
1713358340767631400,4.04363134765625,1.2727508544921875,-8.961288452148438,-0.24017333984375
1713358340777580000,4.053580078125,1.78271484375,-8.683563232421875,-0.0103302001953125
1713358340787559200,4.06355908203125,1.8162384033203125,-8.537506103515625,0.047119140625
1713358340797538600,4.07353857421875,1.7707366943359375,-8.386672973632812,0.1859893798828125
1713358340807487200,4.0834873046875,0.9399566650390625,-8.549484252929688,0.63848876953125
1713358340817466400,4.09346630859375,0.118743896484375,-8.745803833007812,0.5810394287109375
1713358340827445800,4.10344580078125,-0.3337554931640625,-8.606948852539062,0.56427001953125
1713358340837394400,4.11339453125,-0.441497802734375,-8.39385986328125,0.52117919921875
1713358340847373800,4.123373779296875,-0.5133209228515625,-8.365127563476562,0.6720123291015625
1713358340857353000,4.13335302734375,-0.731201171875,-8.4896240234375,1.0478973388671875
1713358340867332000,4.14333203125,-0.6545867919921875,-8.441741943359375,1.2490234375
1713358340877281000,4.153281005859375,-0.4702301025390625,-8.317245483398438,1.1484527587890625
1713358340887260200,4.16326025390625,-0.144622802734375,-8.173599243164062,0.84918212890625
1713358340897239600,4.173239501953125,-0.0943450927734375,-8.243026733398438,0.66961669921875
1713358340907188200,4.183188232421875,0.57843017578125,-7.903045654296875,-0.180328369140625
1713358340917167400,4.19316748046875,0.9926300048828125,-7.4864654541015625,-0.5634002685546875
1713358340927146800,4.203146728515625,1.3517608642578125,-7.1225433349609375,-0.7908477783203125
1713358340937095400,4.213095458984375,1.334991455078125,-6.8807220458984375,-0.745361328125
1713358340947074600,4.223074462890625,1.29669189453125,-6.67242431640625,-0.5490264892578125
1713358340957054000,4.233053955078125,1.3206329345703125,-6.49285888671875,-0.20904541015625
1713358340967002600,4.243002685546875,1.3637237548828125,-6.4952545166015625,0.3272552490234375
1713358340976981800,4.252981689453125,1.435546875,-6.65087890625,1.076629638671875
1713358340986961200,4.262961181640625,1.5313262939453125,-6.98846435546875,1.9409332275390625
1713358340996909800,4.272909912109375,1.69891357421875,-7.596588134765625,2.946502685546875
1713358341006889200,4.28288916015625,1.787506103515625,-8.446533203125,3.9832000732421875
1713358341016868400,4.292868408203125,1.6749725341796875,-9.37548828125,4.794830322265625
1713358341026817000,4.302817138671875,1.2775421142578125,-10.246978759765625,5.4484405517578125
1713358341036796400,4.31279638671875,0.7603912353515625,-11.230987548828125,5.4005584716796875
1713358341046775600,4.322775634765625,0.224090576171875,-12.243743896484375,4.5123138427734375
1713358341056724200,4.33272412109375,-0.3600921630859375,-13.07452392578125,2.9848175048828125
1713358341066703600,4.34270361328125,-0.67852783203125,-13.756866455078125,1.2107086181640625
1713358341076682800,4.352682861328125,-0.1374359130859375,-13.663497924804688,-0.687896728515625
1713358341086631400,4.36263134765625,0.0421295166015625,-13.756866455078125,-2.210601806640625
1713358341096610800,4.37261083984375,0.0157928466796875,-13.8885498046875,-3.0725250244140625
1713358341106559500,4.3825595703125,1.006988525390625,-12.923690795898438,-1.9065399169921875
1713358341116539000,4.392538818359375,2.62786865234375,-11.726593017578125,1.160430908203125
1713358341126518000,4.40251806640625,3.712432861328125,-11.6475830078125,3.6671600341796875
1713358341136497200,4.4124970703125,4.0572052001953125,-13.699417114257812,4.5697784423828125
1713358341146446000,4.422446044921875,2.2088775634765625,-17.54449462890625,3.1069183349609375
1713358341156425200,4.43242529296875,-1.2052459716796875,-20.542037963867188,-0.2928466796875
1713358341166404400,4.442404296875,-3.187652587890625,-17.6905517578125,-4.5736846923828125
1713358341176383700,4.4523837890625,-3.664093017578125,-11.360275268554688,-8.521728515625
1713358341186332400,4.46233251953125,-4.34405517578125,-7.531951904296875,-6.4100341796875
1713358341196311800,4.472311767578125,-5.2777862548828125,-6.021209716796875,-1.7174072265625
1713358341206291000,4.482291015625,-4.38714599609375,-8.413009643554688,1.763763427734375
1713358341216239600,4.492239501953125,-3.12060546875,-10.194305419921875,3.2864837646484375
1713358341226219000,4.502218994140625,-3.95379638671875,-11.468017578125,2.553863525390625
1713358341236198100,4.5121982421875,-4.4158782958984375,-12.62921142578125,1.782928466796875
1713358341246146800,4.522146728515625,-4.360809326171875,-12.6507568359375,2.1348724365234375
1713358341256126200,4.532126220703125,-3.4270782470703125,-11.25732421875,0.8036956787109375
1713358341266105300,4.542105224609375,-1.645782470703125,-9.806442260742188,-1.4683990478515625
1713358341276054000,4.552053955078125,-0.5803680419921875,-8.812850952148438,-2.81634521484375
1713358341286033400,4.562033447265625,0.3126678466796875,-8.247817993164062,-4.449188232421875
1713358341296012500,4.572012451171875,0.6119537353515625,-8.228668212890625,-6.065277099609375
1713358341305961500,4.58196142578125,0.51617431640625,-8.405838012695312,-6.520172119140625
1713358341315940600,4.591940673828125,0.5927886962890625,-8.331619262695312,-5.945556640625
1713358341325919700,4.601919677734375,0.4228057861328125,-7.807281494140625,-5.0549163818359375
1713358341335868700,4.61186865234375,0.118743896484375,-7.2350616455078125,-3.5274200439453125
1713358341345847800,4.621847900390625,-0.1158905029296875,-6.73468017578125,-1.7628936767578125
1713358341355827200,4.6318271484375,-0.4008026123046875,-6.35400390625,-1.1882781982421875
1713358341365776000,4.64177587890625,-0.407989501953125,-6.4090728759765625,-1.511505126953125
1713358341375755000,4.651755126953125,-0.656982421875,-6.6891937255859375,-1.5904998779296875
1713358341385734400,4.661734375,-0.621063232421875,-7.045928955078125,-1.4420623779296875
1713358341395683000,4.67168310546875,-0.314605712890625,-7.5774383544921875,-1.5067138671875
1713358341405662200,4.681662109375,-0.4391021728515625,-8.262176513671875,-1.4779815673828125
1713358341415611100,4.691611083984375,-1.15496826171875,-8.982833862304688,-1.5522003173828125
1713358341425590300,4.70159033203125,-1.9019622802734375,-9.557449340820312,-1.6743011474609375
1713358341435569400,4.7115693359375,-2.4957275390625,-9.89501953125,-1.5881195068359375
1713358341445548800,4.721548828125,-2.4502410888671875,-9.84234619140625,-1.406158447265625
1713358341455497500,4.73149755859375,-2.1174468994140625,-9.74658203125,-0.88421630859375
1713358341465476900,4.741476806640625,-1.921112060546875,-9.74658203125,-0.6016998291015625
1713358341475456000,4.7514560546875,-1.571563720703125,-9.720245361328125,-0.2784881591796875
1713358341485435100,4.76143505859375,-0.5276947021484375,-9.267745971679688,0.9210052490234375
1713358341495384000,4.771384033203125,0.69573974609375,-8.78411865234375,1.9074249267578125
1713358341505363200,4.78136328125,0.27197265625,-8.25738525390625,1.7877044677734375
1713358341515342600,4.791342529296875,-0.2044677734375,-7.4720916748046875,1.4429473876953125
1713358341525291300,4.801291259765625,-0.8820343017578125,-7.40985107421875,0.7989044189453125
1713358341535270400,4.8112705078125,-1.5164947509765625,-7.4768829345703125,0.4661102294921875
1713358341545249800,4.821249755859375,-1.834930419921875,-7.7713623046875,0.1428985595703125
1713358341555198500,4.831198486328125,-2.2443389892578125,-8.28851318359375,0.0758514404296875
1713358341565177600,4.841177490234375,-2.162933349609375,-9.040298461914062,0.320068359375
1713358341575157000,4.851156982421875,-2.0647735595703125,-9.832778930664062,0.67919921875
1713358341585105700,4.861105712890625,-1.35369873046875,-10.352325439453125,0.8946685791015625
1713358341595084800,4.871084716796875,-0.2212371826171875,-10.785675048828125,0.8300323486328125
1713358341605064200,4.881064208984375,1.2320404052734375,-10.926925659179688,0.2889404296875
1713358341615012900,4.891012939453125,2.512939453125,-10.642013549804688,-0.0893402099609375
1713358341624992000,4.900991943359375,3.712432861328125,-9.856719970703125,0.293731689453125
1713358341634971400,4.910971435546875,4.7443389892578125,-8.6572265625,0.7103271484375
1713358341644920000,4.920920166015625,3.4035797119140625,-7.5247650146484375,1.979248046875
1713358341654899500,4.9308994140625,2.0604400634765625,-6.95733642578125,3.0997314453125
1713358341664848100,4.94084814453125,1.4666748046875,-7.6875762939453125,3.305633544921875
1713358341674827300,4.9508271484375,1.1697998046875,-9.454498291015625,2.6783599853515625
1713358341684806700,4.960806640625,0.753204345703125,-11.324371337890625,0.88031005859375
1713358341694755300,4.97075537109375,0.6023712158203125,-12.878204345703125,-0.69268798828125
1713358341704734500,4.980734375,0.75799560546875,-13.94122314453125,-1.4253082275390625
1713358341714713900,4.9907138671875,0.4587249755859375,-14.113601684570312,-0.783660888671875
1713358341724693000,5.00069287109375,-1.147796630859375,-13.366622924804688,0.209930419921875
1713358341734641700,5.0106416015625,-2.7255706787109375,-11.822357177734375,1.011993408203125
1713358341744621000,5.02062109375,-3.3073577880859375,-10.091354370117188,1.6201171875
1713358341754600200,5.03060009765625,-3.7838134765625,-8.764968872070312,1.6320953369140625
1713358341764579600,5.04057958984375,-3.992095947265625,-7.4720916748046875,0.885101318359375
1713358341774528300,5.0505283203125,-3.2810211181640625,-6.4521636962890625,-1.099700927734375
1713358341784507400,5.06050732421875,-2.960205078125,-6.392303466796875,-3.910491943359375
1713358341794486800,5.07048681640625,-3.0152740478515625,-7.53912353515625,-6.8074798583984375
1713358341804435500,5.080435546875,-3.0583648681640625,-9.571807861328125,-9.12506103515625
1713358341814414800,5.090414794921875,-2.84527587890625,-12.4400634765625,-10.331741333007812
1713358341824394000,5.10039404296875,-2.4095306396484375,-15.835037231445312,-11.559967041015625
1713358341834342700,5.1103427734375,-2.3233489990234375,-18.506973266601562,-12.448211669921875
1713358341844322000,5.120322021484375,-2.7351531982421875,-19.378463745117188,-9.8529052734375
1713358341854301200,5.13030126953125,-3.4821319580078125,-18.2412109375,-4.9711151123046875
1713358341864249900,5.140249755859375,-5.1724395751953125,-16.941162109375,-1.1619415283203125
1713358341874229200,5.150229248046875,-8.009567260742188,-16.234878540039062,0.0207977294921875
1713358341884178000,5.160177978515625,-9.707061767578125,-15.195785522460938,1.1795806884765625
1713358341894157000,5.170156982421875,-9.391021728515625,-13.481536865234375,2.94171142578125
1713358341904136400,5.180136474609375,-8.4453125,-11.33154296875,4.519500732421875
1713358341914085000,5.190085205078125,-7.8755035400390625,-9.045089721679688,5.3287353515625
1713358341924064500,5.200064453125,-5.1724395751953125,-7.764190673828125,4.84271240234375
1713358341934043600,5.210043701171875,-2.6824798583984375,-7.03155517578125,3.0063629150390625
1713358341943992300,5.219992431640625,0.6454620361328125,-6.157684326171875,2.079803466796875
1713358341953971700,5.2299716796875,3.88482666015625,-5.6285552978515625,1.6273040771484375
1713358341963950800,5.239950927734375,5.2878265380859375,-6.0499420166015625,0.7821502685546875
1713358341973899500,5.2498994140625,4.1410064697265625,-5.968536376953125,-0.0199127197265625
1713358341983879000,5.25987890625,2.8170013427734375,-5.71954345703125,-0.393402099609375
1713358341993858000,5.269858154296875,1.7108917236328125,-5.5591278076171875,-0.932098388671875
1713358342003806700,5.279806640625,0.8848876953125,-5.314910888671875,-1.6407928466796875
1713358342013786000,5.2897861328125,0.6502532958984375,-4.7714385986328125,-2.232147216796875
1713358342023765200,5.29976513671875,0.3222503662109375,-4.436248779296875,-2.0813140869140625
1713358342033744600,5.30974462890625,0.061279296875,-4.6613006591796875,-1.396575927734375
1713358342043693300,5.319693359375,-0.103912353515625,-5.128173828125,-0.87225341796875
1713358342053672400,5.32967236328125,-0.135040283203125,-5.6788330078125,-0.6855010986328125
1713358342063651800,5.33965185546875,-0.166168212890625,-6.25823974609375,-0.953643798828125
1713358342073600500,5.3496005859375,-0.3002471923828125,-6.887908935546875,-1.343902587890625
1713358342083579600,5.35957958984375,-0.3265838623046875,-7.4505462646484375,-1.57135009765625
1713358342093559000,5.36955908203125,0.0014190673828125,-7.9102325439453125,-1.585723876953125
1713358342103507700,5.3795078125,0.482666015625,-8.2550048828125,-1.1499786376953125
1713358342113487000,5.389487060546875,0.9136199951171875,-8.571029663085938,-0.22821044921875
1713358342123466200,5.39946630859375,1.2416229248046875,-8.896636962890625,1.1580352783203125
1713358342133415000,5.409414794921875,1.502593994140625,-9.17437744140625,2.810028076171875
1713358342143394300,5.419394287109375,1.5839996337890625,-9.358718872070312,4.4763946533203125
1713358342153373400,5.42937353515625,1.3948516845703125,-9.420974731445312,5.99432373046875
1713358342163322000,5.439322021484375,1.121917724609375,-9.504776000976562,7.2728271484375
1713358342173301500,5.449301513671875,1.3948516845703125,-9.9141845703125,7.3111419677734375
1713358342183280600,5.45928076171875,1.703704833984375,-10.912567138671875,5.5537872314453125
1713358342193229300,5.469229248046875,1.76116943359375,-12.083328247070312,2.6472320556640625
1713358342203208700,5.479208740234375,1.5408935546875,-13.68743896484375,0.051910400390625
1713358342213187800,5.489187744140625,1.4690704345703125,-15.456756591796875,-2.78521728515625
1713358342223136800,5.49913671875,2.591949462890625,-16.397674560546875,-6.1706085205078125
1713358342233116000,5.509115966796875,4.5743560791015625,-14.886932373046875,-7.0612640380859375
1713358342243095000,5.519094970703125,4.071563720703125,-11.355484008789062,-4.4252471923828125
1713358342253044000,5.5290439453125,1.74200439453125,-9.499984741210938,0.9952239990234375
1713358342263023000,5.539023193359375,0.3605499267578125,-11.91094970703125,5.5106964111328125
1713358342273002500,5.54900244140625,-0.27630615234375,-17.400848388671875,6.06854248046875
1713358342282951200,5.558951171875,-4.063934326171875,-22.335296630859375,3.0183258056640625
1713358342292930300,5.568930419921875,-9.27850341796875,-25.9002685546875,-1.882598876953125
1713358342302909700,5.57890966796875,-11.7947998046875,-19.01214599609375,-2.758880615234375
1713358342312888800,5.588888916015625,-7.05908203125,-10.821578979492188,-0.8291473388671875
1713358342322837500,5.59883740234375,-3.2163848876953125,-7.881500244140625,0.31048583984375
1713358342332817000,5.60881689453125,-1.35369873046875,-6.8639678955078125,0.9210052490234375
1713358342342796000,5.618796142578125,-0.218841552734375,-6.6101837158203125,1.6057586669921875
1713358342352744700,5.62874462890625,-0.953857421875,-7.5080108642578125,1.3376007080078125
1713358342362724000,5.63872412109375,-2.8955535888671875,-8.535125732421875,1.4405517578125
1713358342372703200,5.648703125,-3.199615478515625,-9.025924682617188,0.7079315185546875
1713358342382652200,5.658652099609375,-1.40875244140625,-9.59814453125,-1.554595947265625
1713358342392631300,5.66863134765625,0.3270416259765625,-10.112899780273438,-4.063720703125
1713358342402610400,5.6786103515625,1.6701812744140625,-10.598922729492188,-6.70452880859375
1713358342412559400,5.688559326171875,1.9167938232421875,-10.66595458984375,-9.127456665039062
1713358342422538500,5.69853857421875,0.4443511962890625,-10.088958740234375,-9.81219482421875
1713358342432517600,5.708517578125,-1.40875244140625,-9.107330322265625,-7.6023406982421875
1713358342442466600,5.718466552734375,-1.54522705078125,-7.7785491943359375,-4.5569305419921875
1713358342452445700,5.72844580078125,-0.72161865234375,-6.751434326171875,-1.8419036865234375
1713358342462425000,5.738425048828125,0.1857757568359375,-5.9493865966796875,-0.77886962890625
1713358342472373800,5.748373779296875,1.0883941650390625,-5.547149658203125,-1.269683837890625
1713358342482353000,5.758352783203125,1.323028564453125,-5.276611328125,-2.071746826171875
1713358342492332300,5.768332275390625,1.138671875,-4.99169921875,-2.2608795166015625
1713358342502281000,5.778281005859375,0.7938995361328125,-5.0228271484375,-2.3805999755859375
1713358342512260000,5.788260009765625,-0.1254730224609375,-5.578277587890625,-2.2273712158203125
1713358342522239500,5.798239501953125,-1.444671630859375,-6.7059478759765625,-1.7796478271484375
1713358342532188200,5.808188232421875,-2.797393798828125,-8.032333374023438,-1.64556884765625
1713358342542167300,5.818167236328125,-3.336090087890625,-9.538284301757812,-1.607269287109375
1713358342552146700,5.828146728515625,-2.5364227294921875,-10.56060791015625,-1.4205169677734375
1713358342562095400,5.838095458984375,-1.8157806396484375,-10.821578979492188,-0.774078369140625
1713358342572074800,5.84807470703125,-1.2675018310546875,-10.65399169921875,0.4182281494140625
1713358342582054000,5.858053955078125,0.15704345703125,-10.11529541015625,2.9704437255859375
1713358342592033000,5.868032958984375,0.6813812255859375,-9.44012451171875,4.2489471435546875
1713358342601982000,5.87798193359375,-0.6593780517578125,-8.760177612304688,3.427734375
1713358342611961000,5.887961181640625,-0.8724517822265625,-8.396255493164062,2.5730133056640625
1713358342621940500,5.8979404296875,-1.8373260498046875,-8.039520263671875,0.3511962890625
1713358342631889200,5.90788916015625,-1.8708343505859375,-8.829605102539062,-0.4005889892578125
1713358342641868300,5.917868408203125,-1.720001220703125,-9.425765991210938,-0.07977294921875
1713358342651847700,5.92784765625,-1.212432861328125,-9.677154541015625,0.89227294921875
1713358342661796400,5.93779638671875,0.310272216796875,-9.701095581054688,1.667999267578125
1713358342671775500,5.947775390625,1.3804931640625,-9.401824951171875,1.2202911376953125
1713358342681755000,5.9577548828125,2.1969146728515625,-8.9229736328125,1.2274627685546875
1713358342691703600,5.96770361328125,3.489776611328125,-8.788909912109375,0.928192138671875
1713358342701682700,5.9776826171875,4.5121002197265625,-8.78411865234375,0.897064208984375
1713358342711662000,5.987662109375,4.502532958984375,-8.4034423828125,1.3974609375
1713358342721610800,5.99761083984375,2.8361663818359375,-7.6420745849609375,2.556243896484375
1713358342731590100,6.007590087890625,1.80426025390625,-7.0962066650390625,3.528289794921875
1713358342741569300,6.0175693359375,1.0045928955078125,-7.6109619140625,3.760528564453125
1713358342751518000,6.02751806640625,0.0277557373046875,-9.499984741210938,3.7317962646484375
1713358342761497300,6.037497314453125,-0.1853179931640625,-11.432098388671875,2.079803466796875
1713358342771476500,6.0474765625,-0.2787017822265625,-12.7369384765625,0.3655548095703125
1713358342781425200,6.057425048828125,0.5592803955078125,-13.428863525390625,-0.95843505859375
1713358342791404500,6.067404541015625,1.2631683349609375,-13.196624755859375,-1.2409515380859375
1713358342801353200,6.077353271484375,0.298309326171875,-12.320358276367188,-0.49395751953125
1713358342811332400,6.087332275390625,-0.714447021484375,-11.369857788085938,0.18359375
1713358342821311700,6.097311767578125,-1.1190643310546875,-10.033889770507812,0.6337127685546875
1713358342831260400,6.107260498046875,-2.3760223388671875,-8.633285522460938,0.4373779296875
1713358342841239800,6.11723974609375,-3.9346466064453125,-7.7091217041015625,0.05670166015625
1713358342851219000,6.127218994140625,-4.509246826171875,-7.01959228515625,-0.8219757080078125
1713358342861198000,6.137197998046875,-4.3057403564453125,-6.7538299560546875,-2.9216766357421875
1713358342871147000,6.14714697265625,-4.751068115234375,-7.8479766845703125,-5.6462860107421875
1713358342881126100,6.157126220703125,-5.10540771484375,-10.615676879882812,-7.5065765380859375
1713358342891105300,6.167105224609375,-4.571502685546875,-15.270004272460938,-11.277450561523438
1713358342901054200,6.17705419921875,-3.1110382080078125,-20.285858154296875,-15.903045654296875
1713358342911033300,6.187033447265625,-2.1605377197265625,-24.303329467773438,-17.255767822265625
1713358342921012700,6.1970126953125,-2.512481689453125,-23.707168579101562,-12.90789794921875
1713358342930991900,6.206991943359375,-5.091033935546875,-19.060028076171875,-6.4555206298828125
1713358342940940500,6.2169404296875,-7.9018402099609375,-16.08642578125,-2.5146636962890625
1713358342950920000,6.226919921875,-9.515533447265625,-14.305145263671875,0.705535888671875
1713358342960899000,6.236899169921875,-9.917755126953125,-12.5885009765625,2.549072265625
1713358342970847700,6.24684765625,-8.86669921875,-11.125640869140625,5.723785400390625
1713358342980827100,6.2568271484375,-8.086181640625,-9.193527221679688,8.556121826171875
1713358342990806300,6.26680615234375,-6.3216552734375,-7.7258758544921875,8.16107177734375
1713358343000755000,6.2767548828125,-3.3504638671875,-6.3420257568359375,6.3462677001953125
1713358343010734300,6.286734375,0.5999755859375,-4.5990447998046875,6.24810791015625
1713358343020713500,6.29671337890625,4.947845458984375,-4.089080810546875,4.4548492431640625
1713358343030662400,6.306662353515625,5.6589202880859375,-4.80255126953125,1.878692626953125
1713358343040641500,6.3166416015625,4.557586669921875,-5.1832427978515625,-0.0151214599609375
1713358343050590200,6.326590087890625,3.712432861328125,-4.4553985595703125,-0.5274810791015625
1713358343060569600,6.336569580078125,2.71405029296875,-4.3715972900390625,-2.04541015625
1713358343070548700,6.346548828125,1.7803192138671875,-4.61102294921875,-3.66387939453125
1713358343080497400,6.356497314453125,0.9974212646484375,-4.5559539794921875,-4.05413818359375
1713358343090476800,6.366476806640625,0.4491424560546875,-4.6182098388671875,-3.8075408935546875
1713358343100456000,6.3764560546875,0.4132232666015625,-4.9605712890625,-3.08209228515625
1713358343110404600,6.386404541015625,0.2959136962890625,-5.55194091796875,-2.4596099853515625
1713358343120384000,6.396384033203125,0.0373382568359375,-6.3085174560546875,-2.114837646484375
1713358343130363100,6.406363037109375,-0.3313751220703125,-7.16802978515625,-2.17230224609375
1713358343140312000,6.41631201171875,-0.6234588623046875,-7.8455963134765625,-2.18426513671875
1713358343150291200,6.426291259765625,-0.4055938720703125,-8.250213623046875,-1.777252197265625
1713358343160270300,6.436270263671875,0.319854736328125,-8.585403442382812,-1.0302581787109375
1713358343170249700,6.446249755859375,1.081207275390625,-9.092971801757812,-0.12286376953125
1713358343180198400,6.456198486328125,1.830596923828125,-9.624481201171875,1.19635009765625
1713358343190177800,6.466177734375,2.3501434326171875,-9.854324340820312,2.819610595703125
1713358343200157000,6.476156982421875,2.474639892578125,-9.8399658203125,4.5769500732421875
1713358343210105600,6.486105712890625,2.019744873046875,-9.775314331054688,6.4564056396484375
1713358343220085000,6.4960849609375,1.2942962646484375,-9.885452270507812,8.103622436523438
1713358343230064000,6.506064208984375,1.12908935546875,-10.333160400390625,8.53936767578125
1713358343240012800,6.5160126953125,1.354156494140625,-11.41534423828125,6.580902099609375
1713358343249992200,6.5259921875,1.545684814453125,-13.246902465820312,3.6312408447265625
1713358343259971300,6.535971435546875,2.7571563720703125,-15.308319091796875,0.9784698486328125
1713358343269920000,6.545919921875,2.675750732421875,-17.44873046875,-2.284820556640625
1713358343279899400,6.5558994140625,4.2655029296875,-18.35614013671875,-5.780364990234375
1713358343289878500,6.56587841796875,3.2623291015625,-16.692169189453125,-8.528900146484375
1713358343299827500,6.575827392578125,-1.138214111328125,-13.984329223632812,-7.8968353271484375
1713358343309806600,6.585806640625,-0.1901092529296875,-14.355422973632812,-3.944000244140625
1713358343319785700,6.59578564453125,0.1474761962890625,-15.363388061523438,-2.03582763671875
1713358343329734700,6.605734619140625,-3.884368896484375,-17.0465087890625,-2.8307037353515625
1713358343339713800,6.6157138671875,-5.4980621337890625,-20.589920043945312,-0.613677978515625
1713358343349693000,6.62569287109375,-7.789306640625,-18.2723388671875,3.3559112548828125
1713358343359641900,6.635641845703125,-9.345535278320312,-13.088897705078125,4.1483917236328125
1713358343369621000,6.64562109375,-7.0423126220703125,-10.797637939453125,4.1364288330078125
1713358343379600400,6.655600341796875,-4.6121978759765625,-8.56146240234375,3.62646484375
1713358343389549000,6.665549072265625,-2.0001220703125,-6.064300537109375,2.3455657958984375
1713358343399528200,6.675528076171875,-0.0847625732421875,-4.4434356689453125,1.8810882568359375
1713358343409507600,6.685507568359375,0.75799560546875,-3.5743255615234375,1.7398223876953125
1713358343419456300,6.695456298828125,3.3389434814453125,-3.6054534912109375,-0.074981689453125
1713358343429435400,6.705435302734375,2.3333740234375,-4.668487548828125,0.253021240234375
1713358343439414800,6.715414794921875,0.27197265625,-6.5144195556640625,0.5139923095703125
1713358343449394000,6.725393798828125,0.635894775390625,-8.506393432617188,-1.5067138671875
1713358343459373300,6.735373291015625,0.68377685546875,-10.098526000976562,-4.9806976318359375
1713358343469322000,6.745322021484375,-0.714447021484375,-11.264511108398438,-8.179351806640625
1713358343479301000,6.755301025390625,-1.5212860107421875,-12.34429931640625,-10.554397583007812
1713358343489250000,6.76525,-1.8229522705078125,-12.258102416992188,-9.797836303710938
1713358343499229200,6.775229248046875,-1.93548583984375,-9.94769287109375,-5.7516326904296875
1713358343509208300,6.785208251953125,-0.57318115234375,-6.80889892578125,-4.7628173828125
1713358343519157200,6.7951572265625,1.05487060546875,-4.46258544921875,-4.2839813232421875
1713358343529136400,6.805136474609375,2.0987396240234375,-3.2822418212890625,-4.2528533935546875
1713358343539115800,6.81511572265625,2.3309783935546875,-3.0906982421875,-4.566497802734375
1713358343549064400,6.825064453125,1.3900604248046875,-3.543212890625,-4.59283447265625
1713358343559043600,6.835043701171875,-0.1853179931640625,-4.7714385986328125,-3.5657196044921875
1713358343569023000,6.84502294921875,-1.042449951171875,-6.3899078369140625,-1.81317138671875
1713358343578971600,6.8549716796875,-1.23876953125,-8.259780883789062,-0.074981689453125
1713358343588950800,6.86495068359375,-0.7623291015625,-10.191909790039062,1.392669677734375
1713358343598930200,6.87493017578125,-0.156585693359375,-11.867843627929688,2.39105224609375
1713358343608878800,6.88487890625,-0.0272979736328125,-12.748916625976562,2.82440185546875
1713358343618858000,6.89485791015625,-0.54205322265625,-12.150360107421875,2.7406005859375
1713358343628837400,6.90483740234375,-1.6122589111328125,-10.713836669921875,2.268951416015625
1713358343638786000,6.9147861328125,-2.25390625,-9.200714111328125,1.888275146484375
1713358343648765400,6.924765380859375,-2.00970458984375,-7.86474609375,1.782928466796875
1713358343658744600,6.93474462890625,-1.8516845703125,-7.321258544921875,0.8827056884765625
1713358343668693200,6.944693359375,-2.3568572998046875,-7.517578125,0.0758514404296875
1713358343678672600,6.954672607421875,-1.9187164306640625,-8.120925903320312,-0.467620849609375
1713358343688651800,6.96465185546875,-1.54522705078125,-8.396255493164062,0.245849609375
1713358343698600400,6.974600341796875,-1.2818603515625,-8.693130493164062,1.5650482177734375
1713358343708579800,6.984579833984375,0.056488037109375,-9.586166381835938,1.6751861572265625
1713358343718559000,6.99455908203125,1.217681884765625,-10.112899780273438,0.971282958984375
1713358343728538400,7.004538330078125,2.9750213623046875,-10.103317260742188,0.0782470703125
1713358343738487000,7.014487060546875,4.6701202392578125,-9.578994750976562,-0.139617919921875
1713358343748466200,7.024466064453125,4.904754638671875,-8.832000732421875,-0.1946868896484375
1713358343758445600,7.034445556640625,3.954254150390625,-8.475265502929688,0.4828643798828125
1713358343768394200,7.044394287109375,3.087554931640625,-8.185562133789062,2.4940032958984375
1713358343778373400,7.054373291015625,2.3668975830078125,-8.480056762695312,4.4165496826171875
1713358343788352800,7.064352783203125,1.4523162841796875,-9.495193481445312,5.429290771484375
1713358343798301400,7.074301513671875,0.8130645751953125,-10.902984619140625,4.5817413330078125
1713358343808280600,7.084280517578125,-0.0751953125,-12.499923706054688,3.135650634765625
1713358343818260000,7.094260009765625,-0.7431640625,-13.960372924804688,1.519561767578125
1713358343828208600,7.104208740234375,-1.4638214111328125,-14.73370361328125,0.071075439453125
1713358343838188000,7.11418798828125,-2.1078643798828125,-14.637939453125,-0.1683502197265625
1713358343848167200,7.124167236328125,-2.5890960693359375,-13.404922485351562,-0.01751708984375
1713358343858115800,7.13411572265625,-2.6561431884765625,-11.7960205078125,-0.244964599609375
1713358343868095200,7.14409521484375,-3.0847015380859375,-9.823196411132812,-0.75732421875
1713358343878074400,7.154074462890625,-4.0399932861328125,-8.027542114257812,-1.1188507080078125
1713358343888023000,7.16402294921875,-3.958587646484375,-7.1752166748046875,-1.9424591064453125
1713358343898002400,7.17400244140625,-3.4605865478515625,-7.39068603515625,-4.38214111328125
1713358343907981600,7.183981689453125,-3.5348052978515625,-8.369918823242188,-7.7436065673828125
1713358343917930200,7.19393017578125,-3.78619384765625,-10.606109619140625,-11.5240478515625
1713358343927909600,7.20390966796875,-3.199615478515625,-13.974746704101562,-14.20794677734375
1713358343937888800,7.213888671875,-2.0695648193359375,-17.8389892578125,-16.264572143554688
1713358343947837700,7.223837646484375,-1.581146240234375,-20.577957153320312,-16.46807861328125
1713358343957816800,7.23381689453125,-2.4550323486328125,-20.254730224609375,-12.582290649414062
1713358343967796000,7.2437958984375,-3.577911376953125,-16.87890625,-5.7300872802734375
1713358343977745000,7.253744873046875,-5.8691558837890625,-14.539779663085938,-1.4372711181640625
1713358343987724000,7.26372412109375,-10.130828857421875,-13.773635864257812,1.0143890380859375
1713358343997703400,7.273703369140625,-11.608062744140625,-13.4432373046875,2.8962249755859375
1713358344007652000,7.283652099609375,-9.675933837890625,-12.966781616210938,5.5897064208984375
1713358344017631200,7.29363134765625,-8.086181640625,-11.527877807617188,7.71575927734375
1713358344027610600,7.303610595703125,-6.76458740234375,-9.363510131835938,9.774765014648438
1713358344037589800,7.31358984375,-5.21075439453125,-7.797698974609375,8.082061767578125
1713358344047538400,7.323538330078125,-1.7798614501953125,-6.306121826171875,5.80517578125
1713358344057517800,7.333517822265625,2.70208740234375,-5.3484344482421875,5.4676055908203125
1713358344067497000,7.3434970703125,5.1345977783203125,-5.3077392578125,3.621673583984375
1713358344077445600,7.353445556640625,5.941436767578125,-5.092254638671875,1.9241790771484375
1713358344087425000,7.363425048828125,4.8927764892578125,-5.06591796875,0.0327606201171875
1713358344097404200,7.373404052734375,3.7459564208984375,-4.8791656494140625,-1.2409515380859375
1713358344107353000,7.38335302734375,2.982208251953125,-4.7498931884765625,-2.684661865234375
1713358344117332200,7.393332275390625,2.326202392578125,-4.1441497802734375,-3.6183929443359375
1713358344127311400,7.403311279296875,1.8066558837890625,-3.4665985107421875,-4.2935638427734375
1713358344137260300,7.41326025390625,1.3804931640625,-2.978179931640625,-4.19061279296875
1713358344147239400,7.423239501953125,0.8298187255859375,-3.0188751220703125,-3.287994384765625
1713358344157218600,7.433218505859375,0.3533782958984375,-3.603057861328125,-2.0885009765625
1713358344167167500,7.44316748046875,0.04931640625,-4.47454833984375,-1.2816619873046875
1713358344177146600,7.453146728515625,-0.0272979736328125,-5.7027740478515625,-1.164337158203125
1713358344187126000,7.4631259765625,0.078033447265625,-7.0698699951171875,-1.1356048583984375
1713358344197074700,7.47307470703125,0.3270416259765625,-8.594970703125,-1.10687255859375
1713358344207053800,7.4830537109375,0.762786865234375,-10.048248291015625,-0.6687469482421875
1713358344217033200,7.493033203125,1.1769866943359375,-11.163955688476562,0.6600494384765625
1713358344226982000,7.50298193359375,1.5217437744140625,-12.1551513671875,2.5514678955078125
1713358344236961000,7.5129609375,1.926361083984375,-12.485549926757812,4.5865325927734375
1713358344246940400,7.5229404296875,1.65582275390625,-12.195846557617188,5.80517578125
1713358344256889000,7.53288916015625,0.753204345703125,-12.0067138671875,6.53302001953125
1713358344266868200,7.5428681640625,-0.02252197265625,-12.23895263671875,6.68145751953125
1713358344276847600,7.55284765625,0.1857757568359375,-12.655532836914062,5.6902618408203125
1713358344286796300,7.56279638671875,-0.156585693359375,-13.615615844726562,4.07177734375
1713358344296775700,7.572775634765625,-1.1501922607421875,-14.084884643554688,2.2881011962890625
1713358344306754800,7.5827548828125,0.4802703857421875,-14.372177124023438,0.0231781005859375
1713358344316734000,7.59273388671875,2.3501434326171875,-14.918060302734375,-2.6248016357421875
1713358344326683000,7.602682861328125,3.9303131103515625,-14.422454833984375,-5.780364990234375
1713358344336662000,7.612662109375,3.6884918212890625,-13.067337036132812,-7.803466796875
1713358344346641400,7.622641357421875,1.1889495849609375,-13.663497924804688,-5.8473968505859375
1713358344356590000,7.632590087890625,2.0245208740234375,-15.8206787109375,-3.012664794921875
1713358344366569200,7.6425693359375,1.80426025390625,-16.766387939453125,-2.969573974609375
1713358344376548600,7.652548583984375,-3.103851318359375,-17.108749389648438,-4.439605712890625
1713358344386497300,7.662497314453125,-9.386245727539062,-17.340988159179688,-4.968719482421875
1713358344396476400,7.672476318359375,-11.845077514648438,-14.420074462890625,-3.0150604248046875
1713358344406455800,7.682455810546875,-8.799667358398438,-11.005935668945312,1.31365966796875
1713358344416404500,7.692404541015625,-3.7143707275390625,-9.653213500976562,5.2784576416015625
1713358344426383600,7.702383544921875,-0.6450042724609375,-8.17120361328125,6.60723876953125
1713358344436363000,7.712363037109375,-0.515716552734375,-6.5407562255859375,5.13720703125
1713358344446311700,7.722311767578125,-0.8126068115234375,-5.1114044189453125,3.2864837646484375
1713358344456291000,7.732291015625,-0.989776611328125,-4.213592529296875,1.636871337890625
1713358344466270200,7.742270263671875,0.1594390869140625,-4.0819091796875,0.4373779296875
1713358344476219000,7.752218994140625,3.7459564208984375,-5.9398040771484375,-1.1715240478515625
1713358344486198300,7.7621982421875,0.3773193359375,-7.2709808349609375,-2.411712646484375
1713358344496177400,7.772177490234375,-1.50213623046875,-8.4896240234375,-4.396514892578125
1713358344506126000,7.7821259765625,-3.27862548828125,-10.225418090820312,-7.1259002685546875
1713358344516105500,7.79210546875,-3.103851318359375,-11.389007568359375,-8.521728515625
1713358344526084600,7.802084716796875,-1.35369873046875,-11.448867797851562,-7.7747344970703125
1713358344536033300,7.812033203125,-0.398406982421875,-10.290069580078125,-4.7747955322265625
1713358344546012700,7.8220126953125,0.078033447265625,-7.553497314453125,-3.814727783203125
1713358344555961300,7.83196142578125,0.446746826171875,-5.018035888671875,-3.5800933837890625
1713358344565940700,7.841940673828125,1.37091064453125,-3.25830078125,-3.271240234375
1713358344575919900,7.851919921875,1.8760833740234375,-2.6741180419921875,-3.6495208740234375
1713358344585899000,7.86189892578125,1.5648345947265625,-3.1505584716796875,-3.637542724609375
1713358344595848000,7.871847900390625,0.5113983154296875,-4.1369781494140625,-2.6702880859375
1713358344605827000,7.8818271484375,-0.582763671875,-5.566314697265625,-0.814788818359375
1713358344615806200,7.89180615234375,-0.96343994140625,-7.53912353515625,1.055084228515625
1713358344625785600,7.90178564453125,-0.5947265625,-9.674758911132812,2.8650970458984375
1713358344635734300,7.911734375,-0.2787017822265625,-11.568572998046875,3.861083984375
1713358344645713700,7.921713623046875,-0.5229034423828125,-12.569351196289062,3.7725067138671875
1713358344655692800,7.93169287109375,-1.4925537109375,-12.267684936523438,3.03509521484375
1713358344665641500,7.941641357421875,-2.47418212890625,-11.269302368164062,2.1660003662109375
1713358344675620900,7.951620849609375,-3.0152740478515625,-10.299652099609375,1.3591461181640625
1713358344685600000,7.96160009765625,-3.2139892578125,-9.744186401367188,0.5403289794921875
1713358344695548700,7.971548583984375,-3.1852569580078125,-9.648422241210938,-0.3383331298828125
1713358344705528000,7.981528076171875,-3.2762298583984375,-9.954879760742188,-0.76690673828125
1713358344715507200,7.991507080078125,-2.74951171875,-10.314010620117188,-0.9297027587890625
1713358344725456000,8.001455810546876,-1.370452880859375,-10.424148559570312,-0.826751708984375
1713358344735435300,8.011435302734375,-0.3600921630859375,-10.333160400390625,-0.7597198486328125
1713358344745414400,8.021414306640626,2.0364990234375,-9.911788940429688,-1.5354461669921875
1713358344755363300,8.03136328125,5.127410888671875,-9.109725952148438,-2.464385986328125
1713358344765342500,8.041342529296875,7.267822265625,-8.243026733398438,-2.845062255859375
1713358344775321600,8.051321533203126,8.103408813476562,-6.9908599853515625,-1.983154296875
1713358344785270500,8.0612705078125,5.8648223876953125,-6.0020599365234375,-0.1635589599609375
1713358344795249700,8.071249755859375,2.8625030517578125,-5.4801177978515625,2.4054107666015625
1713358344805198300,8.0811982421875,1.7108917236328125,-6.2103424072265625,4.8714447021484375
1713358344815177700,8.091177734375,1.3948516845703125,-8.377105712890625,6.243316650390625
1713358344825156900,8.101156982421875,0.5880126953125,-11.147186279296875,5.5466156005859375
1713358344835105500,8.11110546875,-0.135040283203125,-13.754486083984375,3.621673583984375
1713358344845085000,8.1210849609375,-0.218841552734375,-15.87335205078125,2.0917816162109375
1713358344855064000,8.13106396484375,0.044525146484375,-16.725677490234375,2.0989532470703125
1713358344865043500,8.14104345703125,-1.3584747314453125,-15.49267578125,3.315216064453125
1713358344874992000,8.1509921875,-2.574737548828125,-13.055374145507812,3.157196044921875
1713358344884971300,8.16097119140625,-2.8835906982421875,-10.642013549804688,2.1133270263671875
1713358344894950700,8.17095068359375,-3.3959503173828125,-8.640457153320312,1.5746307373046875
1713358344904929800,8.1809296875,-4.5379791259765625,-7.431396484375,0.8204498291015625
1713358344914878700,8.190878662109375,-4.3632049560546875,-6.7203216552734375,-0.6759185791015625
1713358344924857900,8.20085791015625,-3.506072998046875,-6.72509765625,-3.0294189453125
1713358344934837000,8.2108369140625,-3.7981719970703125,-7.6947479248046875,-5.3302459716796875
1713358344944786000,8.220785888671875,-4.224334716796875,-9.358718872070312,-7.396453857421875
1713358344954765000,8.23076513671875,-4.3488311767578125,-12.246139526367188,-10.638198852539062
1713358344964744400,8.240744384765625,-3.271453857421875,-16.129531860351562,-14.6197509765625
1713358344974693000,8.250693115234375,-1.454254150390625,-20.084747314453125,-16.9852294921875
1713358344984672300,8.26067236328125,-1.4518585205078125,-21.985748291015625,-16.413009643554688
1713358344994651600,8.270651611328125,-2.9530181884765625,-19.780685424804688,-10.336532592773438
1713358345004600300,8.280600341796875,-4.921051025390625,-16.828628540039062,-4.5114288330078125
1713358345014579500,8.290579345703126,-7.731842041015625,-15.286773681640625,-1.006317138671875
1713358345024558800,8.300558837890625,-9.041473388671875,-14.156707763671875,1.402252197265625
1713358345034507500,8.310507568359375,-8.804443359375,-12.569351196289062,3.1548004150390625
1713358345044486700,8.320486572265626,-8.1173095703125,-10.65399169921875,5.884185791015625
1713358345054466000,8.330466064453125,-7.70550537109375,-8.123321533203125,9.367752075195312
1713358345064414700,8.340414794921875,-6.6712188720703125,-6.1720428466796875,8.891311645507812
1713358345074393900,8.350393798828126,-3.5970611572265625,-4.56793212890625,6.6455535888671875
1713358345084342800,8.3603427734375,1.7803192138671875,-3.6269989013671875,5.778839111328125
1713358345094322000,8.370322021484375,4.87841796875,-3.739532470703125,3.69110107421875
1713358345104301300,8.38030126953125,6.0012969970703125,-4.062744140625,1.9600982666015625
1713358345114250000,8.39025,5.0244598388671875,-4.225555419921875,0.559478759765625
1713358345124229000,8.40022900390625,3.2383880615234375,-4.1752777099609375,-0.594512939453125
1713358345134208500,8.41020849609375,2.23760986328125,-4.409912109375,-2.701416015625
1713358345144157200,8.4201572265625,1.9622802734375,-4.35723876953125,-3.57769775390625
1713358345154136300,8.43013623046875,1.8066558837890625,-4.32611083984375,-3.197021484375
1713358345164115700,8.44011572265625,1.533721923828125,-4.795379638671875,-2.89056396484375
1713358345174094800,8.4500947265625,0.743621826171875,-5.46575927734375,-2.3614349365234375
1713358345184074200,8.46007421875,-0.4391021728515625,-6.23907470703125,-1.64556884765625
1713358345194023000,8.47002294921875,-0.8437347412109375,-7.045928955078125,-1.3271484375
1713358345204002000,8.480001953125,-0.3074188232421875,-8.1185302734375,-1.185882568359375
1713358345213951000,8.489950927734375,0.6502532958984375,-9.24859619140625,-0.6639556884765625
1713358345223930000,8.49993017578125,1.375701904296875,-10.254150390625,0.1955718994140625
1713358345233909200,8.5099091796875,1.7180633544921875,-10.847915649414062,1.2370452880859375
1713358345243858200,8.519858154296875,1.6318817138671875,-11.008331298828125,2.956085205078125
1713358345253837300,8.52983740234375,1.5696258544921875,-10.816787719726562,5.1683197021484375
1713358345263816700,8.539816650390625,1.598358154296875,-10.72821044921875,6.6192169189453125
1713358345273765400,8.549765380859375,1.48822021484375,-10.764114379882812,7.5936431884765625
1713358345283744500,8.55974462890625,1.133880615234375,-11.377029418945312,6.9591827392578125
1713358345293724000,8.569723876953125,0.669403076171875,-12.466400146484375,4.3686676025390625
1713358345303672600,8.579672607421875,-2.5100860595703125,-14.460769653320312,1.3471832275390625
1713358345313651700,8.589651611328126,-3.431854248046875,-16.605972290039062,-1.4013671875
1713358345323631000,8.599631103515625,-1.24835205078125,-18.447113037109375,-5.0501251220703125
1713358345333579800,8.609579833984375,5.385986328125,-18.933135986328125,-9.256744384765625
1713358345343559000,8.619558837890626,8.124954223632812,-15.1885986328125,-9.860076904296875
1713358345353538300,8.629538330078125,3.2647247314453125,-11.666732788085938,-7.03253173828125
1713358345363487000,8.639487060546875,1.4259796142578125,-11.942062377929688,-3.2281341552734375
1713358345373466400,8.64946630859375,2.15380859375,-13.0218505859375,-0.249755859375
1713358345383445500,8.659445556640625,-1.1310272216796875,-14.156707763671875,-1.585723876953125
1713358345393394200,8.669394287109375,-5.533966064453125,-17.657028198242188,-4.829864501953125
1713358345403373600,8.67937353515625,-9.091751098632812,-19.447891235351562,-3.65191650390625
1713358345413352700,8.689352783203125,-9.999160766601562,-13.491119384765625,-0.201873779296875
1713358345423301400,8.69930126953125,-6.9417572021484375,-9.732223510742188,3.3990020751953125
1713358345433280800,8.70928076171875,-4.0040740966796875,-7.728271484375,4.8283538818359375
1713358345443260000,8.719260009765625,-1.5907135009765625,-5.7769927978515625,4.8881988525390625
1713358345453239300,8.7292392578125,0.013397216796875,-4.62060546875,4.4237213134765625
1713358345463218400,8.739218505859375,0.6861724853515625,-4.409912109375,4.60089111328125
1713358345473167000,8.7491669921875,0.257598876953125,-4.98211669921875,3.135650634765625
1713358345483146500,8.759146484375,0.3892822265625,-5.3316802978515625,1.17718505859375
1713358345493095200,8.76909521484375,0.827423095703125,-6.095428466796875,-0.63043212890625
1713358345503074300,8.77907421875,0.7651824951171875,-8.221481323242188,-3.2209625244140625
1713358345513053700,8.7890537109375,-0.656982421875,-10.16796875,-5.6247406005859375
1713358345523002400,8.79900244140625,-1.8971710205078125,-11.649978637695312,-8.0380859375
1713358345532981500,8.8089814453125,-1.4997406005859375,-12.511886596679688,-8.150619506835938
1713358345542961000,8.8189609375,-1.00653076171875,-12.241348266601562,-5.938385009765625
1713358345552909600,8.82890966796875,-0.7766876220703125,-10.385833740234375,-4.798736572265625
1713358345562889000,8.838888916015625,-0.113494873046875,-7.40985107421875,-4.0349884033203125
1713358345572868000,8.8488681640625,-0.02252197265625,-5.1042327880859375,-2.9623870849609375
1713358345582816800,8.858816650390626,-0.3433380126953125,-3.9789581298828125,-3.256866455078125
1713358345592796200,8.868796142578125,-0.3433380126953125,-3.7634735107421875,-3.8721771240234375
1713358345602775300,8.878775390625,-0.1470184326171875,-4.1704864501953125,-4.26483154296875
1713358345612724000,8.888723876953126,-0.69049072265625,-5.240692138671875,-3.94879150390625
1713358345622703400,8.898703369140625,-1.1956787109375,-6.7682037353515625,-3.2688446044921875
1713358345632682500,8.9086826171875,-1.1046905517578125,-8.1927490234375,-1.9232940673828125
1713358345642631200,8.918631103515626,-0.388824462890625,-9.164794921875,0.188385009765625
1713358345652610600,8.928610595703125,0.36773681640625,-9.823196411132812,1.9983978271484375
1713358345662589700,8.938589599609376,0.49462890625,-10.261337280273438,3.4301300048828125
1713358345672538600,8.94853857421875,0.183380126953125,-10.522308349609375,4.0789642333984375
1713358345682517800,8.958517822265625,-0.5635986328125,-10.304428100585938,4.141204833984375
1713358345692497000,8.968496826171876,-1.2148284912109375,-9.669967651367188,3.770111083984375
1713358345702445800,8.97844580078125,-1.760711669921875,-9.468856811523438,2.723846435546875
1713358345712425000,8.988425048828125,-2.3616485595703125,-10.235000610351562,0.8994598388671875
1713358345722404400,8.998404296875,-2.933868408203125,-10.962844848632812,-0.721405029296875
1713358345732383500,9.008383544921875,-3.156524658203125,-11.1519775390625,-1.37982177734375
1713358345742332200,9.018332275390625,-2.512481689453125,-10.670745849609375,-0.55621337890625
1713358345752311600,9.0283115234375,-0.5061492919921875,-10.031494140625,0.691162109375
1713358345762290700,9.038290771484375,1.87847900390625,-9.358718872070312,0.97607421875
1713358345772239400,9.0482392578125,4.2032470703125,-8.729049682617188,1.1436767578125
1713358345782218800,9.05821875,5.771453857421875,-7.8096771240234375,1.756591796875
1713358345792198000,9.068197998046875,6.235931396484375,-6.9764862060546875,1.5698394775390625
1713358345802146600,9.078146484375,3.765106201171875,-6.2295074462890625,1.5698394775390625
1713358345812126000,9.0881259765625,1.069244384765625,-6.179229736328125,2.1300811767578125
1713358345822105000,9.09810498046875,-0.261932373046875,-7.522369384765625,3.1117095947265625
1713358345832054000,9.108053955078125,-0.8245697021484375,-10.091354370117188,3.00396728515625
1713358345842033200,9.118033203125,-1.255523681640625,-12.320358276367188,1.900238037109375
1713358345852012300,9.12801220703125,-0.8461151123046875,-13.850250244140625,0.980865478515625
1713358345861961200,9.137961181640625,0.573638916015625,-14.525405883789062,1.277740478515625
1713358345871940400,9.1479404296875,0.482666015625,-14.259658813476562,2.60174560546875
1713358345881919500,9.15791943359375,-0.2739105224609375,-13.378585815429688,3.1500091552734375
1713358345891868400,9.167868408203125,-0.831756591796875,-11.915725708007812,2.41259765625
1713358345901847600,9.17784765625,-1.952239990234375,-10.280487060546875,1.4860382080078125
1713358345911827000,9.187826904296875,-3.6808624267578125,-9.004379272460938,1.0215606689453125
1713358345921775600,9.197775634765625,-4.26983642578125,-7.9269866943359375,0.4014739990234375
1713358345931754800,9.207754638671876,-3.4965057373046875,-7.0962066650390625,-1.63360595703125
1713358345941734100,9.217734130859375,-3.3648223876953125,-7.448150634765625,-3.8242950439453125
1713358345951682800,9.227682861328125,-4.1836395263671875,-9.152816772460938,-6.8194427490234375
1713358345961662000,9.237661865234376,-4.3368682861328125,-12.813552856445312,-10.41314697265625
1713358345971641300,9.247641357421875,-2.964996337890625,-17.750396728515625,-14.435394287109375
1713358345981590000,9.257590087890625,-1.348907470703125,-21.873214721679688,-17.219863891601562
1713358345991569200,9.267569091796876,-1.5428314208984375,-22.474166870117188,-15.299713134765625
1713358346001548500,9.277548583984375,-3.8891448974609375,-18.597946166992188,-7.504180908203125
1713358346011497200,9.287497314453125,-6.1181488037109375,-15.329864501953125,-1.13800048828125
1713358346021476600,9.2974765625,-8.938522338867188,-13.89813232421875,1.3160552978515625
1713358346031455700,9.307455810546875,-9.869873046875,-12.669906616210938,2.395843505859375
1713358346041435000,9.317434814453126,-9.091751098632812,-11.137619018554688,3.9664306640625
1713358346051383800,9.3273837890625,-8.045486450195312,-9.255767822265625,6.2552947998046875
1713358346061363000,9.337363037109375,-6.58502197265625,-7.1919708251953125,7.9575653076171875
1713358346071342300,9.34734228515625,-5.091033935546875,-6.116973876953125,6.06854248046875
1713358346081291000,9.357291015625,-0.7335968017578125,-4.7618560791015625,3.427734375
1713358346091270100,9.367270263671875,4.662933349609375,-4.50567626953125,2.7693328857421875
1713358346101249500,9.37724951171875,5.2926177978515625,-5.2478790283203125,1.2681732177734375
1713358346111198200,9.3871982421875,4.5216827392578125,-5.219146728515625,0.0902252197265625
1713358346121177300,9.39717724609375,3.5472412109375,-5.3364715576171875,-1.248138427734375
1713358346131156700,9.40715673828125,2.6685638427734375,-5.4873046875,-2.2967987060546875
1713358346141105400,9.41710546875,2.3333740234375,-5.647705078125,-2.9839324951171875
1713358346151084500,9.42708447265625,2.072418212890625,-5.3939208984375,-2.916900634765625
1713358346161064000,9.43706396484375,1.4594879150390625,-5.2909698486328125,-2.653533935546875
1713358346171012600,9.4470126953125,0.6119537353515625,-5.3963165283203125,-2.526641845703125
1713358346180992000,9.456991943359375,-0.2116546630859375,-5.5639190673828125,-1.935272216796875
1713358346190971100,9.46697119140625,-1.0185089111328125,-6.1193695068359375,-1.1619415283203125
1713358346200919800,9.476919921875,-0.86767578125,-6.94537353515625,-0.5969085693359375
1713358346210899200,9.486899169921875,0.130706787109375,-7.4026641845703125,-0.539459228515625
1713358346220878300,9.49687841796875,1.0788116455078125,-7.776153564453125,-0.5969085693359375
1713358346230827000,9.506826904296876,1.65582275390625,-8.156829833984375,-0.3167877197265625
1713358346240806400,9.516806396484375,1.9694671630859375,-8.345977783203125,0.3918914794921875
1713358346250785500,9.52678564453125,2.074798583984375,-8.343582153320312,1.7757415771484375
1713358346260734200,9.536734130859376,2.316619873046875,-8.238235473632812,3.664764404296875
1713358346270713600,9.546713623046875,2.378875732421875,-8.233444213867188,5.280853271484375
1713358346280692700,9.556692626953126,1.9862213134765625,-8.666793823242188,6.7053985595703125
1713358346290641700,9.5666416015625,1.8904571533203125,-9.739395141601562,7.4978790283203125
1713358346300620800,9.576620849609375,0.9974212646484375,-11.930099487304688,5.6639251708984375
1713358346310600000,9.586599853515626,-1.4255218505859375,-14.417678833007812,2.810028076171875
1713358346320579300,9.596579345703125,-3.4246826171875,-16.816665649414062,1.19635009765625
1713358346330558500,9.606558349609376,-2.3831939697265625,-18.545272827148438,-1.48516845703125
1713358346340507100,9.616507080078126,1.1937408447265625,-19.505355834960938,-6.0006256103515625
1713358346350486500,9.626486572265625,3.3030242919921875,-16.167831420898438,-5.89288330078125
1713358346360465700,9.636465576171876,2.4842071533203125,-10.546249389648438,-3.065338134765625
1713358346370414600,9.64641455078125,4.097900390625,-7.7737579345703125,0.3128814697265625
1713358346380393700,9.656393798828125,3.8680572509765625,-7.0028228759765625,4.119659423828125
1713358346390372900,9.666372802734376,3.6071014404296875,-8.580612182617188,6.454010009765625
1713358346400321800,9.67632177734375,1.6031494140625,-13.239730834960938,7.1483306884765625
1713358346410301000,9.686301025390625,-2.8309173583984375,-22.249099731445312,1.8547515869140625
1713358346420249600,9.69624951171875,-14.291961669921875,-31.684661865234375,-4.7101593017578125
1713358346430229000,9.70622900390625,-26.705902099609375,-30.753311157226562,-11.44024658203125
1713358346440208100,9.7162080078125,-10.027877807617188,-18.131072998046875,-12.448211669921875
1713358346450156800,9.72615673828125,2.2184600830078125,-7.950927734375,-4.0780792236328125
1713358346460136200,9.73613623046875,5.6685028076171875,-2.5591888427734375,-0.968017578125
1713358346470115300,9.746115234375,2.137054443359375,-1.4602508544921875,1.682373046875
1713358346480064300,9.756064208984375,-0.49896240234375,-1.93670654296875,3.094940185546875
1713358346490043400,9.76604345703125,-0.4151611328125,-1.87445068359375,2.6424407958984375
1713358346500022500,9.7760224609375,0.556884765625,-2.06597900390625,2.163604736328125
1713358346509971500,9.785971435546875,0.7077178955078125,-3.485748291015625,1.0526885986328125
1713358346519950600,9.79595068359375,0.2528228759765625,-5.0347900390625,-1.983154296875
1713358346529930000,9.805929931640625,-1.6050872802734375,-6.2462615966796875,-5.8306427001953125
1713358346539878700,9.815878662109375,-3.05596923828125,-8.116134643554688,-8.967041015625
1713358346549857800,9.82585791015625,-1.561981201171875,-11.408157348632812,-10.944656372070312
1713358346559837200,9.835837158203125,0.6646270751953125,-14.910873413085938,-10.168930053710938
1713358346569785900,9.845785888671875,0.7771453857421875,-14.190231323242188,-8.763534545898438
1713358346579765000,9.855764892578126,0.0062103271484375,-10.110504150390625,-6.922393798828125
1713358346589744400,9.865744384765625,1.047698974609375,-6.79931640625,-1.966400146484375
1713358346599723500,9.8757236328125,2.6470184326171875,-4.6708831787109375,0.1285247802734375
1713358346609703000,9.885702880859375,2.8888397216796875,-3.9430389404296875,0.0854339599609375
1713358346619651600,9.895651611328125,1.794677734375,-4.2399139404296875,0.45892333984375
1713358346629630700,9.905630615234376,0.192962646484375,-5.5160369873046875,1.361541748046875
1713358346639579600,9.91557958984375,-1.116668701171875,-7.232666015625,1.900238037109375
1713358346649558800,9.925558837890625,-2.2084197998046875,-9.169586181640625,2.058258056640625
1713358346659538000,9.935537841796876,-2.3927764892578125,-10.83355712890625,1.6943359375
1713358346669486800,9.94548681640625,-2.2299652099609375,-11.6787109375,1.541107177734375
1713358346679466000,9.955466064453125,-2.1485595703125,-11.860671997070312,1.4214019775390625
1713358346689445400,9.9654453125,-2.1653289794921875,-11.568572998046875,1.170013427734375
1713358346699394000,9.97539404296875,-2.162933349609375,-10.795242309570312,1.361541748046875
1713358346709373200,9.985373291015625,-0.57318115234375,-9.466461181640625,3.1859283447265625
1713358346719352600,9.9953525390625,-1.1334228515625,-8.482452392578125,2.6328582763671875
1713358346729301200,10.00530126953125,0.384490966796875,-7.950927734375,2.321624755859375
1713358346739280400,10.0152802734375,0.3916778564453125,-8.07781982421875,1.5004119873046875
1713358346749259800,10.025259765625,-1.1310272216796875,-8.800872802734375,-0.074981689453125
1713358346759208400,10.03520849609375,-2.328125,-9.262954711914062,-0.87225341796875
1713358346769187600,10.0451875,-2.6106414794921875,-9.497589111328125,-1.116455078125
1713358346779167000,10.0551669921875,-1.9330902099609375,-9.157608032226562,-0.91534423828125
1713358346789115600,10.06511572265625,0.341400146484375,-8.755386352539062,-0.33355712890625
1713358346799094800,10.0750947265625,3.06121826171875,-8.525543212890625,0.0160064697265625
1713358346809074200,10.08507421875,5.000518798828125,-8.132888793945312,-0.01751708984375
1713358346819022800,10.09502294921875,5.919891357421875,-7.5367431640625,-0.233001708984375
1713358346829002200,10.105002197265625,6.068328857421875,-6.95733642578125,0.3128814697265625
1713358346838981400,10.1149814453125,3.9207305908203125,-6.55511474609375,1.361541748046875
1713358346848930000,10.124929931640626,1.1458587646484375,-6.7322845458984375,2.8746795654296875
1713358346858909400,10.134909423828125,0.4012603759765625,-8.216690063476562,4.351898193359375
1713358346868888600,10.144888671875,0.310272216796875,-11.063400268554688,4.282470703125
1713358346878868000,10.154867919921875,0.14508056640625,-13.689834594726562,2.3455657958984375
1713358346888816600,10.164816650390625,0.5257568359375,-15.509429931640625,1.076629638671875
1713358346898795800,10.174795654296876,1.1458587646484375,-16.09600830078125,0.6887664794921875
1713358346908775200,10.184775146484375,1.5480804443359375,-15.18621826171875,1.5171661376953125
1713358346918723800,10.194723876953125,0.0900115966796875,-13.325912475585938,2.9225616455078125
1713358346928703000,10.204702880859376,-1.9115447998046875,-11.05621337890625,2.75018310546875
1713358346938682400,10.214682373046875,-2.66571044921875,-9.148040771484375,2.3048553466796875
1713358346948631000,10.224631103515625,-3.419891357421875,-7.912628173828125,1.8451690673828125
1713358346958610200,10.234610107421876,-3.81732177734375,-7.2518310546875,0.8204498291015625
1713358346968589600,10.244589599609375,-3.1373748779296875,-6.7634124755859375,-1.0182952880859375
1713358346978538200,10.254538330078125,-2.54840087890625,-6.6820068359375,-3.3478546142578125
1713358346988517600,10.264517578125,-2.4286956787109375,-7.3667449951171875,-5.9647064208984375
1713358346998496800,10.274496826171875,-2.871612548828125,-8.925369262695312,-8.80902099609375
1713358347008445400,10.284445556640625,-3.1158294677734375,-12.0809326171875,-11.416305541992188
1713358347018424800,10.2944248046875,-2.2299652099609375,-16.222900390625,-14.514404296875
1713358347028404000,10.304404052734375,-1.4422760009765625,-20.103897094726562,-16.33160400390625
1713358347038352600,10.3143525390625,-1.8804168701171875,-22.227554321289062,-14.160064697265625
1713358347048332000,10.32433203125,-3.4390411376953125,-20.328964233398438,-7.67657470703125
1713358347058311200,10.334311279296875,-6.0918121337890625,-17.355361938476562,-2.6295928955078125
1713358347068259800,10.344259765625,-10.2720947265625,-16.055313110351562,-0.9512481689453125
1713358347078239200,10.3542392578125,-11.600875854492188,-15.222122192382812,0.590606689453125
1713358347088218400,10.36421826171875,-9.836349487304688,-13.594070434570312,2.43414306640625
1713358347098167300,10.374167236328125,-8.565032958984375,-11.889389038085938,4.488372802734375
1713358347108146400,10.384146484375,-6.8148651123046875,-9.995574951171875,6.020660400390625
1713358347118125600,10.39412548828125,-4.8851470947265625,-8.580612182617188,6.137969970703125
1713358347128074500,10.404074462890625,-2.7423248291015625,-7.6396942138671875,5.12762451171875
1713358347138053600,10.4140537109375,0.9088287353515625,-6.813690185546875,4.3375396728515625
1713358347148033000,10.424032958984375,4.7275848388671875,-6.231903076171875,3.906585693359375
1713358347157981700,10.433981689453125,6.06353759765625,-6.064300537109375,2.78131103515625
1713358347167960800,10.4439609375,5.7882080078125,-5.6956024169921875,1.4070281982421875
1713358347177940200,10.453940185546875,4.0691680908203125,-5.609405517578125,0.41583251953125
1713358347187919400,10.46391943359375,2.4698486328125,-5.5902557373046875,-0.4317169189453125
1713358347197868000,10.473867919921876,1.2320404052734375,-5.3436431884765625,-1.6312103271484375
1713358347207847400,10.483847412109375,0.437164306640625,-4.500885009765625,-2.7349395751953125
1713358347217826600,10.49382666015625,0.2863311767578125,-3.5982818603515625,-3.182647705078125
1713358347227775200,10.503775146484376,0.4587249755859375,-3.1194305419921875,-3.0629425048828125
1713358347237754600,10.513754638671875,0.815460205078125,-3.16253662109375,-2.3734130859375
1713358347247733800,10.523733642578126,0.89447021484375,-3.8041839599609375,-1.78204345703125
1713358347257682400,10.533682373046876,0.911224365234375,-4.5272216796875,-1.6407928466796875
1713358347267661800,10.543661865234375,0.8920745849609375,-5.18084716796875,-1.75091552734375
1713358347277641000,10.553640869140626,0.889678955078125,-5.7075653076171875,-1.6671142578125
1713358347287590000,10.56358984375,1.121917724609375,-6.2414703369140625,-1.4995269775390625
1713358347297569000,10.573569091796875,1.3780975341796875,-6.7945404052734375,-1.0925140380859375
1713358347307548200,10.583548095703126,1.524139404296875,-7.479278564453125,-0.1156768798828125
1713358347317497000,10.5934970703125,1.6270904541015625,-8.31964111328125,1.5746307373046875
1713358347327476200,10.603476318359375,1.9000244140625,-9.188735961914062,3.7509613037109375
1713358347337455600,10.61345556640625,2.4578704833984375,-10.096145629882812,6.4516143798828125
1713358347347404300,10.623404296875,2.5201263427734375,-11.654769897460938,8.264022827148438
1713358347357383400,10.633383544921875,1.809051513671875,-13.871795654296875,8.764419555664062
1713358347367362800,10.64336279296875,0.2121124267578125,-16.084030151367188,7.4452056884765625
1713358347377311500,10.6533115234375,-5.4405975341796875,-17.807861328125,3.0757904052734375
1713358347387290600,10.66329052734375,-5.861968994140625,-17.906021118164062,-1.047027587890625
1713358347397270000,10.67327001953125,-1.200469970703125,-16.864547729492188,-4.48748779296875
1713358347407218700,10.68321875,3.99017333984375,-14.918060302734375,-6.996612548828125
1713358347417197800,10.69319775390625,6.674072265625,-12.818344116210938,-7.6286773681640625
1713358347427177200,10.70317724609375,5.8600311279296875,-11.008331298828125,-4.7436676025390625
1713358347437156400,10.71315625,5.0699462890625,-11.240570068359375,0.0543060302734375
1713358347447105300,10.723105224609375,5.350067138671875,-13.208602905273438,3.834747314453125
1713358347457084400,10.73308447265625,4.2631072998046875,-16.119949340820312,4.107696533203125
1713358347467063600,10.7430634765625,-1.813385009765625,-20.340927124023438,0.3128814697265625
1713358347477043000,10.75304296875,-8.684738159179688,-23.292984008789062,-3.66387939453125
1713358347486991600,10.76299169921875,-12.632781982421875,-19.206069946289062,-5.16265869140625
1713358347496971000,10.772970947265625,-12.41729736328125,-13.076919555664062,-3.4699554443359375
1713358347506950100,10.7829501953125,-7.9880218505859375,-10.620468139648438,-0.000762939453125
1713358347516898800,10.79289892578125,-3.357635498046875,-8.903823852539062,2.7382049560546875
1713358347526878200,10.802878173828125,0.288726806640625,-6.6413116455078125,3.844329833984375
1713358347536857300,10.812857421875,1.7013092041015625,-4.9366302490234375,3.98797607421875
1713358347546806000,10.822805908203126,1.8114471435546875,-3.6485595703125,2.5849761962890625
1713358347556785400,10.832785400390625,0.2695770263671875,-2.6549530029296875,0.20513916015625
1713358347566764500,10.8427646484375,-0.8365478515625,-2.5328521728515625,-0.752532958984375
1713358347576713200,10.852713134765626,-1.0041351318359375,-4.2303466796875,-0.7980194091796875
1713358347586692600,10.862692626953125,0.4635009765625,-7.321258544921875,-2.6942291259765625
1713358347596671700,10.872671630859376,-1.15496826171875,-10.031494140625,-5.368560791015625
1713358347606620400,10.882620361328126,-3.146942138671875,-11.855880737304688,-7.5688323974609375
1713358347616599800,10.892599853515625,-3.0009002685546875,-12.708206176757812,-8.368499755859375
1713358347626579000,10.902578857421876,-1.6649322509765625,-11.915725708007812,-7.85614013671875
1713358347636527900,10.91252783203125,0.3964691162109375,-9.468856811523438,-7.7220611572265625
1713358347646507000,10.922507080078125,1.69891357421875,-6.4737091064453125,-6.25201416015625
1713358347656455700,10.93245556640625,2.1083221435546875,-3.962188720703125,-4.40130615234375
1713358347666435000,10.94243505859375,1.957489013671875,-2.3724365234375,-3.0006866455078125
1713358347676414200,10.952414306640625,1.567230224609375,-2.250335693359375,-2.4021453857421875
1713358347686363000,10.96236279296875,1.2104949951171875,-3.50250244140625,-2.294403076171875
1713358347696342300,10.97234228515625,0.595184326171875,-5.7171478271484375,-1.46600341796875
1713358347706321400,10.9823212890625,0.49462890625,-8.544692993164062,-0.1372222900390625
1713358347716300800,10.99230078125,0.47308349609375,-10.948471069335938,1.402252197265625
1713358347726250200,11.002250244140624,0.1211395263671875,-12.61962890625,2.6065216064453125
1713358347736229600,11.012229736328125,-0.6665496826171875,-12.765670776367188,3.7102508544921875
1713358347746208800,11.022208740234374,-2.153350830078125,-11.8271484375,3.686309814453125
1713358347756188200,11.032188232421875,-2.811767578125,-10.419357299804688,3.0925445556640625
1713358347766136800,11.04213671875,-2.4502410888671875,-9.382659912109375,2.2042999267578125
1713358347776116000,11.052115966796874,-1.6529693603515625,-9.183944702148438,1.2945098876953125
1713358347786095400,11.062095458984375,-0.8868255615234375,-9.411392211914062,0.305694580078125
1713358347796044000,11.0720439453125,-0.630645751953125,-9.698699951171875,-0.3574981689453125
1713358347806023400,11.0820234375,-0.822174072265625,-9.823196411132812,-0.053436279296875
1713358347816002600,11.09200244140625,-1.6098785400390625,-10.069808959960938,1.0095977783203125
1713358347825946400,11.1019462890625,-2.32574462890625,-10.103317260742188,1.931365966796875
1713358347835925800,11.11192578125,-1.983367919921875,-9.909393310546875,1.689544677734375
1713358347845905000,11.12190478515625,0.10198974609375,-9.547866821289062,0.652862548828125
1713358347855853600,11.131853515625,2.8481292724609375,-9.013961791992188,-0.074981689453125
1713358347865833000,11.1418330078125,5.560760498046875,-8.630889892578125,-0.276092529296875
1713358347875812000,11.15181201171875,6.860809326171875,-8.243026733398438,0.2745819091796875
1713358347885760800,11.1617607421875,6.1808624267578125,-7.6349029541015625,1.5458984375
1713358347895740200,11.171740234375,3.784271240234375,-6.9788818359375,3.46844482421875
1713358347905719300,11.18171923828125,1.6175079345703125,-6.8424224853515625,4.7445526123046875
1713358347915668000,11.19166796875,0.341400146484375,-8.317245483398438,4.900177001953125
1713358347925647400,11.2016474609375,0.3581695556640625,-11.072967529296875,3.801239013671875
1713358347935626500,11.21162646484375,0.71490478515625,-13.706588745117188,1.8451690673828125
1713358347945575200,11.2215751953125,1.40203857421875,-15.150299072265625,0.60498046875
1713358347955554600,11.231554443359375,2.2136688232421875,-14.776809692382812,0.5499114990234375
1713358347965503200,11.241503173828125,1.821014404296875,-13.366622924804688,1.593780517578125
1713358347975482600,11.251482666015624,0.276763916015625,-11.9013671875,2.070220947265625
1713358347985461800,11.261461669921875,-0.6665496826171875,-10.170364379882812,1.6703948974609375
1713358347995410400,11.271410400390625,-1.2842559814453125,-8.355560302734375,0.77496337890625
1713358348005389800,11.281389892578124,-2.8548583984375,-6.9597320556640625,0.1692352294921875
1713358348015369000,11.291368896484375,-4.5691070556640625,-6.67242431640625,-0.2521514892578125
1713358348025348400,11.301348388671874,-4.763031005859375,-6.861572265625,-1.7221832275390625
1713358348035327500,11.311327392578125,-4.2003936767578125,-7.247039794921875,-3.7500762939453125
1713358348045276200,11.321276123046875,-4.2482757568359375,-8.5087890625,-6.034149169921875
1713358348055255600,11.331255615234374,-4.6433258056640625,-11.286056518554688,-8.950286865234375
1713358348065234700,11.341234619140625,-3.5803070068359375,-14.973129272460938,-12.012466430664062
1713358348075183400,11.351183349609375,-1.5164947509765625,-19.069610595703125,-14.887908935546875
1713358348085162800,11.361162841796874,-0.4869842529296875,-22.124603271484375,-14.849594116210938
1713358348095142000,11.371141845703125,-1.3153839111328125,-21.473388671875,-9.692489624023438
1713358348105090600,11.381090576171875,-4.3009490966796875,-18.437530517578125,-3.2999725341796875
1713358348115070000,11.391070068359374,-7.920989990234375,-16.75201416015625,-0.38623046875
1713358348125049000,11.401049072265625,-9.572982788085938,-16.107986450195312,0.98565673828125
1713358348134998000,11.410998046875,-9.53228759765625,-14.884536743164062,2.76214599609375
1713358348144977200,11.42097705078125,-8.71826171875,-12.796798706054688,4.3878173828125
1713358348154956300,11.430956298828125,-7.9353485107421875,-10.47442626953125,6.5569610595703125
1713358348164905200,11.4409052734375,-6.4030609130859375,-8.549484252929688,7.605621337890625
1713358348174884400,11.45088427734375,-4.53558349609375,-7.3260498046875,5.5944976806640625
1713358348184863700,11.46086376953125,-0.4846038818359375,-6.0188140869140625,4.4500579833984375
1713358348194812400,11.4708125,4.60308837890625,-5.3484344482421875,4.9935455322265625
1713358348204791600,11.48079150390625,6.3556365966796875,-5.61419677734375,3.008758544921875
1713358348214771000,11.49077099609375,4.8616485595703125,-5.9517822265625,0.6504669189453125
1713358348224719600,11.5007197265625,3.130645751953125,-5.4873046875,-0.3838348388671875
1713358348234698800,11.51069873046875,2.31182861328125,-5.21435546875,-1.1787109375
1713358348244678100,11.52067822265625,2.0388946533203125,-5.0970458984375,-2.1866607666015625
1713358348254626800,11.530626708984375,1.5696258544921875,-4.637359619140625,-2.9791412353515625
1713358348264606000,11.54060595703125,0.942352294921875,-4.0914764404296875,-3.7404937744140625
1713358348274555000,11.550554931640624,0.2959136962890625,-3.928680419921875,-3.6327667236328125
1713358348284534000,11.560533935546875,0.39886474609375,-4.0483856201171875,-2.478759765625
1713358348294513400,11.570513427734374,0.310272216796875,-4.4913177490234375,-1.16912841796875
1713358348304492500,11.580492431640625,0.1474761962890625,-5.1521148681640625,-0.7549285888671875
1713358348314471700,11.5904716796875,-0.240386962890625,-5.83685302734375,-0.972808837890625
1713358348324420600,11.600420654296874,-0.6497955322265625,-6.30133056640625,-1.0709686279296875
1713358348334399700,11.610399658203125,-0.5635986328125,-6.751434326171875,-0.8698577880859375
1713358348344379000,11.62037890625,0.1043701171875,-7.259002685546875,-0.2641143798828125
1713358348354327800,11.630327880859374,0.731658935546875,-7.871917724609375,0.7031402587890625
1713358348364307000,11.640306884765625,1.4307708740234375,-8.568634033203125,2.122894287109375
1713358348374286300,11.650286376953124,2.285491943359375,-9.167190551757812,4.457244873046875
1713358348384235000,11.660235107421874,3.03009033203125,-10.112899780273438,6.4061279296875
1713358348394214100,11.670214111328125,3.2862701416015625,-11.587722778320312,7.4643707275390625
1713358348404193500,11.680193603515624,2.867279052734375,-13.414505004882812,6.238525390625
1713358348414142200,11.69014208984375,0.23126220703125,-15.217330932617188,3.2362060546875
1713358348424121300,11.700121337890625,-4.0399932861328125,-16.953140258789062,0.262603759765625
1713358348434100700,11.710100830078124,-3.0224456787109375,-18.574005126953125,-1.746124267578125
1713358348444049400,11.72004931640625,0.1809844970703125,-18.633865356445312,-5.13153076171875
1713358348454028500,11.730028564453125,3.8513031005859375,-16.112762451171875,-7.523345947265625
1713358348464008000,11.740008056640624,4.6988525390625,-12.361053466796875,-7.0349273681640625
1713358348473956600,11.74995654296875,4.593505859375,-9.794464111328125,-4.29595947265625
1713358348483936000,11.75993603515625,4.6701202392578125,-9.600540161132812,0.7294769287109375
1713358348493915100,11.7699150390625,4.61505126953125,-11.216629028320312,4.414154052734375
1713358348503863800,11.77986376953125,4.0045318603515625,-14.185440063476562,4.3064117431640625
1713358348513843200,11.78984326171875,-0.0416717529296875,-17.513381958007812,1.2466278076171875
1713358348523822300,11.799822265625,-6.209136962890625,-20.73358154296875,-1.6312103271484375
1713358348533771000,11.80977099609375,-11.282440185546875,-19.016937255859375,-2.627197265625
1713358348543750400,11.81975048828125,-14.04534912109375,-14.096847534179688,-1.5833282470703125
1713358348553729500,11.8297294921875,-10.825149536132812,-11.63800048828125,0.73187255859375
1713358348563678200,11.83967822265625,-4.1477203369140625,-9.085784912109375,2.2138824462890625
1713358348573657600,11.84965771484375,0.65264892578125,-7.1608428955078125,2.8052520751953125
1713358348583636700,11.85963671875,2.3022613525390625,-6.0236053466796875,3.0901641845703125
1713358348593616100,11.8696162109375,1.4259796142578125,-5.3005523681640625,2.692718505859375
1713358348603564800,11.879564697265625,0.087615966796875,-4.2447052001953125,1.16522216796875
1713358348613544000,11.8895439453125,-0.1278533935546875,-3.57672119140625,-0.0941314697265625
1713358348623523300,11.8995234375,0.62152099609375,-4.9366302490234375,-1.331939697265625
1713358348633472000,11.909471923828125,0.1594390869140625,-6.708343505859375,-3.4436187744140625
1713358348643451400,11.919451416015624,-1.1717376708984375,-8.726654052734375,-6.2951202392578125
1713358348653430500,11.929430419921875,-2.41192626953125,-10.531890869140625,-9.297439575195312
1713358348663379200,11.939379150390625,-1.9163360595703125,-11.9013671875,-10.7196044921875
1713358348673358600,11.949358642578124,-0.6282501220703125,-11.994735717773438,-8.52410888671875
1713358348683337700,11.959337646484375,0.2599945068359375,-9.75616455078125,-6.2065277099609375
1713358348693286400,11.969286376953125,0.9974212646484375,-7.3021087646484375,-4.95196533203125
1713358348703265800,11.979265869140624,1.6917266845703125,-5.420257568359375,-3.3382720947265625
1713358348713245000,11.989244873046875,2.05804443359375,-4.25189208984375,-2.9264678955078125
1713358348723193600,11.999193603515625,1.947906494140625,-3.89276123046875,-2.7397308349609375
1713358348733173000,12.009173095703124,0.9662933349609375,-4.4123077392578125,-1.8419036865234375
1713358348743152000,12.019152099609375,-0.091949462890625,-5.7650299072265625,-0.6160736083984375
1713358348753101000,12.02910107421875,-1.0615997314453125,-7.5487060546875,0.31048583984375
1713358348763080200,12.039080078125,-1.4255218505859375,-9.531112670898438,1.2921142578125
1713358348773059300,12.049059326171875,-1.116668701171875,-11.2884521484375,1.869110107421875
1713358348783008300,12.05900830078125,-0.78387451171875,-12.2724609375,2.276123046875
1713358348792987400,12.0689873046875,-0.7934417724609375,-12.464004516601562,2.18994140625
1713358348802966500,12.078966552734375,-1.4303131103515625,-11.915725708007812,1.9169921875
1713358348812915500,12.08891552734375,-2.14617919921875,-10.503158569335938,1.67279052734375
1713358348822894600,12.09889453125,-2.5579681396484375,-8.9229736328125,1.6392669677734375
1713358348832874000,12.1088740234375,-2.6082611083984375,-7.8527679443359375,1.8236236572265625
1713358348842822700,12.11882275390625,-1.3153839111328125,-7.2446441650390625,2.3192291259765625
1713358348852801800,12.1288017578125,-1.4159393310546875,-7.3140716552734375,1.519561767578125
1713358348862781200,12.13878125,-1.42791748046875,-7.575042724609375,1.05029296875
1713358348872760300,12.14876025390625,-1.4997406005859375,-8.06585693359375,0.9569244384765625
1713358348882709000,12.158708984375,-1.4303131103515625,-8.697921752929688,0.7845458984375
1713358348892688400,12.1686884765625,-0.2667236328125,-9.004379272460938,0.7510223388671875
1713358348902667500,12.17866748046875,1.868896484375,-8.999588012695312,0.6193389892578125
1713358348912647000,12.18864697265625,3.6334228515625,-9.183944702148438,0.3392181396484375
1713358348922595600,12.198595703125,4.79461669921875,-9.092971801757812,-0.0151214599609375
1713358348932574700,12.20857470703125,5.1082611083984375,-9.023529052734375,-0.223419189453125
1713358348942554000,12.21855419921875,3.6238555908203125,-9.090576171875,1.1269073486328125
1713358348952502800,12.228502685546875,1.756378173828125,-9.088180541992188,2.982421875
1713358348962482000,12.23848193359375,0.5137786865234375,-9.349151611328125,4.3973846435546875
1713358348972461300,12.24846142578125,-0.2906646728515625,-10.656387329101562,4.931304931640625
1713358348982410000,12.258409912109375,-1.169342041015625,-12.112060546875,4.2417755126953125
1713358348992389400,12.268389404296874,-0.788665771484375,-13.428863525390625,3.073394775390625
1713358349002368500,12.278368408203125,1.0333251953125,-14.1614990234375,2.70709228515625
1713358349012317200,12.288317138671875,1.7803192138671875,-13.704208374023438,3.2721099853515625
1713358349022296600,12.298296630859374,0.731658935546875,-12.473587036132812,3.2481689453125
1713358349032275700,12.308275634765625,-0.1996917724609375,-11.132827758789062,2.1588134765625
1713358349042224400,12.318224365234375,-0.53009033203125,-9.691513061523438,1.1005706787109375
1713358349052203800,12.328203857421874,-1.8636627197265625,-8.484848022460938,0.3032989501953125
1713358349062183000,12.338182861328125,-3.3025665283203125,-7.7953033447265625,-0.5586090087890625
1713358349072131600,12.348131591796875,-3.8628082275390625,-7.330841064453125,-1.7700653076171875
1713358349082111000,12.358111083984374,-3.3001708984375,-6.971710205078125,-3.6591033935546875
1713358349092059600,12.3680595703125,-3.7287445068359375,-7.5295562744140625,-5.722900390625
1713358349102039000,12.3780390625,-5.016815185546875,-9.373092651367188,-7.978240966796875
1713358349112018200,12.38801806640625,-4.4589691162109375,-12.5142822265625,-11.31097412109375
1713358349121966800,12.397966796875,-2.7878265380859375,-16.735260009765625,-14.763412475585938
1713358349131946200,12.4079462890625,-1.3728485107421875,-20.822158813476562,-16.089797973632812
1713358349141925400,12.41792529296875,-1.4207305908203125,-22.97454833984375,-13.51123046875
1713358349151904800,12.42790478515625,-3.271453857421875,-20.537246704101562,-6.9870452880859375
1713358349161853400,12.437853515625,-6.47967529296875,-17.484649658203125,-2.07891845703125
1713358349171832600,12.44783251953125,-9.5849609375,-15.86376953125,0.0160064697265625
1713358349181812000,12.45781201171875,-10.595306396484375,-14.281204223632812,1.835601806640625
1713358349191791000,12.467791015625,-9.223434448242188,-12.748916625976562,3.3654937744140625
1713358349201739800,12.47773974609375,-8.1053466796875,-10.778488159179688,5.3838043212890625
1713358349211719200,12.48771923828125,-6.834014892578125,-8.772140502929688,6.750885009765625
1713358349221698300,12.4976982421875,-5.1868133544921875,-7.491241455078125,5.570556640625
1713358349231647000,12.50764697265625,-3.3384857177734375,-6.4306182861328125,3.8682708740234375
1713358349241626400,12.51762646484375,1.799468994140625,-5.28619384765625,3.3439483642578125
1713358349251605500,12.52760546875,6.76025390625,-5.0371856689453125,2.6999053955078125
1713358349261554200,12.53755419921875,6.7626495361328125,-5.609405517578125,0.6025848388671875
1713358349271533600,12.547533447265625,4.80419921875,-5.6429290771484375,-0.932098388671875
1713358349281512700,12.5575126953125,2.661376953125,-5.1736602783203125,-1.12603759765625
1713358349291461600,12.567461669921874,1.4475250244140625,-5.07550048828125,-1.8778076171875
1713358349301440800,12.577440673828125,1.174591064453125,-4.8312835693359375,-2.6726837158203125
1713358349311420000,12.587419921875,0.774749755859375,-4.4027252197265625,-3.287994384765625
1713358349321368800,12.597368896484374,0.4706878662109375,-4.098663330078125,-3.3382720947265625
1713358349331348000,12.607347900390625,0.183380126953125,-4.1800689697265625,-2.6415557861328125
1713358349341327400,12.617327392578124,0.130706787109375,-4.5559539794921875,-1.6575469970703125
1713358349351276000,12.627276123046874,0.329437255859375,-5.276611328125,-1.116455078125
1713358349361255200,12.637255126953125,0.27197265625,-6.107391357421875,-1.05181884765625
1713358349371234600,12.647234619140624,0.2959136962890625,-6.8065032958984375,-1.090118408203125
1713358349381183200,12.657183349609374,0.44195556640625,-7.2015533447265625,-0.994354248046875
1713358349391162400,12.667162353515625,0.5999755859375,-7.4601287841796875,-0.69268798828125
1713358349401111300,12.677111328125,0.83221435546875,-7.86474609375,0.245849609375
1713358349411090400,12.68709033203125,1.208099365234375,-8.472869873046875,1.7613677978515625
1713358349421069600,12.697069580078125,2.0604400634765625,-8.834396362304688,3.7054595947265625
1713358349431049000,12.707049072265624,2.8792572021484375,-9.021148681640625,5.472381591796875
1713358349440997600,12.71699755859375,3.52569580078125,-9.298873901367188,6.6048431396484375
1713358349450977000,12.72697705078125,2.9319305419921875,-10.00994873046875,5.915313720703125
1713358349460956200,12.7369560546875,0.9447479248046875,-11.977981567382812,2.999176025390625
1713358349470935300,12.746935302734375,0.7340545654296875,-14.070510864257812,1.4788665771484375
1713358349480884200,12.75688427734375,1.830596923828125,-16.469497680664062,0.4445648193359375
1713358349490863400,12.76686328125,1.619903564453125,-18.2723388671875,-2.9743499755859375
1713358349500842800,12.7768427734375,0.7555999755859375,-18.267547607421875,-5.993438720703125
1713358349510791400,12.78679150390625,0.6622314453125,-15.447174072265625,-4.9328155517578125
1713358349520770600,12.7967705078125,2.3668975830078125,-12.406539916992188,-1.4348907470703125
1713358349530750000,12.80675,2.55364990234375,-10.984390258789062,2.6951141357421875
1713358349540698600,12.81669873046875,2.0556488037109375,-12.574142456054688,5.4364776611328125
1713358349550677800,12.826677734375,0.7819366455078125,-17.781524658203125,4.70623779296875
1713358349560657200,12.8366572265625,-1.6362152099609375,-20.905960083007812,3.77490234375
1713358349570605800,12.846605712890625,-3.98492431640625,-19.627456665039062,1.711090087890625
1713358349580585000,12.8565849609375,-6.9728851318359375,-16.263595581054688,-1.612060546875
1713358349590564400,12.866564453125,-7.5498809814453125,-12.832717895507812,-3.4172821044921875
1713358349600513000,12.876512939453125,-5.69677734375,-9.859115600585938,-3.060546875
1713358349610492200,12.8864921875,-3.4031219482421875,-7.950927734375,-1.185882568359375
