time,seconds_elapsed,z,y,x
1713358288924339000,0.1583388671875,2.151007652282715,-1.430553913116455,0.840275764465332
1713358288934318000,0.168318115234375,2.676210403442383,-1.9831886291503906,1.2065978050231934
1713358288944297500,0.17829736328125,2.0175647735595703,-1.668046474456787,1.3052445650100708
1713358288954276600,0.188276611328125,1.0587215423583984,-1.276414394378662,1.2531356811523438
1713358288964256000,0.198256103515625,0.7197637557983398,-0.6277761459350586,1.3818236589431763
1713358288974235100,0.208235107421875,0.25488758087158203,-0.4171605110168457,1.4121270179748535
1713358288984214300,0.21821435546875,-0.0834035873413086,-0.19101619720458984,1.5214296579360962
1713358288994163200,0.2281630859375,-0.49681663513183594,-0.35007286071777344,1.4364216327667236
1713358289004142300,0.238142333984375,-0.6588201522827148,-0.7898273468017578,1.4594131708145142
1713358289014121700,0.248121826171875,-0.553741455078125,-0.8287777900695801,1.4939429759979248
1713358289024070400,0.2580703125,-0.6159448623657227,-0.8441238403320312,1.2652714252471924
1713358289034049500,0.268049560546875,-0.7570724487304688,-0.76556396484375,1.0070793628692627
1713358289044029000,0.27802880859375,-0.9815807342529297,-0.7429261207580566,0.7278494238853455
1713358289053977600,0.2879775390625,-1.4605474472045898,-0.9135904312133789,0.5496997833251953
1713358289063956700,0.297956787109375,-1.802657127380371,-0.7648015022277832,0.7137918472290039
1713358289073936100,0.30793603515625,-2.1835498809814453,-0.5419001579284668,0.7555542588233948
1713358289083915300,0.317915283203125,-2.6214752197265625,-0.4649934768676758,0.6835172176361084
1713358289093894700,0.327894775390625,-2.949054718017578,-0.3033771514892578,0.6162399649620056
1713358289103843300,0.33784326171875,-3.383120536804199,-0.7687950134277344,0.2827709913253784
1713358289113822500,0.347822509765625,-3.287531852722168,-0.15906453132629395,0.5289753675460815
1713358289123801900,0.3578017578125,-3.6481246948242188,-0.35044384002685547,0.07035624980926514
1713358289133750500,0.36775048828125,-3.574817657470703,-0.9021294116973877,0.09695959091186523
1713358289143729700,0.377729736328125,-3.487734794616699,-0.7876644134521484,-0.05920720100402832
1713358289153709000,0.387708984375,-3.0971250534057617,-0.3986332416534424,-0.36054447293281555
1713358289163657700,0.39765771484375,-3.0596694946289062,-0.23578882217407227,-0.6222707629203796
1713358289173637000,0.40763720703125,-2.9068222045898438,0.00874018669128418,-1.0929197072982788
1713358289183616300,0.4176162109375,-2.8026065826416016,0.2525138854980469,-1.5026191473007202
1713358289193565000,0.42756494140625,-2.4604005813598633,0.8656599521636963,-1.7381268739700317
1713358289203544300,0.43754443359375,-2.5400686264038086,0.3932764530181885,-1.732140064239502
1713358289213523500,0.4475234375,-2.2075281143188477,-0.34879088401794434,-1.4125924110412598
1713358289223472000,0.45747216796875,-1.8901348114013672,-0.4853081703186035,-0.4788079857826233
1713358289233451500,0.467451416015625,-1.991654396057129,-0.31461644172668457,0.047991275787353516
1713358289243430700,0.4774306640625,-1.8714799880981445,-0.2378833293914795,0.2358710765838623
1713358289253379300,0.48737939453125,-1.7562971115112305,-0.07191014289855957,0.06159406900405884
1713358289263358700,0.497358642578125,-1.1574821472167969,0.3199193477630615,0.3748200535774231
1713358289273337900,0.507337890625,-0.673527717590332,0.6507620811462402,0.6511801481246948
1713358289283286800,0.517286865234375,-0.7120180130004883,1.6376352310180664,0.6243652105331421
1713358289293266000,0.527265869140625,-1.1903314590454102,1.7266929149627686,0.5882306694984436
1713358289303214600,0.537214599609375,-1.4625377655029297,1.5078825950622559,0.4139038324356079
1713358289313194000,0.547194091796875,-1.3194150924682617,1.9611544609069824,0.40372633934020996
1713358289323173000,0.557173095703125,-1.0377254486083984,1.9107036590576172,0.266650915145874
1713358289333121800,0.567121826171875,-0.9330320358276367,1.923637866973877,0.102597177028656
1713358289343101200,0.57710107421875,-0.8393325805664062,1.957951545715332,-0.056010901927948
1713358289353080300,0.587080322265625,-0.9424495697021484,2.0002059936523438,-0.30966830253601074
1713358289363059700,0.597059814453125,-1.2716302871704102,2.040355682373047,-0.5095552802085876
1713358289373008400,0.60700830078125,-1.3225631713867188,2.012929916381836,-0.6022028923034668
1713358289382987500,0.616987548828125,-0.8448524475097656,1.48576021194458,-0.5517899990081787
1713358289392967000,0.626966796875,-0.04949951171875,1.753683090209961,-0.4520121216773987
1713358289402915600,0.63691552734375,0.31622791290283203,1.378685474395752,-0.612013578414917
1713358289412894700,0.646894775390625,-0.0157623291015625,0.5926942825317383,-0.6341549158096313
1713358289422874000,0.6568740234375,1.529994010925293,1.3594284057617188,-0.006960153579711914
1713358289432822800,0.66682275390625,2.0625686645507812,1.2728939056396484,-1.1224370002746582
1713358289442802000,0.676802001953125,2.9127607345581055,1.720982551574707,-0.869787871837616
1713358289452781300,0.68678125,2.036381721496582,2.469935894012451,-0.5171153545379639
1713358289462730000,0.69672998046875,0.47304630279541016,0.3882913589477539,0.2547140121459961
1713358289472709400,0.70670947265625,-0.74151611328125,0.4075899124145508,-1.1981056928634644
1713358289482705200,0.716705078125,-0.5794210433959961,1.1241278648376465,-2.670382499694824
1713358289492653800,0.72665380859375,0.44364356994628906,1.3760781288146973,-3.0294723510742188
1713358289502633200,0.73663330078125,0.22333621978759766,2.1284689903259277,-3.729853630065918
1713358289512612400,0.7466123046875,0.5353021621704102,2.5640945434570312,-4.346806526184082
1713358289522561300,0.756561279296875,1.3892459869384766,2.646885395050049,-3.601497173309326
1713358289532540400,0.76654052734375,2.138554573059082,1.8735871315002441,-0.3710453510284424
1713358289542519600,0.77651953125,0.6330804824829102,0.6660385131835938,-0.8790001273155212
1713358289552468500,0.786468505859375,1.4109869003295898,0.11065292358398438,-1.1340426206588745
1713358289562447600,0.796447509765625,1.4185905456542969,0.18947315216064453,-0.4559714198112488
1713358289572427000,0.806427001953125,1.0298643112182617,-0.02334880828857422,0.3187676668167114
1713358289582375700,0.816375732421875,-0.8466520309448242,-0.42180871963500977,0.7211828231811523
1713358289592354800,0.826354736328125,-0.9136447906494141,-0.7837176322937012,-0.05777141451835632
1713358289602303500,0.836303466796875,0.7364616394042969,-0.7268083095550537,-1.6749532222747803
1713358289612283000,0.846282958984375,2.1908702850341797,-0.17623376846313477,-3.12149977684021
1713358289622262000,0.856261962890625,2.8247451782226562,0.392120361328125,-4.302136421203613
1713358289632211000,0.8662109375,2.5023250579833984,0.6956682205200195,-5.588623046875
1713358289642190000,0.876190185546875,1.033635139465332,-1.5347225666046143,-4.5176825523376465
1713358289652169200,0.886169189453125,-0.8064651489257812,-3.7041311264038086,-2.0240275859832764
1713358289662148600,0.896148681640625,-0.1658334732055664,-3.1747066974639893,-1.343843698501587
1713358289672097300,0.90609716796875,0.3939027786254883,-2.329659938812256,-1.28800630569458
1713358289682076700,0.91607666015625,0.133331298828125,-2.1019539833068848,-1.394898772239685
1713358289692055800,0.926055908203125,-0.5846319198608398,-2.145287036895752,-1.3349276781082153
1713358289702004500,0.93600439453125,-1.112706184387207,-1.8016331195831299,-1.4392539262771606
1713358289711983900,0.94598388671875,-1.8299436569213867,-1.5878498554229736,-1.3405572175979614
1713358289721963000,0.955962890625,-2.010645866394043,-1.421701192855835,-0.9996010661125183
1713358289731911700,0.96591162109375,-1.5696964263916016,-1.1693685054779053,-0.33655452728271484
1713358289741891000,0.97589111328125,-1.2746953964233398,-1.0733649730682373,-0.19276970624923706
1713358289751870200,0.9858701171875,-1.275064468383789,-0.9934070110321045,-0.022461235523223877
1713358289761819000,0.99581884765625,-0.9703264236450195,-0.7943284511566162,-0.030249714851379395
1713358289771798300,1.00579833984375,-1.122659683227539,-1.4104118347167969,0.5079860687255859
1713358289781777400,1.01577734375,-0.7919855117797852,-0.9630274772644043,0.6278998851776123
1713358289791726300,1.025726318359375,-1.7894954681396484,-0.9850418567657471,1.7926276922225952
1713358289801705500,1.03570556640625,-1.3275337219238281,-0.22156906127929688,1.4452322721481323
1713358289811684600,1.0456845703125,-1.4556283950805664,0.5717620849609375,1.5713789463043213
1713358289821633500,1.055633544921875,-1.45062255859375,0.9796240329742432,1.5281153917312622
1713358289831612700,1.06561279296875,-1.6532840728759766,0.9030723571777344,1.2070441246032715
1713358289841591800,1.075591796875,-1.845686912536621,0.40719175338745117,0.9312889575958252
1713358289851540700,1.085540771484375,-2.1623849868774414,-0.12640857696533203,0.5810695886611938
1713358289861520000,1.095519775390625,-2.465987205505371,-0.28173303604125977,0.25376105308532715
1713358289871468500,1.105468505859375,-2.5144176483154297,-0.2659339904785156,0.16310027241706848
1713358289881448000,1.115447998046875,-2.1177101135253906,-0.3425936698913574,0.12377673387527466
1713358289891427000,1.125427001953125,-1.620941162109375,-0.4207887649536133,-0.2528286576271057
1713358289901375700,1.135375732421875,-1.333317756652832,-0.30689358711242676,-0.4444982409477234
1713358289911355100,1.145355224609375,-0.8932046890258789,-0.2658991813659668,-0.932410717010498
1713358289921334300,1.155334228515625,-0.859034538269043,0.07198905944824219,-1.7860727310180664
1713358289931313700,1.165313720703125,-0.6125020980834961,0.6899576187133789,-2.5039637088775635
1713358289941262300,1.175262451171875,0.08022022247314453,0.741173267364502,-3.2340292930603027
1713358289951241500,1.185241455078125,0.5045499801635742,-0.30446958541870117,-3.785062313079834
1713358289961220900,1.195220947265625,0.5016345977783203,-2.195406436920166,-3.7396135330200195
1713358289971169500,1.20516943359375,0.7224960327148438,-4.163466453552246,-3.7042136192321777
1713358289981149000,1.21514892578125,1.8225774765014648,-4.7237443923950195,-4.1221795082092285
1713358289991128000,1.225128173828125,3.594601631164551,-4.241197109222412,-4.397820949554443
1713358290001076700,1.23507666015625,4.82523250579834,-3.963258743286133,-4.680027961730957
1713358290011056000,1.24505615234375,4.586152076721191,-3.877096176147461,-4.83701753616333
1713358290021035300,1.25503515625,4.382615089416504,-3.426901340484619,-4.483035087585449
1713358290030984000,1.26498388671875,4.7612104415893555,-2.6905007362365723,-3.3775575160980225
1713358290040963300,1.27496337890625,4.751794815063477,-1.9112591743469238,-2.4359567165374756
1713358290050942500,1.2849423828125,5.025747299194336,-1.2723474502563477,-1.6862651109695435
1713358290060891100,1.29489111328125,2.0243406295776367,-4.521780490875244,-2.358635187149048
1713358290070870500,1.30487060546875,-0.2707080841064453,-7.390146732330322,-4.7972187995910645
1713358290080849700,1.314849609375,-0.8628983497619629,-7.454832553863525,-7.873132705688477
1713358290090798600,1.324798583984375,-1.7840056419372559,-8.06301498413086,-9.83869743347168
1713358290100777700,1.33477783203125,-4.369359493255615,-9.89405345916748,-8.7957763671875
1713358290110756900,1.3447568359375,-6.004086017608643,-9.154542922973633,-5.8846211433410645
1713358290120705800,1.354705810546875,-6.582242012023926,-8.747865676879883,-1.7265188694000244
1713358290130685000,1.364684814453125,-7.395096302032471,-7.468966960906982,3.464708089828491
1713358290140633600,1.374633544921875,-6.817628383636475,-4.941599369049072,8.436444282531738
1713358290150613000,1.384613037109375,-5.882335662841797,-5.009967803955078,9.928276062011719
1713358290160592100,1.394592041015625,-3.91265869140625,-5.810638427734375,11.695178985595703
1713358290170519000,1.40451904296875,-2.598951816558838,-6.836014747619629,11.099599838256836
1713358290180498200,1.414498291015625,0.01573467254638672,-6.475472450256348,9.34841537475586
1713358290190477300,1.424477294921875,1.2053313255310059,-6.764540672302246,7.011606693267822
1713358290200426200,1.43442626953125,2.581357955932617,-6.708645343780518,6.367391586303711
1713358290210405400,1.4444052734375,2.6856908798217773,-6.426504611968994,6.611752033233643
1713358290220384800,1.454384765625,6.148759841918945,-4.826137542724609,9.249059677124023
1713358290230364000,1.464364013671875,7.437328815460205,-5.2462158203125,8.160164833068848
1713358290240312600,1.4743125,2.0253376960754395,-5.980844497680664,0.5203495025634766
1713358290250292000,1.4842919921875,0.6040873527526855,-3.166431427001953,0.015685558319091797
1713358290260271000,1.49427099609375,1.0200896263122559,2.2504711151123047,3.3044075965881348
1713358290270219800,1.5042197265625,-1.6268610954284668,2.4774906635284424,5.1327128410339355
1713358290280199200,1.51419921875,-5.014953136444092,1.1831579208374023,-1.0354409217834473
1713358290290178300,1.52417822265625,-2.6946325302124023,-4.027978420257568,-14.418924331665039
1713358290300127000,1.534126953125,-4.630651473999023,-4.4303364753723145,-7.506092071533203
1713358290310106400,1.5441064453125,-5.583437919616699,-1.312856674194336,2.1532320976257324
1713358290320082000,1.55408203125,1.5479774475097656,1.7316327095031738,-5.640616416931152
1713358290330030600,1.564030517578125,3.1101722717285156,0.18711042404174805,-12.74960708618164
1713358290340010000,1.574010009765625,-4.14177942276001,-2.3007025718688965,-9.963969230651855
1713358290349989000,1.583989013671875,-3.4992361068725586,2.2961654663085938,-1.0652990341186523
1713358290359937800,1.593937744140625,2.159933090209961,2.171168804168701,-8.639427185058594
1713358290369917200,1.603917236328125,5.405250072479248,1.9128327369689941,-13.397083282470703
1713358290379896300,1.613896240234375,3.8880181312561035,4.328802108764648,2.2433924674987793
1713358290389845200,1.62384521484375,5.9684343338012695,6.536942005157471,4.667129039764404
1713358290399824400,1.633824462890625,8.284778594970703,4.53505802154541,9.071465492248535
1713358290409773000,1.64377294921875,8.274763107299805,5.250874042510986,14.526296615600586
1713358290419752400,1.65375244140625,4.724362373352051,6.657870292663574,17.18056297302246
1713358290429731600,1.663731689453125,1.1656198501586914,9.691518783569336,17.047439575195312
1713358290439694300,1.6736943359375,-4.715970993041992,8.823263168334961,12.445148468017578
1713358290449673700,1.683673828125,-7.268614292144775,8.222040176391602,8.507105827331543
1713358290459652900,1.69365283203125,-6.827487468719482,8.770520210266113,11.222736358642578
1713358290469601500,1.7036015625,-9.083427429199219,8.725944519042969,13.879124641418457
1713358290479581000,1.713580810546875,-6.812033653259277,5.876993179321289,11.266313552856445
1713358290489560000,1.72356005859375,-5.495619773864746,5.176093101501465,11.161947250366211
1713358290499539500,1.73353955078125,-6.450374603271484,4.9699859619140625,12.128690719604492
1713358290509474600,1.743474609375,-8.94809341430664,4.194547653198242,12.065208435058594
1713358290519454000,1.753453857421875,-8.99103832244873,1.09228515625,13.256551742553711
1713358290529433000,1.76343310546875,-5.792078971862793,-1.2120189666748047,10.9613037109375
1713358290539381800,1.7733818359375,-2.8159942626953125,-2.7727909088134766,8.332128524780273
1713358290549361200,1.783361083984375,-2.5523691177368164,-2.929719924926758,8.179960250854492
1713358290559340300,1.79334033203125,-1.8986380100250244,-0.9360494613647461,10.340457916259766
1713358290569289000,1.8032890625,-1.8705579042434692,-0.9188203811645508,10.671085357666016
1713358290579268400,1.813268310546875,-1.7010902166366577,-1.6408133506774902,10.010526657104492
1713358290589247500,1.82324755859375,-1.4503958225250244,-2.0888314247131348,7.3458709716796875
1713358290599196200,1.833196044921875,-4.462033748626709,-4.133094787597656,5.412529945373535
1713358290609175600,1.843175537109375,-5.626623153686523,-7.079885482788086,3.7007360458374023
1713358290619154700,1.85315478515625,-3.6688907146453857,-8.291993141174316,-0.8427648544311523
1713358290629103600,1.863103515625,-2.299478530883789,-6.412773132324219,-3.468719959259033
1713358290639082800,1.873082763671875,-3.6693849563598633,-4.4802703857421875,-4.018988609313965
1713358290649062000,1.883061767578125,-7.363911151885986,-4.658637523651123,-4.730419158935547
1713358290659010800,1.8930107421875,-8.476409912109375,-6.1935505867004395,-7.212011337280273
1713358290668990000,1.902989990234375,-6.221779823303223,-7.967007637023926,-8.909669876098633
1713358290678969300,1.91296923828125,-0.17465877532958984,-12.531133651733398,-7.818469524383545
1713358290688918000,1.92291796875,7.863264083862305,-16.461761474609375,-1.4998588562011719
1713358290698897200,1.932897216796875,13.743268966674805,-16.33329963684082,1.777327060699463
1713358290708876500,1.94287646484375,3.46529483795166,-16.99508285522461,6.512058258056641
1713358290718825200,1.9528251953125,1.7047233581542969,-14.74448013305664,5.870522975921631
1713358290728804400,1.962804443359375,4.145739555358887,-11.391372680664062,7.033627033233643
1713358290738753300,1.972753173828125,-5.077187538146973,-10.142501831054688,2.8026375770568848
1713358290748732400,1.982732421875,-8.85938835144043,-9.520971298217773,-2.7540535926818848
1713358290758711600,1.992711669921875,-10.530211448669434,-7.96213436126709,-4.16719913482666
1713358290768660500,2.002660400390625,-10.083925247192383,-7.996589660644531,-7.221302509307861
1713358290778639600,2.0126396484375,-5.477512359619141,-7.593270301818848,-6.697052478790283
1713358290788619000,2.022618896484375,-0.6678730249404907,-6.769049644470215,-2.266019344329834
1713358290798598100,2.03259814453125,2.1779816150665283,-7.228496551513672,0.09881591796875
1713358290808546800,2.042546875,4.335198402404785,-7.034584045410156,-0.8610010147094727
1713358290818526200,2.052526123046875,3.7477898597717285,-7.400771141052246,-0.9992542266845703
1713358290828505300,2.06250537109375,4.559152603149414,-6.142427444458008,0.606757402420044
1713358290838454000,2.0724541015625,5.953779697418213,-3.610833168029785,4.020999908447266
1713358290848433400,2.082433349609375,9.465919494628906,-5.10646915435791,5.9019622802734375
1713358290858412500,2.09241259765625,12.89025592803955,-8.533796310424805,2.9781746864318848
1713358290868361200,2.102361328125,-0.6179693937301636,4.4599809646606445,9.63254165649414
1713358290878340600,2.112340576171875,-18.938791275024414,0.9123458862304688,7.007016181945801
1713358290888319700,2.12231982421875,-5.034876346588135,6.377596855163574,4.380054473876953
1713358290898268700,2.1322685546875,5.73128604888916,6.209468841552734,4.3787102699279785
1713358290908247800,2.142247802734375,2.350555658340454,3.6913223266601562,2.621778726577759
1713358290918227000,2.15222705078125,-4.634279727935791,4.462545394897461,2.2262983322143555
1713358290928175900,2.16217578125,-4.965784072875977,4.299826622009277,2.191176176071167
1713358290938155000,2.172155029296875,-4.0744218826293945,3.0264129638671875,2.9914727210998535
1713358290948134100,2.182134033203125,3.2635984420776367,3.985297203063965,3.3610143661499023
1713358290958083000,2.1920830078125,1.6917731761932373,4.590038299560547,4.5429487228393555
1713358290968062200,2.202062255859375,-1.3844199180603027,0.9214706420898438,3.957920789718628
1713358290978041600,2.21204150390625,-4.045549392700195,3.7424306869506836,6.977016925811768
1713358290987990300,2.221990234375,6.828120231628418,0.4311056137084961,4.558680534362793
1713358290997969400,2.231969482421875,-7.063751220703125,0.15692615509033203,2.6348674297332764
1713358291007918000,2.24191796875,-3.5384724140167236,4.027313232421875,-2.308192253112793
1713358291017899000,2.25189892578125,6.066681861877441,2.799107551574707,-0.22014951705932617
1713358291027878100,2.261878173828125,15.187226295471191,-1.581319808959961,10.672506332397461
1713358291037826800,2.271826904296875,5.632477760314941,-2.749669075012207,2.5343680381774902
1713358291047806200,2.28180615234375,0.05401182174682617,-1.1368165016174316,2.253587245941162
1713358291057785300,2.291785400390625,4.700219631195068,3.4998860359191895,3.254446029663086
1713358291067764700,2.3017646484375,-5.806519985198975,8.734527587890625,9.674036026000977
1713358291077713400,2.31171337890625,-9.959578514099121,9.073007583618164,7.774214267730713
1713358291087692500,2.321692626953125,-7.451314449310303,10.37173080444336,4.445462703704834
1713358291097672000,2.331671875,-10.305981636047363,11.152149200439453,9.935077667236328
1713358291107620600,2.34162060546875,-5.518968105316162,9.408044815063477,13.345386505126953
1713358291117599700,2.351599853515625,-0.13039493560791016,5.859259605407715,9.55980110168457
1713358291127579100,2.3615791015625,1.8796005249023438,4.158326148986816,9.420669555664062
1713358291137527800,2.37152783203125,1.2033171653747559,5.166836738586426,8.445077896118164
1713358291147507000,2.3815068359375,-0.1688823699951172,5.05577278137207,6.976001262664795
1713358291157486300,2.391486328125,-3.3225929737091064,3.723684310913086,4.129632949829102
1713358291167435000,2.40143505859375,-2.8053181171417236,0.7469320297241211,-2.9987034797668457
1713358291177414100,2.4114140625,0.2985870838165283,-0.10847091674804688,-5.736786365509033
1713358291187393500,2.4213935546875,2.063697099685669,-2.455014228820801,-7.584402084350586
1713358291197342200,2.43134228515625,2.558605432510376,-3.4620790481567383,-6.180413246154785
1713358291207321600,2.441321533203125,3.477614164352417,-2.1221609115600586,-2.3447484970092773
1713358291217300700,2.45130078125,2.6528825759887695,-0.22828197479248047,0.9978368282318115
1713358291227249400,2.46124951171875,-1.8199193477630615,-0.49219608306884766,2.7463269233703613
1713358291237228800,2.471228759765625,-1.604158639907837,-0.6165695190429688,4.666727542877197
1713358291247208000,2.4812080078125,-4.88334846496582,-0.7936992645263672,6.609740257263184
1713358291257156600,2.491156494140625,-4.092299461364746,-2.2654027938842773,4.2675323486328125
1713358291267136000,2.501135986328125,-6.630433082580566,-0.7538280487060547,-1.1398886442184448
1713358291277115100,2.511115234375,-5.527623176574707,-1.781341552734375,-8.045757293701172
1713358291287063800,2.521063720703125,-3.162388324737549,-4.896354675292969,-8.564821243286133
1713358291297043200,2.531043212890625,0.7182669043540955,-8.511917114257812,-7.36422061920166
1713358291306991900,2.540991943359375,3.8033034801483154,-12.02328109741211,-3.8652052879333496
1713358291316971300,2.55097119140625,2.993964910507202,-12.826739311218262,-1.6811583042144775
1713358291326950400,2.560950439453125,0.9671674966812134,-7.372785568237305,1.3275911808013916
1713358291336899000,2.570899169921875,-3.506619453430176,-3.5581064224243164,3.487828254699707
1713358291346878500,2.58087841796875,-1.107067346572876,-7.814929962158203,2.408686876296997
1713358291356857600,2.590857666015625,-2.4320061206817627,-7.726371765136719,1.0222041606903076
1713358291366837000,2.6008369140625,-2.656576156616211,-4.944271087646484,-0.3046891689300537
1713358291376785700,2.61078564453125,-0.8764908313751221,-2.8851261138916016,-0.8696930408477783
1713358291386764800,2.620764892578125,-1.828896403312683,-2.705343246459961,-1.648794412612915
1713358291396744200,2.630744140625,0.496464341878891,-2.64154052734375,-5.146071434020996
1713358291406692900,2.64069287109375,1.2809643745422363,-3.3408164978027344,-7.169195652008057
1713358291416672000,2.650672119140625,-2.395824670791626,-1.9941892623901367,-6.651630878448486
1713358291426651400,2.6606513671875,0.370379775762558,-2.44789981842041,1.2477102279663086
1713358291436600000,2.67060009765625,4.356502532958984,-0.23299503326416016,0.3643794059753418
1713358291446579200,2.6805791015625,1.1032917499542236,2.5917282104492188,3.6060123443603516
1713358291456558600,2.69055859375,0.45548704266548157,4.93568229675293,1.2994389533996582
1713358291466507300,2.70050732421875,-2.6437649726867676,9.917606353759766,5.4360456466674805
1713358291476503600,2.710503662109375,-4.363528728485107,14.286652565002441,6.46270227432251
1713358291486483000,2.72048291015625,-6.210003852844238,14.623167991638184,5.330812454223633
1713358291496431600,2.730431640625,-2.85250186920166,11.694610595703125,1.0433950424194336
1713358291506410800,2.74041064453125,0.18075379729270935,6.851682662963867,0.09718084335327148
1713358291516390100,2.75039013671875,0.24004662036895752,7.511255264282227,0.7266836166381836
1713358291526338800,2.7603388671875,-1.045825719833374,6.340909957885742,-0.4380621910095215
1713358291536318000,2.77031787109375,-1.6727360486984253,5.549223899841309,-1.506457805633545
1713358291546297300,2.78029736328125,-0.19659000635147095,6.561102867126465,-1.4315953254699707
1713358291556246000,2.79024609375,-0.6367183923721313,5.274245262145996,0.32666492462158203
1713358291566225400,2.800225341796875,-0.10061958432197571,2.0890932083129883,0.725693941116333
1713358291576174000,2.810174072265625,1.5327222347259521,0.7707586288452148,-2.031675338745117
1713358291586153200,2.8201533203125,3.2486796379089355,1.2716436386108398,-3.00386643409729
1713358291596132600,2.830132568359375,0.9496009349822998,4.536684989929199,-3.360468626022339
1713358291606081300,2.840081298828125,2.6506404876708984,14.741609573364258,-6.050618648529053
1713358291616060400,2.850060302734375,-1.8047728538513184,9.919652938842773,4.779568672180176
1713358291626039800,2.860039794921875,4.833097457885742,4.448758125305176,5.861241340637207
1713358291635988500,2.869988525390625,7.73063850402832,2.4128341674804688,3.544585943222046
1713358291645967600,2.879967529296875,3.560380697250366,-2.5335121154785156,4.2653937339782715
1713358291655947000,2.889947021484375,-1.7312290668487549,-9.14765453338623,2.9270639419555664
1713358291665926100,2.899926025390625,-0.9884418249130249,-8.47307300567627,0.3269137144088745
1713358291675875000,2.909875,0.1953723430633545,-6.079134941101074,-1.8204418420791626
1713358291685854200,2.919854248046875,-2.670344829559326,-7.340004920959473,-3.344167709350586
1713358291695833300,2.929833251953125,-3.6382336616516113,-7.807994842529297,-1.7736945152282715
1713358291705782300,2.9397822265625,-3.9049103260040283,-6.983963966369629,1.0230633020401
1713358291715761400,2.949761474609375,-3.4549126625061035,-6.334982872009277,2.8963747024536133
1713358291725740800,2.95974072265625,1.8993194103240967,-7.4784746170043945,2.3994195461273193
1713358291735689500,2.969689453125,6.568928241729736,-7.006875991821289,2.6849074363708496
1713358291745668600,2.979668701171875,8.954498291015625,-5.462047576904297,2.5588526725769043
1713358291755648000,2.98964794921875,2.901726722717285,-3.1406755447387695,0.07161784172058105
1713358291765596700,2.9995966796875,-2.677824020385742,-2.8612184524536133,-0.5204299688339233
1713358291775575800,3.009575927734375,-3.5809524059295654,-3.360224723815918,-2.061610698699951
1713358291785555200,3.01955517578125,-1.5140831470489502,-2.91500186920166,-2.6143689155578613
1713358291795503900,3.02950390625,-0.17983478307724,-3.6746625900268555,-3.0651862621307373
1713358291805483000,3.03948291015625,2.5733766555786133,-5.789523124694824,-4.145652770996094
1713358291815462400,3.04946240234375,-6.784509181976318,-4.538311958312988,-4.418637275695801
1713358291825411000,3.0594111328125,-8.645098686218262,-0.7393064498901367,0.26892226934432983
1713358291835390500,3.069390380859375,-5.177603721618652,-0.40752696990966797,2.857170343399048
1713358291845339100,3.079339111328125,-5.33280086517334,1.2299127578735352,4.130618572235107
1713358291855318300,3.089318359375,-2.77809739112854,1.1154088973999023,4.179904937744141
1713358291865297700,3.099297607421875,-0.8532031774520874,0.6620368957519531,3.46812105178833
1713358291875246300,3.109246337890625,-0.3784424662590027,0.24390697479248047,1.784117579460144
1713358291885225500,3.1192255859375,-1.9686009883880615,0.49472522735595703,-0.26659297943115234
1713358291895204900,3.129204833984375,-2.005542755126953,0.5352315902709961,-3.9158740043640137
1713358291905153500,3.139153564453125,0.8286157846450806,0.02610492706298828,-6.831392765045166
1713358291915132700,3.149132568359375,2.9316272735595703,0.21749019622802734,-8.49645709991455
1713358291925112000,3.159112060546875,3.821807384490967,1.239884376525879,-10.156055450439453
1713358291935091200,3.16909130859375,2.533838987350464,2.161508560180664,-9.364752769470215
1713358291945040100,3.1790400390625,0.14816558361053467,2.961733818054199,-6.131575107574463
1713358291955019300,3.189019287109375,-1.194468379020691,3.5729246139526367,-2.3965818881988525
1713358291964998400,3.198998291015625,-1.0268205404281616,4.925518035888672,0.452251672744751
1713358291974947300,3.208947265625,-0.7951161861419678,14.158862113952637,3.756638526916504
1713358291984926500,3.218926513671875,-3.025226593017578,9.844812393188477,3.38114595413208
1713358291994905600,3.228905517578125,0.1982102394104004,7.690014839172363,2.866891622543335
1713358292004854500,3.2388544921875,3.0922327041625977,5.294944763183594,0.671262264251709
1713358292014833700,3.248833740234375,3.445124864578247,2.0979394912719727,-1.05899977684021
1713358292024813000,3.25881298828125,2.7408106327056885,2.2548608779907227,-1.5130741596221924
1713358292034761700,3.26876171875,2.054136276245117,4.8972930908203125,-0.4548921585083008
1713358292044740900,3.278740966796875,1.7038977146148682,8.304615020751953,1.0072522163391113
1713358292054720300,3.28872021484375,0.8724830150604248,9.86040210723877,-0.15033382177352905
1713358292064669000,3.2986689453125,1.1691715717315674,10.01512622833252,-0.34565842151641846
1713358292074648000,3.30864794921875,-0.18978440761566162,6.3257551193237305,0.7582021355628967
1713358292084627500,3.31862744140625,-2.4154374599456787,-3.6604089736938477,-1.589923620223999
1713358292094576000,3.328576171875,-1.981594204902649,-18.000640869140625,-4.368896484375
1713358292104555300,3.33855517578125,-0.8701921701431274,-22.90612030029297,0.9931321740150452
1713358292114534700,3.34853466796875,0.45120811462402344,-12.818755149841309,0.059695810079574585
1713358292124483300,3.3584833984375,1.9601693153381348,-2.412064552307129,-0.8902135491371155
1713358292134462700,3.368462646484375,0.8396202325820923,-3.7006282806396484,2.336543083190918
1713358292144411400,3.378411376953125,-0.8248107433319092,-3.7734785079956055,0.3683290481567383
1713358292154390500,3.388390625,-0.7840330600738525,-3.491755485534668,-0.6098644137382507
1713358292164370000,3.398369873046875,-0.9425735473632812,-2.121279716491699,-0.06284479796886444
1713358292174318600,3.408318603515625,0.6303656101226807,-1.7491159439086914,0.7666534781455994
1713358292184297700,3.418297607421875,2.1998581886291504,-0.9279756546020508,1.4236652851104736
1713358292194277000,3.428277099609375,3.4744417667388916,-0.4224576950073242,1.8096725940704346
1713358292204225800,3.438225830078125,5.078709602355957,0.8747053146362305,3.0684380531311035
1713358292214205000,3.448204833984375,7.047785758972168,2.1209306716918945,3.985062837600708
1713358292224184300,3.458184326171875,8.912481307983398,2.785719871520996,2.8713533878326416
1713358292234163500,3.46816357421875,7.209510326385498,3.6052675247192383,1.563148856163025
1713358292244112400,3.4781123046875,3.3056113719940186,5.958271026611328,2.5248377323150635
1713358292254091500,3.488091552734375,1.9588205814361572,6.557751655578613,1.9367096424102783
1713358292264070700,3.498070556640625,1.1278376579284668,4.684276580810547,2.3570556640625
1713358292274019600,3.50801953125,0.36492133140563965,0.943242073059082,2.4464144706726074
1713358292283998700,3.517998779296875,0.357647180557251,-2.264383316040039,1.0356866121292114
1713358292293978000,3.52797802734375,0.722759485244751,-4.143836975097656,0.1852247714996338
1713358292303926800,3.5379267578125,1.882117748260498,-4.6990814208984375,-0.8302621841430664
1713358292313906000,3.547906005859375,3.6986618041992188,-4.082389831542969,-1.1581543684005737
1713358292323885300,3.55788525390625,3.937997817993164,-3.008779525756836,-0.48953893780708313
1713358292333834000,3.567833984375,2.575096368789673,-1.7075023651123047,0.5153660774230957
1713358292343813000,3.577813232421875,1.3080463409423828,-0.7846212387084961,0.8670821785926819
1713358292353792500,3.58779248046875,0.06065535545349121,-0.4366035461425781,1.420546054840088
1713358292363741200,3.5977412109375,-0.38489866256713867,0.13774490356445312,2.1474666595458984
1713358292373720300,3.60772021484375,-1.0785014629364014,0.7894906997680664,1.9549485445022583
1713358292383699700,3.61769970703125,-1.1920223236083984,1.8418779373168945,0.4813048243522644
1713358292393648400,3.6276484375,-2.054481267929077,1.8975238800048828,-1.5249202251434326
1713358292403627800,3.637627685546875,-3.4546618461608887,0.9179849624633789,-3.439279794692993
1713358292413607000,3.64760693359375,-3.3616881370544434,-1.1668453216552734,-5.4622979164123535
1713358292423555600,3.6575556640625,-2.696861982345581,-4.300234794616699,-7.218864917755127
1713358292433535000,3.667534912109375,-2.5746188163757324,-7.4594221115112305,-8.67381477355957
1713358292443483600,3.677483642578125,-2.199103593826294,-9.357409477233887,-7.077073574066162
1713358292453462800,3.687462890625,-1.4374616146087646,-9.154475212097168,-3.0600180625915527
1713358292463442200,3.697442138671875,-1.9896113872528076,-7.48475456237793,0.6396980285644531
1713358292473390800,3.707390869140625,-4.6949663162231445,-6.326979637145996,2.154797077178955
1713358292483370000,3.717369873046875,-7.2555036544799805,-5.459942817687988,4.116706848144531
1713358292493349400,3.727349365234375,-9.477030754089355,-3.779721260070801,7.052189826965332
1713358292503328500,3.73732861328125,-11.833040237426758,-1.9486207962036133,6.760916233062744
1713358292513277200,3.747277099609375,-11.012123107910156,-0.002483367919921875,6.343211650848389
1713358292523256600,3.757256591796875,-7.916563987731934,0.9187822341918945,4.683515548706055
1713358292533235700,3.767235595703125,-2.7513816356658936,1.3472366333007812,4.015830993652344
1713358292543184600,3.7771845703125,1.5685927867889404,1.6059789657592773,3.1711463928222656
1713358292553163800,3.787163818359375,3.635582447052002,1.8156299591064453,2.7680070400238037
1713358292563143000,3.797142822265625,4.171219825744629,2.0754776000976562,1.5711675882339478
1713358292573091800,3.807091796875,3.6587822437286377,2.5029945373535156,0.907805323600769
1713358292583071000,3.817071044921875,2.677471399307251,2.6822614669799805,0.25738614797592163
1713358292593050400,3.82705029296875,2.6833531856536865,3.814887046813965,0.6300262808799744
1713358292602999000,3.8369990234375,1.94966459274292,4.568109512329102,0.41844409704208374
1713358292612978200,3.846978271484375,1.1577707529067993,4.97430419921875,-0.5288243889808655
1713358292622957600,3.85695751953125,0.23891538381576538,5.457569122314453,-0.9982067942619324
1713358292632906200,3.86690625,-0.26453977823257446,5.480883598327637,-1.2192766666412354
1713358292642885400,3.876885498046875,-0.4493240416049957,4.856886863708496,-1.2375953197479248
1713358292652864800,3.88686474609375,-0.47613710165023804,4.065127372741699,-1.411223292350769
1713358292662813400,3.8968134765625,-0.4022406041622162,3.4362306594848633,-1.8584799766540527
1713358292672792600,3.90679248046875,-0.01857222616672516,3.0107240676879883,-2.2003908157348633
1713358292682772000,3.91677197265625,0.09643638134002686,2.6308765411376953,-2.2988548278808594
1713358292692720600,3.926720703125,0.23436787724494934,2.516355514526367,-2.1807610988616943
1713358292702700000,3.936699951171875,0.34781360626220703,2.578052520751953,-1.9879662990570068
1713358292712679200,3.94667919921875,0.4282768964767456,2.748727798461914,-1.7533769607543945
1713358292722627800,3.9566279296875,0.722483217716217,2.901850700378418,-1.540582299232483
1713358292732607200,3.966607177734375,0.9454188346862793,2.8202123641967773,-0.8964476585388184
1713358292742556000,3.976555908203125,1.2373334169387817,2.6304683685302734,0.22335290908813477
1713358292752535000,3.98653515625,1.8393031358718872,2.451356887817383,1.695016622543335
1713358292762514400,3.996514404296875,2.4481520652770996,2.222174644470215,3.615579843521118
1713358292772463000,4.006463134765625,2.8100426197052,2.0019187927246094,6.138836860656738
1713358292782442200,4.016442138671875,2.939265489578247,1.4819612503051758,8.33974552154541
1713358292792422000,4.026421875,2.3608877658843994,-0.08691883087158203,8.767021179199219
1713358292802401300,4.0364013671875,1.1841661930084229,-2.1128969192504883,7.404629230499268
1713358292812350000,4.046349853515625,-0.6092719435691833,-4.361025810241699,4.4114532470703125
1713358292822329000,4.0563291015625,-2.225806713104248,-6.249616622924805,0.3707559108734131
1713358292832308500,4.06630859375,-2.761909246444702,-7.413914680480957,-2.8053395748138428
1713358292842257200,4.076257080078125,-2.9693832397460938,-8.955251693725586,-7.184340476989746
1713358292852236300,4.086236328125,0.012650027871131897,-8.508875846862793,-9.572858810424805
1713358292862215700,4.096215576171875,2.720991373062134,-4.064842224121094,-4.0499348640441895
1713358292872164400,4.106164306640625,3.77040696144104,0.6040582656860352,0.6668434143066406
1713358292882143700,4.116143798828125,2.5849177837371826,3.003265380859375,2.270590305328369
1713358292892123000,4.126122802734375,1.0869600772857666,0.4530181884765625,3.2712855339050293
1713358292902071600,4.136071533203125,2.4060628414154053,-5.234066963195801,3.162930488586426
1713358292912051000,4.146051025390625,0.7944387197494507,-9.48802375793457,0.7236948013305664
1713358292922030000,4.156030029296875,-2.930262327194214,-10.59649658203125,-7.5439887046813965
1713358292931978800,4.165978759765625,-5.914848327636719,-5.3778076171875,-9.960145950317383
1713358292941958100,4.175958251953125,-7.1385416984558105,-0.20717144012451172,-2.641207695007324
1713358292951937300,4.185937255859375,-5.402390003204346,1.2244377136230469,-2.5080556869506836
1713358292961886000,4.195885986328125,-3.361738443374634,1.3085641860961914,-1.552332878112793
1713358292971865300,4.205865234375,-1.5531190633773804,-0.21089839935302734,0.5499637126922607
1713358292981844500,4.215844482421875,-1.4026159048080444,-2.220735549926758,1.7450510263442993
1713358292991793400,4.22579345703125,-2.167154550552368,-2.140735626220703,2.000553607940674
1713358293001772500,4.2357724609375,-1.7550365924835205,-0.6246480941772461,1.637939453125
1713358293011751700,4.245751708984375,-0.12974023818969727,0.6915407180786133,0.06937050819396973
1713358293021700600,4.25570068359375,1.9816831350326538,1.877913475036621,-2.3825149536132812
1713358293031679700,4.2656796875,3.4987385272979736,2.344271659851074,-4.590603351593018
1713358293041628400,4.27562841796875,3.7361249923706055,1.9427499771118164,-6.600117206573486
1713358293051607800,4.28560791015625,2.8907673358917236,1.1019611358642578,-7.771856784820557
1713358293061587000,4.2955869140625,1.5531690120697021,0.4345541000366211,-7.823974609375
1713358293071566300,4.30556640625,0.6796761751174927,0.2516317367553711,-6.284874439239502
1713358293081515000,4.315514892578125,0.17414605617523193,0.687321662902832,-4.270028591156006
1713358293091494100,4.325494140625,0.790308952331543,1.3991575241088867,-3.1259403228759766
1713358293101473500,4.3354736328125,0.9991400241851807,2.023512840270996,-1.7052422761917114
1713358293111452700,4.34545263671875,0.265893816947937,2.077570915222168,-1.5690370798110962
1713358293121401300,4.3554013671875,-0.40513670444488525,1.879720687866211,-1.8673720359802246
1713358293131380700,4.365380615234375,0.43487441539764404,1.9673023223876953,-2.448582172393799
1713358293141359900,4.37535986328125,1.494823932647705,2.3757591247558594,-2.811084747314453
1713358293151308800,4.385308837890625,1.6180825233459473,2.707341194152832,-2.953500270843506
1713358293161288000,4.395287841796875,1.2142047882080078,2.6155471801757812,-2.6715593338012695
1713358293171267000,4.40526708984375,0.44795286655426025,2.125544548034668,-2.088230609893799
1713358293181216000,4.415216064453125,-0.009745240211486816,1.6323566436767578,-1.2577838897705078
1713358293191195100,4.425195068359375,0.053934574127197266,1.266775131225586,-0.6310796737670898
1713358293201174500,4.435174560546875,0.3623546361923218,0.9262752532958984,-0.13027341663837433
1713358293211123200,4.445123291015625,0.9465608596801758,0.41834545135498047,0.46978557109832764
1713358293221102300,4.455102294921875,1.6717942953109741,0.5680055618286133,1.1130790710449219
1713358293231051000,4.465051025390625,1.9930355548858643,1.2344303131103516,2.633013963699341
1713358293241030400,4.475030517578125,1.5457907915115356,2.0446548461914062,2.472201347351074
1713358293251009500,4.485009521484375,1.4588414430618286,2.460744857788086,3.165764331817627
1713358293260958200,4.494958251953125,0.45420050621032715,2.436659812927246,2.354426622390747
1713358293270937600,4.5049375,-0.288006067276001,1.6936969757080078,0.6802971363067627
1713358293280916700,4.514916748046875,0.25299549102783203,1.524092674255371,1.1267015933990479
1713358293290865700,4.52486572265625,1.0921406745910645,1.1285829544067383,1.8107765913009644
1713358293300844800,4.5348447265625,1.766270637512207,0.3776273727416992,2.2240264415740967
1713358293310824000,4.544823974609375,2.090975046157837,-0.012848854064941406,3.1182427406311035
1713358293320772900,4.55477294921875,2.835146188735962,-0.45503711700439453,3.2456233501434326
1713358293330752000,4.564751953125,3.9273383617401123,-0.6648464202880859,2.7259068489074707
1713358293340700700,4.57470068359375,5.277866363525391,-0.8645772933959961,1.7415684461593628
1713358293350680000,4.58468017578125,6.575260162353516,-0.5585689544677734,1.0472972393035889
1713358293360659200,4.5946591796875,7.840715408325195,0.08901023864746094,0.7975594997406006
1713358293370638600,4.604638671875,8.30612850189209,1.1446828842163086,1.6761928796768188
1713358293380587300,4.614587158203125,6.434088706970215,2.2200918197631836,2.908843517303467
1713358293390566400,4.62456640625,4.7345170974731445,2.7092180252075195,3.4721288681030273
1713358293400545800,4.6345458984375,3.810795307159424,1.5901212692260742,4.106335163116455
1713358293410494500,4.644494384765625,4.155996322631836,-0.9822797775268555,3.9566197395324707
1713358293420473600,4.6544736328125,3.708987236022949,-3.228696823120117,2.9485371112823486
1713358293430453000,4.664452880859375,3.7770254611968994,-4.834525108337402,1.8819773197174072
1713358293440401700,4.674401611328125,4.987860679626465,-5.109095573425293,2.0076754093170166
1713358293450381000,4.684381103515625,4.189833641052246,-4.170864105224609,3.326846122741699
1713358293460360200,4.694360107421875,2.1641693115234375,-2.884737014770508,3.89286470413208
1713358293470308900,4.704308837890625,1.2960138320922852,-1.341456413269043,2.947235107421875
1713358293480288300,4.714288330078125,0.2972683906555176,0.12395381927490234,1.9740972518920898
1713358293490267400,4.724267333984375,-1.0027246475219727,1.0978765487670898,1.0876635313034058
1713358293500216000,4.734216064453125,-1.3780215978622437,1.8544578552246094,0.12493288516998291
1713358293510195500,4.744195556640625,-1.4251594543457031,2.2169408798217773,-1.5945135354995728
1713358293520174600,4.754174560546875,-2.0545578002929688,1.5302162170410156,-4.622840881347656
1713358293530123300,4.764123291015625,-3.056173801422119,-0.3204793930053711,-7.259254455566406
1713358293540102700,4.7741025390625,-3.698000431060791,-3.3539905548095703,-9.591649055480957
1713358293550081800,4.784081787109375,-2.9133691787719727,-7.162588119506836,-13.443830490112305
1713358293560030700,4.79403076171875,-1.6575942039489746,-10.8377685546875,-16.383338928222656
1713358293570009900,4.804009765625,-1.7153654098510742,-12.514264106750488,-15.116580963134766
1713358293579989000,4.813989013671875,-2.8112633228302,-10.549056053161621,-9.258065223693848
1713358293589938000,4.82393798828125,-6.063694953918457,-7.961816787719727,-4.396245002746582
1713358293599917000,4.8339169921875,-9.433043479919434,-6.754060745239258,-1.5504950284957886
1713358293609896400,4.843896484375,-11.41611099243164,-5.565411567687988,1.2188328504562378
1713358293619845000,4.85384521484375,-10.942564964294434,-3.845724105834961,4.599301815032959
1713358293629824300,4.86382421875,-9.474109649658203,-2.5321044921875,7.72800874710083
1713358293639803600,4.8738037109375,-8.896873474121094,-0.148773193359375,9.571585655212402
1713358293649752300,4.88375244140625,-6.575071334838867,1.5507326126098633,9.833046913146973
1713358293659731500,4.8937314453125,-2.6284496784210205,2.600940704345703,8.084542274475098
1713358293669710800,4.9037109375,1.782005786895752,3.277830123901367,5.843151092529297
1713358293679690000,4.91368994140625,4.973876476287842,3.078176498413086,3.943237543106079
1713358293689638700,4.923638671875,6.405206680297852,3.554208755493164,2.5399794578552246
1713358293699618000,4.9336181640625,5.500233173370361,3.7696475982666016,0.7316588759422302
1713358293709597200,4.94359716796875,3.4900450706481934,4.148058891296387,-0.9071565866470337
1713358293719545900,4.9535458984375,1.934667706489563,4.440852165222168,-1.994145154953003
1713358293729525200,4.963525146484375,0.7133930325508118,4.839849472045898,-2.933361291885376
1713358293739504400,4.97350439453125,0.18610315024852753,5.663128852844238,-3.2805824279785156
1713358293749453300,4.983453369140625,0.32423219084739685,6.181728363037109,-3.242245674133301
1713358293759432400,4.993432373046875,0.6277098059654236,6.391572952270508,-2.640005111694336
1713358293769381000,5.003381103515625,0.5740982294082642,6.379254341125488,-2.252370595932007
1713358293779360500,5.013360595703125,0.48789066076278687,6.090457916259766,-2.174489974975586
1713358293789339600,5.023339599609375,0.36912357807159424,5.461811065673828,-2.4498651027679443
1713358293799288300,5.033288330078125,0.5448845624923706,4.800332069396973,-2.868647813796997
1713358293809267700,5.043267822265625,0.5178868174552917,4.290376663208008,-2.888315200805664
1713358293819246800,5.053246826171875,0.9349113702774048,3.893185615539551,-2.670278549194336
1713358293829195500,5.063195556640625,0.9427155256271362,3.58428955078125,-2.0373940467834473
1713358293839175000,5.0731748046875,1.04682457447052,3.0979671478271484,-0.9409112334251404
1713358293849154000,5.083154052734375,1.3606140613555908,2.21895694732666,0.7336322069168091
1713358293859103000,5.09310302734375,2.041757106781006,1.451155662536621,3.1541218757629395
1713358293869082000,5.10308203125,2.631514310836792,0.5546760559082031,5.987756729125977
1713358293879061200,5.113061279296875,2.4131579399108887,-1.177175521850586,7.767444610595703
1713358293889010200,5.12301025390625,1.7964153289794922,-3.5682220458984375,8.59759521484375
1713358293898989300,5.1329892578125,0.6502047181129456,-5.929790496826172,7.834226608276367
1713358293908968700,5.14296875,-3.4747841358184814,-8.015287399291992,4.45230770111084
1713358293918917400,5.15291748046875,-3.874903917312622,-8.650836944580078,0.42020183801651
1713358293928896500,5.162896484375,-0.8909918665885925,-7.595256805419922,-3.3059866428375244
1713358293938876000,5.1728759765625,1.5660520792007446,-5.175784111022949,-6.370713233947754
1713358293948855000,5.18285498046875,3.994499444961548,-2.3232221603393555,-8.359969139099121
1713358293958803700,5.1928037109375,4.289258003234863,0.22393512725830078,-5.556727886199951
1713358293968783000,5.202783203125,5.268849849700928,0.6917848587036133,-0.48027878999710083
1713358293978762200,5.21276220703125,5.790472507476807,-0.7464084625244141,3.557213544845581
1713358293988711000,5.2227109375,5.888025760650635,-3.62882137298584,4.490948677062988
1713358293998690300,5.232690185546875,0.20271191000938416,-9.676416397094727,1.2659852504730225
1713358294008669400,5.24266943359375,-7.644665718078613,-18.666885375976562,-3.445700168609619
1713358294018618400,5.252618408203125,-16.904409408569336,-18.060842514038086,-4.770923614501953
1713358294028597500,5.262597412109375,-16.67989158630371,-7.886363983154297,-5.805331230163574
1713358294038576600,5.27257666015625,-6.939635753631592,-1.075582504272461,-2.4435861110687256
1713358294048525600,5.282525634765625,1.2208008766174316,2.7104873657226562,-0.08020210266113281
1713358294058504700,5.292504638671875,4.514097213745117,5.194817543029785,0.6914703845977783
1713358294068484000,5.302484130859375,1.7747479677200317,5.108083724975586,1.9865435361862183
1713358294078432800,5.312432861328125,0.5762908458709717,4.764427185058594,1.9813449382781982
1713358294088412000,5.322411865234375,0.3526005744934082,5.717796325683594,0.2432185411453247
1713358294098360600,5.332360595703125,0.8990235328674316,7.268500328063965,-0.6957635879516602
1713358294108340000,5.342340087890625,2.193281650543213,6.58823299407959,-1.0020184516906738
1713358294118319000,5.352319091796875,3.6806485652923584,3.986536979675293,-3.2832441329956055
1713358294128268000,5.36226806640625,2.654757261276245,1.4812707901000977,-7.422713756561279
1713358294138247200,5.3722470703125,0.3414309024810791,-0.7888174057006836,-10.966859817504883
1713358294148226300,5.382226318359375,-1.5765180587768555,-2.897808074951172,-11.755965232849121
1713358294158175200,5.39217529296875,-1.9235107898712158,-4.022943496704102,-8.36972713470459
1713358294168154400,5.402154296875,-0.1636408567428589,-2.144717216491699,-4.54667854309082
1713358294178133500,5.412133544921875,2.252443790435791,1.5467615127563477,-4.592576503753662
1713358294188082400,5.42208251953125,3.878420829772949,4.221222877502441,-1.8986892700195312
1713358294198061600,5.4320615234375,3.727809429168701,5.642664909362793,-0.2595750093460083
1713358294208041000,5.442041015625,2.393540620803833,5.970876693725586,-0.44597765803337097
1713358294217989600,5.45198974609375,1.737000823020935,5.745418548583984,-0.8315017223358154
1713358294227968800,5.46196875,1.2900501489639282,5.116416931152344,-0.21069090068340302
1713358294237948200,5.4719482421875,0.4963470697402954,3.336395263671875,0.6049751043319702
1713358294247927300,5.48192724609375,0.26826679706573486,1.1179752349853516,1.1968450546264648
1713358294257876000,5.4918759765625,0.46614909172058105,-1.1109199523925781,2.0537233352661133
1713358294267855400,5.50185546875,0.3584662675857544,-2.532485008239746,2.879340410232544
1713358294277834500,5.51183447265625,0.011476635932922363,-2.337071418762207,3.784031629562378
1713358294287783200,5.521783203125,-0.2806413173675537,-1.536799430847168,4.538787841796875
1713358294297762600,5.531762451171875,-1.638668179512024,0.0041961669921875,3.854222059249878
1713358294307741700,5.54174169921875,-3.094963550567627,0.5952320098876953,2.3973653316497803
1713358294317690600,5.551690673828125,-1.8788326978683472,0.7692384719848633,1.3309025764465332
1713358294327669800,5.561669677734375,-0.3321809768676758,0.9267110824584961,0.522429347038269
1713358294337649000,5.57164892578125,0.7033175230026245,0.8942928314208984,0.3536093235015869
1713358294347597800,5.581597900390625,1.2617473602294922,0.6128435134887695,0.11492156982421875
1713358294357577000,5.591576904296875,1.2953122854232788,0.03736114501953125,0.7081866264343262
1713358294367556400,5.601556396484375,1.5664931535720825,-0.28544044494628906,2.1441426277160645
1713358294377505000,5.611505126953125,2.5561773777008057,-0.4994029998779297,2.533364772796631
1713358294387484200,5.621484130859375,3.5659453868865967,-0.2809772491455078,1.6903986930847168
1713358294397463600,5.631463623046875,5.130766868591309,0.35254669189453125,1.49467134475708
1713358294407412200,5.641412109375,6.372391700744629,0.8082723617553711,1.5283167362213135
1713358294417391400,5.651391357421875,7.356376647949219,1.2995386123657227,1.1953908205032349
1713358294427340300,5.66134033203125,7.439046859741211,1.8250560760498047,1.5989596843719482
1713358294437319400,5.6713193359375,6.154117584228516,2.7293758392333984,2.8017818927764893
1713358294447298600,5.681298583984375,3.68365216255188,3.2227487564086914,4.38908576965332
1713358294457247500,5.69124755859375,2.2826082706451416,2.3521814346313477,5.6445159912109375
1713358294467226600,5.7012265625,2.08152437210083,0.7043037414550781,5.948010444641113
1713358294477206000,5.7112060546875,2.2735424041748047,-0.8084487915039062,4.595803737640381
1713358294487154700,5.72115478515625,2.0139739513397217,-1.914565086364746,2.9134531021118164
1713358294497133800,5.7311337890625,1.8620619773864746,-2.3242111206054688,1.592426061630249
1713358294507113200,5.74111328125,1.692551612854004,-2.8926172256469727,0.3940560221672058
1713358294517092400,5.75109228515625,1.699115514755249,-3.3927841186523438,0.23964577913284302
1713358294527041000,5.761041015625,0.9673686027526855,-3.2869300842285156,-0.18147343397140503
1713358294537020400,5.7710205078125,-1.2123304605484009,-2.4730234146118164,-1.2724318504333496
1713358294546999600,5.78099951171875,-3.2825660705566406,-1.3168745040893555,-1.7109966278076172
1713358294556948200,5.7909482421875,-4.717938423156738,-0.37821197509765625,-1.5965499877929688
1713358294566927600,5.800927734375,-5.421711444854736,0.05813407897949219,-2.5259950160980225
1713358294576906800,5.81090673828125,-6.611987590789795,-0.6900577545166016,-4.969124794006348
1713358294586855700,5.820855712890625,-7.217770576477051,-2.384678840637207,-7.6238884925842285
1713358294596834800,5.830834716796875,-6.963541030883789,-4.887851715087891,-9.025693893432617
1713358294606814000,5.84081396484375,-5.668962001800537,-7.733070373535156,-8.142056465148926
1713358294616763000,5.850762939453125,-4.270539283752441,-9.820544242858887,-6.282431602478027
1713358294626742000,5.860741943359375,-3.364746570587158,-10.121973991394043,-3.729768753051758
1713358294636721200,5.87072119140625,-3.890901565551758,-8.713774681091309,-0.12103933095932007
1713358294646670000,5.880670166015625,-5.978947162628174,-6.829397201538086,2.470555067062378
1713358294656649200,5.890649169921875,-8.109819412231445,-4.671135902404785,3.4355204105377197
1713358294666628600,5.900628662109375,-8.793041229248047,-2.463791847229004,3.6778111457824707
1713358294676577300,5.910577392578125,-8.369254112243652,-0.244964599609375,3.9525320529937744
1713358294686556400,5.920556396484375,-7.632847309112549,1.8783893585205078,3.7014169692993164
1713358294696535800,5.930535888671875,-6.998465061187744,3.306899070739746,1.9539966583251953
1713358294706484500,5.940484375,-4.451892852783203,4.121003150939941,0.2998795509338379
1713358294716463600,5.950463623046875,-0.29586905241012573,4.102202415466309,0.2066851556301117
1713358294726443000,5.960443115234375,3.337043285369873,3.455925941467285,0.2962171733379364
1713358294736391700,5.9703916015625,4.891980171203613,2.8459768295288086,0.4623797833919525
1713358294746370800,5.980370849609375,5.127718448638916,2.426219940185547,0.08654196560382843
1713358294756319700,5.99031982421875,4.079263210296631,2.4069461822509766,-0.59566330909729
1713358294766299000,6.000298828125,2.493443489074707,2.9477853775024414,-0.6759672164916992
1713358294776278300,6.0102783203125,1.1281486749649048,3.345571517944336,-0.25358593463897705
1713358294786227000,6.02022705078125,0.2680084705352783,3.512493133544922,-0.7103245854377747
1713358294796206000,6.0302060546875,-0.8334062099456787,3.7240381240844727,-0.5530221462249756
1713358294806185500,6.040185546875,-1.7315764427185059,3.755894660949707,-0.1777859777212143
1713358294816164600,6.05016455078125,-2.2630186080932617,3.6852874755859375,0.003853987902402878
1713358294826144000,6.06014404296875,-2.2080583572387695,3.610797882080078,0.3053317070007324
1713358294836092700,6.0700927734375,-1.6517285108566284,3.5921707153320312,0.28474733233451843
1713358294846071800,6.08007177734375,-1.210439682006836,3.6196441650390625,0.06825662404298782
1713358294856051200,6.09005126953125,-0.8144292831420898,3.6953372955322266,-0.20320945978164673
1713358294866000000,6.099999755859375,-0.1577880084514618,3.7161178588867188,-0.5233107805252075
1713358294875979000,6.10997900390625,0.5038192868232727,3.5504980087280273,-0.6510351300239563
1713358294885928000,6.119927978515625,0.9882363677024841,3.2871274948120117,-0.4647185504436493
1713358294895907000,6.129906982421875,1.4931700229644775,3.0311717987060547,0.24949386715888977
1713358294905886200,6.13988623046875,1.8611681461334229,2.634511947631836,1.3392404317855835
1713358294915835100,6.149835205078125,2.171037435531616,2.2599496841430664,2.388051986694336
1713358294925814300,6.159814208984375,2.159921407699585,1.7258596420288086,3.2578225135803223
1713358294935793700,6.169793701171875,1.897569179534912,0.9131698608398438,4.080580711364746
1713358294945742300,6.179742431640625,1.1109811067581177,-0.012664794921875,4.781422138214111
1713358294955721500,6.189721435546875,-0.1649022102355957,-0.981877326965332,4.439295768737793
1713358294965700900,6.199700927734375,-1.8804149627685547,-1.8028907775878906,2.8080244064331055
1713358294975649500,6.2096494140625,-3.191680431365967,-2.6571950912475586,0.8671886324882507
1713358294985628700,6.219628662109375,-2.580814838409424,-2.718441963195801,-0.46704524755477905
1713358294995608000,6.229608154296875,-0.533161461353302,-2.6364383697509766,-2.1948962211608887
1713358295005556700,6.239556640625,2.5429863929748535,-2.8829030990600586,-3.5283780097961426
1713358295015535900,6.249535888671875,5.379948139190674,-2.476104736328125,-2.343351125717163
1713358295025515300,6.259515380859375,5.331450939178467,-1.2614679336547852,1.6798572540283203
1713358295035464000,6.2694638671875,2.4130263328552246,-1.2831487655639648,4.4040327072143555
1713358295045443000,6.279443115234375,-0.0841296911239624,-4.1355485916137695,5.234111785888672
1713358295055392000,6.28939208984375,-2.6817760467529297,-8.089418411254883,3.7871389389038086
1713358295065371100,6.29937109375,-9.156576156616211,-13.66561222076416,-3.483583450317383
1713358295075350500,6.3093505859375,-15.506654739379883,-17.872297286987305,-9.210875511169434
1713358295085329700,6.31932958984375,-13.979724884033203,-9.675542831420898,-5.557084560394287
1713358295095278300,6.3292783203125,-6.016288757324219,-1.7579574584960938,-3.09013295173645
1713358295105257700,6.3392578125,-1.3398363590240479,1.755539894104004,-1.1860758066177368
1713358295115236900,6.34923681640625,0.9851537346839905,3.1178808212280273,0.9626014232635498
1713358295125216300,6.35921630859375,1.0089471340179443,2.432478904724121,2.635432004928589
1713358295135165000,6.3691650390625,0.03762243688106537,0.740117073059082,3.3146626949310303
1713358295145144000,6.37914404296875,-0.5585651397705078,-0.09507083892822266,0.9684388637542725
1713358295155123500,6.38912353515625,-1.595751404762268,0.46256446838378906,-0.8178822994232178
1713358295165072100,6.399072021484375,-1.4053292274475098,0.8597078323364258,-3.1074748039245605
1713358295175051300,6.40905126953125,-0.4218595623970032,0.5761632919311523,-5.119714736938477
1713358295185030700,6.41903076171875,-0.00847277045249939,0.0025720596313476562,-6.482905387878418
1713358295194979300,6.428979248046875,-0.1572502851486206,-0.3336038589477539,-6.637027740478516
1713358295204958500,6.43895849609375,-0.5482702255249023,0.42786121368408203,-4.450970649719238
1713358295214937900,6.448937744140625,0.9020137786865234,2.002516746520996,-2.8492493629455566
1713358295224886500,6.458886474609375,0.544264018535614,2.8482675552368164,-2.204921007156372
1713358295234866000,6.468865966796875,0.21638000011444092,3.0958023071289062,-1.528164267539978
1713358295244814600,6.478814697265625,0.3752322196960449,2.8753843307495117,-2.580716609954834
1713358295254793700,6.488793701171875,1.366011381149292,3.313243865966797,-3.295441150665283
1713358295264773000,6.498773193359375,2.5265555381774902,3.9501419067382812,-3.7608604431152344
1713358295274721800,6.5087216796875,3.0759716033935547,4.435677528381348,-3.8538999557495117
1713358295284701000,6.518700927734375,3.1477067470550537,4.147902488708496,-3.081068515777588
1713358295294680300,6.528680419921875,2.4228906631469727,2.794571876525879,-2.4159114360809326
1713358295304629000,6.53862890625,1.2506415843963623,1.3103399276733398,-1.5717768669128418
1713358295314608000,6.548608154296875,0.4336792230606079,0.019148826599121094,0.08169472217559814
1713358295324587500,6.55858740234375,0.12419438362121582,-1.1300315856933594,1.6390235424041748
1713358295334536200,6.5685361328125,-0.15286219120025635,-1.8819494247436523,3.206124782562256
1713358295344515600,6.578515625,-0.22702538967132568,-2.461623191833496,4.843976974487305
1713358295354494700,6.58849462890625,0.1395479440689087,-2.436751365661621,5.659470558166504
1713358295364443400,6.598443359375,0.7715437412261963,-1.5148553848266602,6.1630706787109375
1713358295374422800,6.6084228515625,1.2109493017196655,0.026907920837402344,5.808738708496094
1713358295384402000,6.61840185546875,1.206011176109314,1.4461336135864258,5.104413986206055
1713358295394381300,6.62838134765625,1.1095858812332153,2.3874692916870117,4.5526957511901855
1713358295404330000,6.638330078125,1.116115927696228,2.394491195678711,4.552618026733398
1713358295414309000,6.64830908203125,0.9321296215057373,1.619673728942871,4.628405570983887
1713358295424288500,6.65828857421875,0.562867283821106,0.8243846893310547,4.850732803344727
1713358295434237200,6.6682373046875,0.7652227878570557,0.2918119430541992,5.026739597320557
1713358295444216300,6.67821630859375,1.8492145538330078,-0.30195140838623047,4.514831066131592
1713358295454195700,6.68819580078125,3.1115665435791016,-0.7289447784423828,3.5067734718322754
1713358295464144400,6.698144287109375,4.183014869689941,-0.5685272216796875,2.8633971214294434
1713358295474123500,6.70812353515625,4.892001152038574,-0.08696556091308594,2.3166844844818115
1713358295484103000,6.71810302734375,5.486324310302734,0.7727479934692383,1.8661773204803467
1713358295494051600,6.728051513671875,5.958179950714111,1.436995506286621,1.2688076496124268
1713358295504030700,6.73803076171875,5.225303649902344,1.7329034805297852,1.3143526315689087
1713358295514010000,6.748010009765625,3.2060489654541016,1.9587087631225586,2.3996434211730957
1713358295523958800,6.757958740234375,2.2167770862579346,1.7479543685913086,3.1472725868225098
1713358295533938200,6.767938232421875,1.7189483642578125,1.1795663833618164,3.4109160900115967
1713358295543917300,6.777917236328125,1.9556968212127686,0.7103843688964844,3.330742597579956
1713358295553866000,6.787865966796875,3.2954204082489014,0.6368598937988281,2.6678829193115234
1713358295563845400,6.797845458984375,4.60597038269043,0.6642475128173828,1.7454240322113037
1713358295573794000,6.8077939453125,4.852302551269531,0.5965433120727539,1.108654260635376
1713358295583773200,6.817773193359375,3.904757022857666,0.5176296234130859,-0.12495213747024536
1713358295593752600,6.827752685546875,3.2065601348876953,1.0969161987304688,-1.6169168949127197
1713358295603701200,6.837701171875,2.0065293312072754,1.4531192779541016,-2.9952425956726074
1713358295613680400,6.847680419921875,0.13913536071777344,1.2221088409423828,-3.426923990249634
1713358295623659800,6.85765966796875,-1.469254732131958,0.582972526550293,-3.8946821689605713
1713358295633608400,6.8676083984375,-2.651562213897705,-0.3870878219604492,-4.7032470703125
1713358295643587800,6.877587890625,-3.872441530227661,-2.8783884048461914,-6.894434452056885
1713358295653567000,6.88756689453125,-5.108745098114014,-8.395569801330566,-10.012791633605957
1713358295663546000,6.897546142578125,-5.95030403137207,-15.029123306274414,-12.821556091308594
1713358295673495000,6.9074951171875,-7.782373428344727,-18.138427734375,-12.041999816894531
1713358295683474200,6.91747412109375,-9.833009719848633,-14.634078025817871,-5.223329067230225
1713358295693453600,6.92745361328125,-11.221696853637695,-11.058565139770508,-0.01298302412033081
1713358295703402200,6.93740234375,-10.711050033569336,-8.375715255737305,5.018943786621094
1713358295713381400,6.94738134765625,-11.254742622375488,-6.112570762634277,9.014030456542969
1713358295723360800,6.95736083984375,-11.112470626831055,-3.2148962020874023,14.837188720703125
1713358295733309400,6.967309326171875,-9.478647232055664,-0.1895589828491211,17.86960792541504
1713358295743288600,6.97728857421875,-6.949770927429199,1.7840824127197266,14.518232345581055
1713358295753268000,6.98726806640625,-3.138376474380493,3.4251928329467773,10.311180114746094
1713358295763216600,6.997216552734375,0.9928574562072754,4.05385684967041,6.3606061935424805
1713358295773195800,7.00719580078125,4.356168746948242,3.49227237701416,2.229114055633545
1713358295783175200,7.017175048828125,5.2090535163879395,2.504683494567871,-1.0094029903411865
1713358295793123800,7.027123779296875,3.1682276725769043,2.024163246154785,-3.226884126663208
1713358295803103200,7.037103271484375,1.8817298412322998,2.0140552520751953,-4.008744716644287
1713358295813082400,7.047082275390625,1.8792730569839478,2.567683219909668,-3.258033275604248
1713358295823031000,7.057031005859375,0.5522847771644592,3.013998031616211,-2.2584846019744873
1713358295833010400,7.067010498046875,-0.23524761199951172,3.77706241607666,-1.9089581966400146
1713358295842989600,7.076989501953125,-0.48855483531951904,4.199912071228027,-1.7912049293518066
1713358295852938200,7.086938232421875,-0.21830999851226807,4.0685224533081055,-1.5710546970367432
1713358295862917600,7.096917724609375,0.4551210403442383,3.6705331802368164,-1.4238953590393066
1713358295872866300,7.1068662109375,1.0631635189056396,3.254754066467285,-1.6433682441711426
1713358295882845400,7.116845458984375,1.2899255752563477,2.81888484954834,-1.9218223094940186
1713358295892824800,7.126824951171875,1.1753032207489014,2.2318496704101562,-2.4008450508117676
1713358295902773500,7.1367734375,0.755127489566803,1.6399011611938477,-2.986250162124634
1713358295912753000,7.1467529296875,0.2765752077102661,1.172013282775879,-3.1410093307495117
1713358295922732000,7.15673193359375,-0.26867568492889404,0.9568109512329102,-2.7782084941864014
1713358295932711200,7.166711181640625,-0.4954455494880676,0.807429313659668,-2.146876811981201
1713358295942660000,7.17666015625,0.12304413318634033,0.8234682083129883,-1.3867744207382202
1713358295952639200,7.18663916015625,1.070143699645996,1.0586519241333008,-0.6185868978500366
1713358295962618400,7.196618408203125,1.741255283355713,1.4068489074707031,0.17684726417064667
1713358295972567300,7.2065673828125,2.141638994216919,1.8485603332519531,1.163053274154663
1713358295982546400,7.21654638671875,2.1970081329345703,2.1567678451538086,2.0754547119140625
1713358295992525800,7.22652587890625,1.8578742742538452,2.1099300384521484,2.890028238296509
1713358296002474500,7.236474609375,1.6926623582839966,1.6445236206054688,3.3915367126464844
1713358296012453600,7.24645361328125,1.1027703285217285,1.0579042434692383,4.523013114929199
1713358296022433000,7.25643310546875,0.006886303424835205,-0.0029048919677734375,4.609182357788086
1713358296032381700,7.266381591796875,-1.4973020553588867,-1.4555444717407227,3.725304126739502
1713358296042360800,7.27636083984375,-2.430474281311035,-2.7787694931030273,2.2234718799591064
1713358296052340200,7.28634033203125,-3.4648356437683105,-3.7890710830688477,-0.3381338119506836
1713358296062289000,7.296288818359375,-5.4961256980896,-4.241591453552246,-3.4687414169311523
1713358296072268000,7.30626806640625,-5.89609432220459,-3.108771324157715,-4.768458366394043
1713358296082247400,7.316247314453125,-3.7480053901672363,-0.49979591369628906,-3.4581923484802246
1713358296092196000,7.326196044921875,-1.4938440322875977,1.6673946380615234,-0.7769874334335327
1713358296102175500,7.336175537109375,-0.37609076499938965,0.6081657409667969,0.34889739751815796
1713358296112154600,7.346154541015625,0.03712260723114014,-4.279022216796875,-1.4639918804168701
1713358296122103300,7.356103271484375,1.848851203918457,-10.564004898071289,-5.111360549926758
1713358296132082700,7.366082763671875,3.1162712574005127,-12.855903625488281,-6.135458469390869
1713358296142061800,7.376061767578125,1.079087257385254,-12.540166854858398,-6.297294616699219
1713358296152010500,7.386010498046875,-3.322105646133423,-7.82209587097168,-5.981740951538086
1713358296161990000,7.395989990234375,-5.139625549316406,-1.3566360473632812,-2.611903190612793
1713358296171969000,7.405968994140625,-3.6457953453063965,1.729548454284668,-0.7470189332962036
1713358296181917700,7.415917724609375,-1.6707435846328735,1.6770133972167969,0.7976963520050049
1713358296191897000,7.42589697265625,-0.8672102093696594,-0.33852291107177734,2.737480401992798
1713358296201845800,7.435845703125,-1.1744844913482666,-1.8096189498901367,3.0725321769714355
1713358296211825200,7.4458251953125,-2.146016836166382,-1.1480646133422852,2.3498241901397705
1713358296221804300,7.45580419921875,-2.0145280361175537,-0.07474708557128906,0.011371403932571411
1713358296231783400,7.465783447265625,-1.3411544561386108,0.35311126708984375,-3.2026312351226807
1713358296241732400,7.475732421875,0.8847399950027466,0.7222347259521484,-5.175965309143066
1713358296251711500,7.48571142578125,3.312030792236328,0.9907846450805664,-6.699173450469971
1713358296261691000,7.49569091796875,4.918856620788574,1.0653953552246094,-7.931846618652344
1713358296271670000,7.505669921875,5.539524078369141,1.6313285827636719,-8.615160942077637
1713358296281618700,7.51561865234375,5.125596046447754,3.0705080032348633,-8.418534278869629
1713358296291598000,7.52559814453125,4.041846752166748,4.70491886138916,-7.358968257904053
1713358296301577200,7.5355771484375,3.36696195602417,4.909431457519531,-6.60231351852417
1713358296311526000,7.54552587890625,2.4876060485839844,4.333996772766113,-5.469871997833252
1713358296321505300,7.55550537109375,1.5862246751785278,3.340444564819336,-4.641701698303223
1713358296331484400,7.565484375,1.0873920917510986,2.3761825561523438,-3.4191386699676514
1713358296341433000,7.57543310546875,0.5202541351318359,1.3979578018188477,-2.0802230834960938
1713358296351412500,7.58541259765625,-0.24897247552871704,0.3553199768066406,-0.6702142357826233
1713358296361391600,7.5953916015625,-1.2313544750213623,-0.5040597915649414,0.2024025321006775
1713358296371340300,7.60534033203125,-1.8763447999954224,-0.8781681060791016,0.6401549577713013
1713358296381319700,7.615319580078125,-2.055955171585083,-0.8569240570068359,1.070727825164795
1713358296391268400,7.625268310546875,-1.783036231994629,-0.5244836807250977,1.6884706020355225
1713358296401247700,7.635247802734375,-1.1146423816680908,0.08806324005126953,2.1918909549713135
1713358296411227000,7.645226806640625,-0.36039912700653076,0.732513427734375,2.4107656478881836
1713358296421175600,7.655175537109375,0.27274835109710693,1.0533523559570312,2.0335536003112793
1713358296431155000,7.665155029296875,0.6863610744476318,1.0752506256103516,1.3529279232025146
1713358296441134000,7.675134033203125,1.1222903728485107,0.7821950912475586,0.5142405033111572
1713358296451082800,7.685082763671875,1.4568570852279663,0.3924388885498047,-0.32528138160705566
1713358296461062100,7.695062255859375,1.3278828859329224,0.051756858825683594,-1.2761001586914062
1713358296471041300,7.705041259765625,0.8942432403564453,-0.23814678192138672,-2.014784336090088
1713358296480990000,7.714989990234375,0.5515023469924927,-0.23653411865234375,-2.069956064224243
1713358296490969300,7.72496923828125,0.12837529182434082,0.08207225799560547,-1.6279914379119873
1713358296500948500,7.734948486328125,-0.02152395248413086,0.43988609313964844,-1.1473331451416016
1713358296510897400,7.7448974609375,0.23348987102508545,0.6963052749633789,-0.7738170623779297
1713358296520876500,7.75487646484375,0.6269680261611938,0.8306541442871094,-0.5327944755554199
1713358296530855700,7.764855712890625,0.9982122182846069,0.8627796173095703,-0.4535362720489502
1713358296540835000,7.7748349609375,1.2144863605499268,0.7358980178833008,-0.41174256801605225
1713358296550783700,7.78478369140625,1.3017045259475708,0.5483369827270508,-0.44947516918182373
1713358296560763100,7.79476318359375,1.254156470298767,0.34552764892578125,-0.4447348117828369
1713358296570742300,7.8047421875,1.260894536972046,-0.08038616180419922,-0.5303356647491455
1713358296580691000,7.81469091796875,0.8744862079620361,-0.6144533157348633,-0.6293108463287354
1713358296590670300,7.82467041015625,-0.12035346031188965,-1.2571077346801758,-0.536089301109314
1713358296600649500,7.8346494140625,-0.7340178489685059,-1.9155149459838867,-0.34336793422698975
1713358296610598100,7.84459814453125,-0.7517284154891968,-1.6891937255859375,-0.20593011379241943
1713358296620577500,7.85457763671875,-0.9272608757019043,-0.3629465103149414,0.1423015594482422
1713358296630556700,7.864556640625,-1.1336085796356201,0.5955009460449219,0.14213335514068604
1713358296640505300,7.87450537109375,-1.0904802083969116,0.9118480682373047,0.40234923362731934
1713358296650484700,7.884484619140625,-0.6874275207519531,1.0060205459594727,0.5985171794891357
1713358296660463900,7.8944638671875,-0.26764464378356934,0.9890470504760742,0.48387956619262695
1713358296670412800,7.904412841796875,0.13947808742523193,0.7781219482421875,-0.04562950134277344
1713358296680392000,7.914391845703125,0.6660885810852051,0.4078645706176758,-0.4025912284851074
1713358296690371000,7.92437109375,1.5356513261795044,0.04471874237060547,-0.5394711494445801
1713358296700320000,7.934320068359375,2.08355712890625,0.10255241394042969,-0.5946701765060425
1713358296710299100,7.944299072265625,2.0846662521362305,0.3364219665527344,-0.8399233818054199
1713358296720278500,7.954278564453125,1.9822663068771362,0.5473909378051758,-0.9123506546020508
1713358296730227200,7.964227294921875,1.5576820373535156,0.5488719940185547,-0.8272045850753784
1713358296740206300,7.974206298828125,0.894532322883606,0.2903928756713867,-0.6473872661590576
1713358296750155000,7.984155029296875,0.29087793827056885,0.02971935272216797,-0.17510175704956055
1713358296760134400,7.994134521484375,-0.15717589855194092,-0.11417770385742188,0.4625056982040405
1713358296770113500,8.004113525390625,-0.39221346378326416,-0.10582637786865234,1.0811747312545776
1713358296780062500,8.0140625,-0.49806106090545654,-0.07935523986816406,1.640380620956421
1713358296790041600,8.02404150390625,-0.33588993549346924,-0.024950027465820312,2.0205979347229004
1713358296800020700,8.034020751953125,-0.024897217750549316,0.11028861999511719,2.2119688987731934
1713358296810000100,8.044000244140625,0.28193819522857666,0.2286548614501953,2.231273651123047
1713358296819979300,8.053979248046875,0.5977323055267334,0.37839603424072266,2.1132452487945557
1713358296829928000,8.063927978515625,0.9010465145111084,0.5623149871826172,2.0934629440307617
1713358296839907300,8.0739072265625,1.085642695426941,0.40071582794189453,1.8303444385528564
1713358296849886500,8.083886474609375,0.990885853767395,0.11638927459716797,1.4528732299804688
1713358296859835400,8.09383544921875,0.5918987989425659,-0.08063602447509766,1.0160698890686035
1713358296869814500,8.103814453125,0.282863974571228,-0.2528715133666992,0.5694593191146851
1713358296879763200,8.11376318359375,0.12544739246368408,-0.40784168243408203,0.0887448787689209
1713358296889742600,8.12374267578125,0.0047081708908081055,-0.3643941879272461,-0.44798290729522705
1713358296899721700,8.1337216796875,-0.06006312370300293,-0.21396827697753906,-0.7695685625076294
1713358296909670400,8.14367041015625,-0.08211767673492432,-0.004609107971191406,-0.8131638765335083
1713358296919649800,8.15364990234375,0.10902369022369385,0.23020553588867188,-0.8958677053451538
1713358296929629000,8.16362890625,0.5104770660400391,0.46437835693359375,-0.9379429817199707
1713358296939577600,8.17357763671875,1.0513129234313965,0.6050758361816406,-1.148361086845398
1713358296949557000,8.183556884765625,1.4258707761764526,0.612274169921875,-1.5014411211013794
1713358296959536000,8.1935361328125,1.646937608718872,0.5149774551391602,-1.9548860788345337
1713358296969485000,8.203485107421875,1.6682982444763184,0.3585548400878906,-2.312880754470825
1713358296979464200,8.213464111328125,1.4381475448608398,0.12155628204345703,-2.5276317596435547
1713358296989443300,8.223443359375,1.1355406045913696,-0.00030040740966796875,-2.637183666229248
1713358296999392300,8.233392333984375,0.761698842048645,0.08548450469970703,-2.522397994995117
1713358297009371400,8.243371337890625,0.44886505603790283,0.23978328704833984,-2.160909652709961
1713358297019350800,8.253350830078125,0.1962926983833313,0.37421131134033203,-1.700634241104126
1713358297029299500,8.263299560546875,0.1280909776687622,0.4053983688354492,-1.2620680332183838
1713358297039278600,8.273278564453125,0.18337482213974,0.3338050842285156,-0.890052318572998
1713358297049258000,8.283258056640625,0.23499029874801636,0.21240997314453125,-0.5962895154953003
1713358297059206700,8.29320654296875,0.19286292791366577,0.09631633758544922,-0.3871060609817505
1713358297069185800,8.303185791015625,0.09028255939483643,-0.045691490173339844,-0.31879353523254395
1713358297079165200,8.313165283203125,-0.053911447525024414,-0.17804908752441406,-0.36383163928985596
1713358297089113900,8.32311376953125,-0.13964390754699707,-0.29149818420410156,-0.34683096408843994
1713358297099093000,8.333093017578125,-0.14392322301864624,-0.309661865234375,-0.2898951768875122
1713358297109072400,8.343072265625,-0.08492404222488403,-0.3188495635986328,-0.2359912395477295
1713358297119051500,8.353051513671875,0.036317408084869385,-0.2734384536743164,-0.05955862998962402
1713358297129000400,8.36300048828125,0.23792999982833862,-0.1734752655029297,0.01907968521118164
1713358297138979600,8.3729794921875,0.18955940008163452,-0.15034008026123047,0.20279955863952637
1713358297148958700,8.382958740234375,0.3062816858291626,-0.046051979064941406,0.299735426902771
1713358297158907600,8.39290771484375,0.3418637812137604,0.02220916748046875,0.34319400787353516
1713358297168886800,8.40288671875,0.31873252987861633,0.06164836883544922,0.38359999656677246
1713358297178866200,8.4128662109375,0.19749510288238525,0.029552459716796875,0.5683938264846802
1713358297188814800,8.42281494140625,0.2767496109008789,0.1863861083984375,0.4936034679412842
1713358297198794000,8.4327939453125,0.13839814066886902,0.2354745864868164,0.535290002822876
1713358297208773400,8.4427734375,0.18153449892997742,0.20572185516357422,0.4014699459075928
1713358297218722000,8.45272216796875,0.0036351382732391357,0.06364154815673828,0.36148643493652344
1713358297228701200,8.462701171875,-0.09933218359947205,-0.04693603515625,0.3858354091644287
1713358297238680600,8.4726806640625,0.09775170683860779,0.08140754699707031,-0.08315587043762207
1713358297248629200,8.482629150390625,0.14680102467536926,-0.033814430236816406,0.2111070156097412
1713358297258608400,8.4926083984375,0.14928534626960754,-0.16290283203125,-0.034090518951416016
1713358297268587800,8.502587890625,0.1337977945804596,-0.07425403594970703,-0.12186539173126221
1713358297278536400,8.512536376953125,0.15049797296524048,0.028612136840820312,-0.08604848384857178
1713358297288515600,8.522515625,0.1535317599773407,0.08110618591308594,-0.04595685005187988
1713358297298464500,8.532464599609375,0.22715163230895996,0.1740093231201172,-0.09662508964538574
1713358297308443600,8.542443603515625,0.18317162990570068,0.2163858413696289,-0.01753056049346924
1713358297318423000,8.552423095703125,0.09859967231750488,0.16080856323242188,0.08758091926574707
1713358297328371700,8.562371826171875,0.10926233232021332,0.16994667053222656,-0.06836879253387451
1713358297338350800,8.572350830078125,0.021741285920143127,0.09789085388183594,-0.016385436058044434
1713358297348330200,8.582330322265625,-0.06780354678630829,0.047565460205078125,0.07564449310302734
1713358297358279000,8.59227880859375,-0.15417657792568207,0.006903648376464844,0.10760891437530518
1713358297368258000,8.602258056640625,-0.22822943329811096,-0.04082965850830078,0.18963336944580078
1713358297378237400,8.612237548828125,-0.3071812391281128,-0.0717630386352539,0.24052834510803223
1713358297388216600,8.622216552734375,-0.37133312225341797,-0.09789848327636719,0.24851739406585693
1713358297398165200,8.632165283203125,-0.40849971771240234,-0.08104896545410156,0.23289644718170166
1713358297408144600,8.64214453125,-0.4442640542984009,-0.09051895141601562,0.17409896850585938
1713358297418123800,8.652123779296875,-0.44175225496292114,-0.061767578125,0.06993961334228516
1713358297428072700,8.66207275390625,-0.4300854206085205,-0.011606216430664062,0.039966702461242676
1713358297438051800,8.6720517578125,-0.3886985778808594,0.01695728302001953,0.031352996826171875
1713358297448031000,8.682031005859375,-0.32483282685279846,0.05025482177734375,-0.027705073356628418
1713358297457980000,8.69197998046875,-0.28139162063598633,0.019069671630859375,0.025226235389709473
1713358297467959000,8.701958984375,-0.18436284363269806,-0.045505523681640625,-0.05573141574859619
1713358297477938400,8.7119384765625,-0.06538400799036026,-0.06946945190429688,-0.10940432548522949
1713358297487887000,8.72188720703125,0.018400035798549652,-0.09110546112060547,-0.09073686599731445
1713358297497866200,8.7318662109375,0.05801104009151459,-0.11287498474121094,-0.08555185794830322
1713358297507845600,8.741845703125,0.0676192194223404,-0.1275634765625,-0.024863362312316895
1713358297517794300,8.751794189453125,0.03992028534412384,-0.2044076919555664,0.10779082775115967
1713358297527773400,8.7617734375,0.03142380714416504,-0.2908048629760742,0.19340944290161133
1713358297537752800,8.7717529296875,0.042904019355773926,-0.2674398422241211,0.34974420070648193
1713358297547701500,8.781701416015625,0.001726493239402771,-0.1919384002685547,0.49572813510894775
1713358297557680600,8.7916806640625,0.007744014263153076,-0.11944961547851562,0.6270649433135986
1713358297567660000,8.801659912109375,0.07962760329246521,-0.040350914001464844,0.6406183242797852
1713358297577608700,8.811608642578125,0.11023445427417755,0.05017566680908203,0.5575828552246094
1713358297587588000,8.821588134765625,-0.2539992928504944,-0.07698822021484375,0.9029091596603394
1713358297597536800,8.831536865234375,-0.3304640054702759,-0.060301780700683594,0.8232898712158203
1713358297607516000,8.841515869140625,-0.24240794777870178,0.002155303955078125,0.6890174150466919
1713358297617495300,8.851495361328125,-0.23350992798805237,-0.030626296997070312,0.6075050830841064
1713358297627444000,8.86144384765625,-0.2562726140022278,-0.12021446228027344,0.4331543445587158
1713358297637423000,8.871423095703125,-0.3264324963092804,-0.13044452667236328,0.3004918098449707
1713358297647402500,8.881402587890625,-0.2964739203453064,-0.056854248046875,0.15001296997070312
1713358297657381600,8.891381591796875,-0.20303748548030853,-0.014500617980957031,-0.007621288299560547
1713358297667330300,8.901330322265625,-0.2145666629076004,-0.15392017364501953,0.16566336154937744
1713358297677309700,8.911309814453125,-0.0023773610591888428,-0.09012794494628906,0.035802602767944336
1713358297687288800,8.921288818359375,0.05443815886974335,-0.0025968551635742188,0.09003245830535889
1713358297697237800,8.93123779296875,0.10686925053596497,0.03695869445800781,0.15343308448791504
1713358297707217000,8.941216796875,0.1499301940202713,0.08356380462646484,0.14742624759674072
1713358297717196000,8.951196044921875,0.2207290530204773,0.11570549011230469,0.1510990858078003
1713358297727145000,8.96114501953125,0.3177646994590759,0.12872314453125,0.20475590229034424
1713358297737124000,8.9711240234375,0.34373876452445984,0.08698177337646484,0.25750720500946045
1713358297747103200,8.981103271484375,0.2944793105125427,0.05274677276611328,0.2588651180267334
1713358297757052200,8.99105224609375,0.20132362842559814,-0.01941967010498047,0.18061494827270508
1713358297767031300,9.00103125,0.1553266942501068,0.03530597686767578,0.09959185123443604
1713358297777010700,9.0110107421875,0.1261042356491089,0.16887187957763672,0.015577554702758789
1713358297786959400,9.02095947265625,0.19008076190948486,0.2473430633544922,-0.0953969955444336
1713358297796938500,9.0309384765625,0.25119084119796753,0.48361873626708984,-0.1791747808456421
1713358297806894000,9.04089404296875,0.23772528767585754,0.5141706466674805,-0.2591726779937744
1713358297816842800,9.0508427734375,0.18344610929489136,0.4923086166381836,-0.2492084503173828
1713358297826822000,9.06082177734375,0.14787647128105164,0.3368873596191406,-0.27326905727386475
1713358297836801300,9.07080126953125,0.20254695415496826,0.14365577697753906,-0.3712615966796875
1713358297846750000,9.08075,0.27949532866477966,-0.08262062072753906,-0.42546772956848145
1713358297856729000,9.09072900390625,0.28517699241638184,-0.27274036407470703,-0.4756290912628174
1713358297866708500,9.10070849609375,0.2512628436088562,-0.2812938690185547,-0.5330547094345093
1713358297876657200,9.1106572265625,0.08487322926521301,-0.15647602081298828,-0.44732046127319336
1713358297886636300,9.12063623046875,-0.09298831224441528,0.006001472473144531,-0.3295336961746216
1713358297896585200,9.130585205078125,-0.2501643896102905,0.18471813201904297,-0.2524784803390503
1713358297906564400,9.140564453125,-0.31504034996032715,0.3081789016723633,-0.2050408124923706
1713358297916543700,9.150543701171875,-0.3287469744682312,0.38143253326416016,-0.20922541618347168
1713358297926492400,9.160492431640625,-0.3251160979270935,0.3808107376098633,-0.20802438259124756
1713358297936471600,9.170471435546874,-0.3519967198371887,0.3566303253173828,-0.1989051103591919
1713358297946451000,9.180450927734375,-0.3756938874721527,0.32321739196777344,-0.24848544597625732
1713358297956430000,9.19043017578125,-0.424553245306015,0.2781696319580078,-0.2420133352279663
1713358297966409200,9.2004091796875,-0.4153507649898529,0.1809244155883789,-0.26778125762939453
1713358297976358100,9.210358154296875,-0.4563920199871063,0.10561275482177734,-0.30167996883392334
1713358297986337300,9.220337158203124,-0.4374021589756012,0.03301811218261719,-0.3864171504974365
1713358297996316700,9.230316650390625,-0.4579395055770874,-0.022676467895507812,-0.5093976259231567
1713358298006265300,9.240265380859375,-0.42239606380462646,-0.05683326721191406,-0.6437244415283203
1713358298016244500,9.250244384765624,-0.3498712182044983,-0.0839080810546875,-0.7174522876739502
1713358298026223900,9.260223876953125,-0.26414212584495544,-0.10392475128173828,-0.7330774068832397
1713358298036172500,9.270172607421875,-0.19225457310676575,-0.09775257110595703,-0.6956994533538818
1713358298046151700,9.280151611328124,-0.0852629542350769,-0.07741069793701172,-0.7172650098800659
1713358298056131000,9.290131103515625,-0.03046169877052307,-0.011986732482910156,-0.6799955368041992
1713358298066079700,9.300079833984375,0.03396424651145935,0.07936382293701172,-0.6104055643081665
1713358298076059000,9.310058837890624,0.012644708156585693,0.1320953369140625,-0.5134657621383667
1713358298086038300,9.320038330078125,-0.05528166890144348,0.11283206939697266,-0.42024362087249756
1713358298095987000,9.329987060546875,-0.08785435557365417,0.11011219024658203,-0.31162703037261963
1713358298105966300,9.33996630859375,-0.12462866306304932,0.10010719299316406,-0.1716066598892212
1713358298115915000,9.3499150390625,-0.16244515776634216,-0.024621963500976562,-0.0029834508895874023
1713358298125894100,9.35989404296875,-0.1984691619873047,-0.14429473876953125,0.07902669906616211
1713358298135873500,9.36987353515625,-0.24687138199806213,-0.23979759216308594,0.12713801860809326
1713358298145822200,9.379822265625,-0.28360486030578613,-0.27775096893310547,0.14371764659881592
1713358298155801300,9.38980126953125,-0.2897397577762604,-0.29888343811035156,0.1453533172607422
1713358298165780700,9.39978076171875,-0.26326778531074524,-0.1743011474609375,0.07756078243255615
1713358298175729400,9.4097294921875,-0.22638601064682007,0.021615982055664062,0.1552598476409912
1713358298185708500,9.41970849609375,-0.21059656143188477,0.17173290252685547,0.2059692144393921
1713358298195688000,9.42968798828125,-0.1830807328224182,0.2857646942138672,0.2319960594177246
1713358298205636600,9.43963671875,-0.1110055148601532,0.3710165023803711,0.24771571159362793
1713358298215616000,9.449615966796875,-0.10938477516174316,0.3677406311035156,0.234635591506958
1713358298225595100,9.45959521484375,-0.04956129193305969,0.3478517532348633,0.23573029041290283
1713358298235574300,9.46957421875,-0.001957237720489502,0.2896566390991211,0.18083703517913818
1713358298245523200,9.479523193359375,0.04908791184425354,0.2242717742919922,0.24737107753753662
1713358298255502300,9.48950244140625,0.010160624980926514,0.22357940673828125,0.33594727516174316
1713358298265481700,9.499481689453125,-0.07360374927520752,0.22549724578857422,0.3233851194381714
1713358298275430400,9.509430419921875,-0.17644867300987244,0.20376968383789062,0.29283618927001953
1713358298285409500,9.519409423828124,-0.22870925068855286,0.16808223724365234,0.241690993309021
1713358298295389000,9.529388916015625,-0.22845429182052612,0.06348609924316406,0.2107841968536377
1713358298305337600,9.539337646484375,-0.22088006138801575,-0.047829627990722656,0.25773322582244873
1713358298315316700,9.549316650390624,-0.27214667201042175,-0.1396617889404297,0.38265395164489746
1713358298325296000,9.559296142578125,-0.27875563502311707,-0.15473556518554688,0.5540449619293213
1713358298335244800,9.569244873046875,-0.27818119525909424,-0.15059280395507812,0.580646276473999
1713358298345224000,9.579223876953124,-0.24637040495872498,-0.1606903076171875,0.5987046957015991
1713358298355203300,9.589203369140625,-0.21243396401405334,-0.12050151824951172,0.5701737403869629
1713358298365152000,9.599152099609375,-0.16062289476394653,-0.10431957244873047,0.46725940704345703
1713358298375131400,9.60913134765625,-0.09007871150970459,-0.11220169067382812,0.39402008056640625
1713358298385110500,9.619110595703125,0.043440401554107666,-0.11318683624267578,0.34909260272979736
1713358298395059200,9.62905908203125,0.1958843469619751,-0.0834665298461914,0.3641155958175659
1713358298405038600,9.63903857421875,0.29289311170578003,-0.10190582275390625,0.5559619665145874
1713358298415017700,9.649017822265625,0.31164318323135376,-0.07752513885498047,0.8086594343185425
1713358298424966400,9.65896630859375,0.20014476776123047,-0.019867897033691406,1.0329738855361938
1713358298434945800,9.66894580078125,0.08074134588241577,0.013772010803222656,1.2426542043685913
1713358298444925000,9.678925048828125,-0.05740839242935181,0.03784942626953125,1.3128466606140137
1713358298454873600,9.68887353515625,-0.10876792669296265,0.05007648468017578,1.314955711364746
1713358298464853000,9.69885302734375,-0.13234978914260864,0.036217689514160156,1.196128487586975
1713358298474832100,9.70883203125,-0.13711726665496826,-0.0037288665771484375,1.080818772315979
1713358298484780800,9.71878076171875,-0.13509243726730347,-0.007615089416503906,0.9859960079193115
1713358298494760200,9.72876025390625,-0.14069300889968872,0.017241477966308594,0.8258018493652344
1713358298504739300,9.7387392578125,-0.10438627004623413,0.006214141845703125,0.5938490629196167
1713358298514688300,9.748688232421875,-0.0010179877281188965,-0.02625560760498047,0.4147191047668457
1713358298524667400,9.75866748046875,0.12029576301574707,-0.12081718444824219,0.24393272399902344
1713358298534646500,9.768646484375,0.1869451403617859,-0.15317821502685547,0.16318702697753906
1713358298544626000,9.7786259765625,0.19679629802703857,-0.18077850341796875,0.16262638568878174
1713358298554574600,9.78857470703125,0.12179118394851685,-0.14878559112548828,0.18968427181243896
1713358298564554000,9.798553955078125,-0.020037829875946045,-0.042975425720214844,0.23907530307769775
1713358298574533000,9.808533203125,-0.13037484884262085,0.081512451171875,0.2534334659576416
1713358298584481800,9.818481689453124,-0.1614399552345276,0.12440013885498047,0.2873711585998535
1713358298594461200,9.828461181640625,-0.18750518560409546,0.14554786682128906,0.26459836959838867
1713358298604440300,9.8384404296875,-0.19235551357269287,0.13785266876220703,0.23559319972991943
1713358298614389000,9.848388916015624,-0.17878085374832153,0.137237548828125,0.2863391637802124
1713358298624368400,9.858368408203125,-0.21545332670211792,0.1150217056274414,0.3782283067703247
1713358298634347500,9.868347412109374,-0.3246397376060486,0.08795738220214844,0.4533954858779907
1713358298644296200,9.878296142578124,-0.3592259883880615,0.07039356231689453,0.5687568187713623
1713358298654275600,9.888275634765625,-0.3714405298233032,-0.014059066772460938,0.6662801504135132
1713358298664254700,9.898254638671874,-0.4084041714668274,-0.08868885040283203,0.7092430591583252
1713358298674203600,9.90820361328125,-0.3295205235481262,-0.1201181411743164,0.6143604516983032
1713358298684182800,9.918182861328125,-0.1833292841911316,-0.06557464599609375,0.4400731325149536
1713358298694162000,9.928161865234374,-0.06682050228118896,-0.0042285919189453125,0.475740909576416
1713358298704110800,9.93811083984375,-0.05522966384887695,0.016080856323242188,0.5965458154678345
1713358298714090000,9.948090087890625,-0.07957160472869873,0.03365516662597656,0.7638638019561768
1713358298724038700,9.95803857421875,0.08706486225128174,-0.02786731719970703,0.8826651573181152
1713358298734018000,9.96801806640625,0.4551287889480591,-0.2016468048095703,0.9255708456039429
1713358298743997200,9.9779970703125,0.9563615322113037,-0.34640026092529297,0.8628876209259033
1713358298753945900,9.98794580078125,1.3076756000518799,-0.31873035430908203,0.9260963201522827
1713358298763925200,9.99792529296875,1.3990204334259033,-0.19779205322265625,0.9777863025665283
1713358298773904400,10.007904296875,1.357012152671814,-0.0817728042602539,1.04812753200531
1713358298783853300,10.017853271484375,1.2962429523468018,-0.0853567123413086,1.0208277702331543
1713358298793832400,10.02783251953125,1.3535666465759277,-0.19898414611816406,0.8034743070602417
1713358298803811600,10.0378115234375,1.4112216234207153,-0.2483682632446289,0.615951418876648
1713358298813791000,10.047791015625,1.5042250156402588,-0.3245553970336914,0.5957977771759033
1713358298823739600,10.05773974609375,1.4931762218475342,-0.463226318359375,0.6526811122894287
1713358298833718800,10.06771875,1.1860227584838867,-0.5375185012817383,0.8562904596328735
1713358298843698200,10.0776982421875,0.7220995426177979,-0.6096706390380859,0.7845948934555054
1713358298853646800,10.087646728515624,0.40809547901153564,-0.5459833145141602,0.6277910470962524
1713358298863626200,10.097626220703125,0.3333677649497986,-0.5809593200683594,0.4647153615951538
1713358298873605400,10.10760546875,0.4081622362136841,-0.6093740463256836,0.27968597412109375
1713358298883554000,10.117553955078124,0.663616418838501,-0.48781871795654297,0.3570343255996704
1713358298893533400,10.127533447265625,0.9522971510887146,-0.18536853790283203,0.5425174236297607
1713358298903512600,10.1375126953125,1.2697014808654785,0.1855478286743164,0.7398818731307983
1713358298913461200,10.147461181640624,1.4920406341552734,0.41727352142333984,0.9342869520187378
1713358298923440600,10.157440673828125,1.5565714836120605,0.5196723937988281,1.0546541213989258
1713358298933419800,10.167419677734374,1.618467092514038,0.5861654281616211,1.151816725730896
1713358298943368400,10.177368408203124,1.6108453273773193,0.6024856567382812,1.2903738021850586
1713358298953347800,10.187347900390625,1.555373191833496,0.5877552032470703,1.4252538681030273
1713358298963327000,10.197326904296874,1.4072811603546143,0.5732402801513672,1.6580102443695068
1713358298973276000,10.20727587890625,1.1161668300628662,0.5041713714599609,1.8124516010284424
1713358298983255000,10.217255126953125,0.8871732354164124,0.3640775680541992,1.8518297672271729
1713358298993234200,10.227234130859374,0.6718607544898987,0.18421173095703125,1.8662283420562744
1713358299003183000,10.23718310546875,0.48121029138565063,0.005415916442871094,1.8405685424804688
1713358299013162200,10.247162353515625,0.3400755524635315,-0.09107685089111328,1.8748536109924316
1713358299023111000,10.25711083984375,0.2875654101371765,-0.04826164245605469,1.9238367080688477
1713358299033090300,10.26709033203125,0.3623387813568115,0.08079242706298828,2.057466983795166
1713358299043069400,10.2770693359375,0.5399496555328369,0.20963478088378906,2.2601053714752197
1713358299053018000,10.28701806640625,0.72364342212677,0.35013866424560547,2.4462125301361084
1713358299062997500,10.29699755859375,0.8671333193778992,0.41881656646728516,2.565457344055176
1713358299072976600,10.3069765625,0.9840762615203857,0.4135608673095703,2.5557990074157715
1713358299082956000,10.3169560546875,1.0551481246948242,0.3273935317993164,2.4580729007720947
1713358299092904700,10.32690478515625,0.9907308220863342,0.2104473114013672,2.2229456901550293
1713358299102883800,10.3368837890625,0.8523941040039062,0.12938308715820312,2.063971996307373
1713358299112863200,10.34686328125,0.7852209210395813,-0.11942672729492188,1.7819652557373047
1713358299122812000,10.35681201171875,0.8490029573440552,-0.3208808898925781,1.681281328201294
1713358299132791300,10.366791259765625,0.8764002323150635,-0.5300693511962891,1.575009822845459
1713358299142770400,10.3767705078125,0.8779434561729431,-0.6009435653686523,1.644693374633789
1713358299152719000,10.386718994140624,0.7063368558883667,-0.8349790573120117,1.4661989212036133
1713358299162698500,10.396698486328125,0.635393500328064,-0.9023771286010742,1.3558566570281982
1713358299172677600,10.406677734375,0.7954134941101074,-0.9901599884033203,1.1452794075012207
1713358299182626300,10.416626220703124,1.1921552419662476,-1.1127233505249023,1.103602409362793
1713358299192605700,10.426605712890625,1.7534888982772827,-1.245915412902832,1.1784510612487793
1713358299202584800,10.436584716796874,2.360133171081543,-1.48028564453125,1.185779333114624
1713358299212533500,10.446533447265624,2.7370011806488037,-1.7058277130126953,1.2173359394073486
1713358299222513000,10.456512939453125,3.1927075386047363,-1.7314844131469727,1.0586234331130981
1713358299232492000,10.466491943359374,3.602156639099121,-1.6480684280395508,0.554864764213562
1713358299242441000,10.47644091796875,4.111516952514648,-1.4643049240112305,-0.32914435863494873
1713358299252420000,10.486420166015625,4.254220008850098,-1.4547233581542969,-1.2854000329971313
1713358299262399200,10.496399169921874,4.377552032470703,-1.4968652725219727,-1.9788950681686401
1713358299272348200,10.50634814453125,4.596471309661865,-1.578047752380371,-2.2282214164733887
1713358299282327300,10.516327392578125,4.496210098266602,-1.5953569412231445,-1.85236656665802
1713358299292306400,10.526306396484374,4.23578405380249,-1.462869644165039,-0.9179369211196899
1713358299302255400,10.53625537109375,4.471453666687012,-1.0969324111938477,0.04848647117614746
1713358299312234500,10.546234375,4.278600692749023,-0.8106355667114258,1.0544509887695312
1713358299322214000,10.5562138671875,3.8681514263153076,-0.5988655090332031,1.8699285984039307
1713358299332162600,10.56616259765625,2.754070997238159,-1.0240774154663086,2.608485460281372
1713358299342141700,10.5761416015625,1.6030969619750977,-1.4064645767211914,3.0250496864318848
1713358299352090400,10.58609033203125,-0.027619600296020508,-2.012247085571289,3.1969220638275146
1713358299362069800,10.59606982421875,-0.27876853942871094,-2.358308792114258,3.1181490421295166
1713358299372049000,10.606048828125,0.3464243412017822,-2.3645219802856445,2.86979079246521
1713358299382028300,10.6160283203125,0.8930970430374146,-2.0626602172851562,2.2280378341674805
1713358299391977000,10.62597705078125,0.8758972883224487,-1.5051641464233398,1.347914695739746
1713358299401956000,10.6359560546875,0.6996291875839233,-0.8203306198120117,0.49310290813446045
1713358299411935500,10.645935546875,0.5856472253799438,-0.20286941528320312,-0.5569758415222168
1713358299421914600,10.65591455078125,0.07391989231109619,0.3934783935546875,-1.7465687990188599
1713358299431863600,10.665863525390625,-0.804254412651062,0.7296419143676758,-3.0213301181793213
1713358299441842700,10.6758427734375,-1.4044820070266724,0.5953769683837891,-4.749410629272461
1713358299451821800,10.68582177734375,-1.874756097793579,-0.13727951049804688,-5.949661731719971
1713358299461770800,10.695770751953125,-2.4082963466644287,-1.2237968444824219,-5.913288593292236
1713358299471750000,10.70575,-2.6578245162963867,-2.550264358520508,-5.140036582946777
1713358299481729300,10.715729248046875,-2.578624725341797,-3.4864721298217773,-3.726017475128174
1713358299491678000,10.725677978515625,-2.273792266845703,-3.2796106338500977,-1.497575044631958
1713358299501657000,10.735656982421874,-2.2351772785186768,-2.4752511978149414,0.9415820837020874
1713358299511636500,10.745636474609375,-2.7937726974487305,-1.9365034103393555,2.039912700653076
1713358299521585200,10.755585205078125,-3.62518310546875,-1.444993019104004,2.62576961517334
1713358299531564300,10.765564208984374,-4.482930660247803,-1.4494380950927734,2.622852087020874
1713358299541513200,10.77551318359375,-5.130336284637451,-0.7531709671020508,2.728426456451416
1713358299551492400,10.785492431640625,-5.4256367683410645,0.1689138412475586,2.6178858280181885
1713358299561471500,10.795471435546874,-4.5531005859375,0.728541374206543,1.9235975742340088
1713358299571420400,10.80542041015625,-3.0587363243103027,1.1094379425048828,1.806713581085205
1713358299581399600,10.815399658203125,-0.7120029926300049,1.5160512924194336,1.7520734071731567
1713358299591379000,10.82537890625,0.8953261375427246,1.6559839248657227,1.7854880094528198
1713358299601327600,10.83532763671875,1.3317806720733643,1.6321210861206055,1.4832260608673096
1713358299611306800,10.845306640625,0.95029217004776,1.8222084045410156,1.3522748947143555
1713358299621286100,10.8552861328125,0.2922475039958954,2.2567644119262695,1.0950896739959717
1713358299631234800,10.86523486328125,-0.009770095348358154,2.775139808654785,0.9454930424690247
1713358299641214000,10.8752138671875,-0.15186870098114014,2.9159955978393555,0.4156307578086853
1713358299651193300,10.885193359375,-0.2718347907066345,3.0957279205322266,-0.10245239734649658
1713358299661142000,10.89514208984375,-0.5578950047492981,3.2523908615112305,-0.5076677799224854
1713358299671121200,10.90512109375,-0.5596952438354492,3.252457618713379,-0.7205601930618286
1713358299681100500,10.9151005859375,-0.3798801898956299,3.1488637924194336,-0.8440275192260742
1713358299691079700,10.92507958984375,-0.328816294670105,2.994593620300293,-0.9994836449623108
1713358299701028600,10.935028564453125,-0.34983211755752563,2.7185306549072266,-1.3233394622802734
1713358299711007700,10.9450078125,-0.5659860372543335,2.4718856811523438,-1.4271948337554932
1713358299720987000,10.95498681640625,-0.6290848851203918,2.331334114074707,-1.3394821882247925
1713358299730935800,10.964935791015625,-0.5892528295516968,2.1057558059692383,-1.1762104034423828
1713358299740915000,10.9749150390625,-0.3821108937263489,1.9220447540283203,-0.8917644023895264
1713358299750894000,10.98489404296875,-0.32106274366378784,1.7061023712158203,-0.5215398669242859
1713358299760843000,10.994843017578125,-0.3452829122543335,1.4459228515625,0.01643025130033493
1713358299770822100,11.004822265625,-0.0010766386985778809,1.234649658203125,0.879286527633667
1713358299780801500,11.014801513671875,0.42133837938308716,1.0242643356323242,1.998685598373413
1713358299790750200,11.024750244140625,1.0632696151733398,0.7092580795288086,3.2752504348754883
1713358299800729300,11.034729248046874,1.4789583683013916,0.368499755859375,4.724530220031738
1713358299810708700,11.044708740234375,1.3899147510528564,-0.026474952697753906,5.9823384284973145
1713358299820657400,11.054657470703125,1.1316027641296387,-0.4969053268432617,7.095318794250488
1713358299830636500,11.064636474609374,1.2585508823394775,-1.1097841262817383,7.041666507720947
1713358299840616000,11.074615966796875,1.0457379817962646,-1.9942855834960938,5.043826580047607
1713358299850564600,11.084564697265625,-0.012275338172912598,-2.9133129119873047,2.8210039138793945
1713358299860543700,11.094543701171874,-0.7812056541442871,-4.0313215255737305,1.2057523727416992
1713358299870523100,11.104523193359375,0.2594926655292511,-5.137842178344727,-0.7590796947479248
1713358299880471800,11.114471923828125,2.5158259868621826,-5.540472030639648,-2.643219232559204
1713358299890451200,11.124451171875,3.805495500564575,-4.107683181762695,-4.113685607910156
1713358299900399900,11.13439990234375,1.8542155027389526,-2.6779708862304688,-1.657595157623291
1713358299910379000,11.14437890625,0.26530027389526367,-3.6808719635009766,2.3503665924072266
1713358299920358400,11.1543583984375,1.4640491008758545,-6.234565734863281,3.0956990718841553
1713358299930307000,11.16430712890625,-0.4381355941295624,-8.396811485290527,1.961449384689331
1713358299940286200,11.1742861328125,-4.7075910568237305,-10.297086715698242,-1.1643325090408325
1713358299950265600,11.184265625,-8.755958557128906,-10.776811599731445,-3.5809121131896973
1713358299960244700,11.19424462890625,-9.941719055175781,-6.588692665100098,-4.5290350914001465
1713358299970224000,11.20422412109375,-6.0770134925842285,-2.147909164428711,-2.6517274379730225
1713358299980172800,11.2141728515625,-1.9092037677764893,0.7401676177978516,0.21385246515274048
1713358299990152000,11.22415185546875,0.6445664763450623,2.6683712005615234,1.5498542785644531
1713358300000131300,11.23413134765625,1.255612850189209,3.935504913330078,1.8795444965362549
1713358300010080000,11.244080078125,1.1574695110321045,4.840839385986328,1.393797516822815
1713358300020059100,11.25405908203125,0.926649272441864,5.270185470581055,0.2501741647720337
1713358300030008000,11.264008056640625,1.1155985593795776,5.044870376586914,-0.3863852620124817
1713358300039987200,11.2739873046875,1.9251821041107178,3.5484771728515625,-1.3373589515686035
1713358300049966600,11.283966552734375,3.0858335494995117,1.5572080612182617,-3.281493663787842
1713358300059915300,11.293915283203125,2.6255884170532227,-0.08453750610351562,-4.957341194152832
1713358300069894400,11.303894287109374,0.778167188167572,-1.1786928176879883,-6.25480318069458
1713358300079873800,11.313873779296875,-1.4031834602355957,-1.5739917755126953,-6.662879943847656
1713358300089822500,11.323822509765625,-2.3795831203460693,-1.1381034851074219,-5.875110149383545
1713358300099801600,11.333801513671874,-1.8640975952148438,-0.047626495361328125,-3.9050331115722656
1713358300109781000,11.343781005859375,-0.12593042850494385,1.6109943389892578,-3.1033291816711426
1713358300119729700,11.353729736328125,1.5643583536148071,3.4365406036376953,-3.149921178817749
1713358300129708800,11.363708740234374,2.601503849029541,4.7492780685424805,-3.4635887145996094
1713358300139688200,11.373688232421875,2.785811424255371,5.178692817687988,-3.8962292671203613
1713358300149636900,11.383636962890625,2.56770658493042,5.455535888671875,-3.8084821701049805
1713358300159616000,11.393615966796874,2.7387425899505615,5.518072128295898,-3.2173116207122803
1713358300169595400,11.403595458984375,2.363192081451416,4.951343536376953,-1.6563937664031982
1713358300179544000,11.4135439453125,0.976290225982666,3.2999095916748047,-0.4149818420410156
1713358300189523500,11.4235234375,-0.04949355125427246,1.3414764404296875,0.8568743467330933
1713358300199502600,11.433502685546875,-0.37691813707351685,-0.6035003662109375,2.557474136352539
1713358300209451300,11.443451171875,-0.11411285400390625,-1.9140663146972656,3.718573570251465
1713358300219430700,11.4534306640625,-0.041756272315979004,-2.283900260925293,4.39999532699585
1713358300229409800,11.463409912109375,-0.35697537660598755,-1.2830848693847656,4.7321038246154785
1713358300239358500,11.4733583984375,-0.8825175762176514,0.3424062728881836,4.751775741577148
1713358300249337900,11.483337890625,-0.8593118190765381,1.2554550170898438,3.4550914764404297
1713358300259317000,11.49331689453125,-0.701768696308136,1.4602031707763672,2.0391650199890137
1713358300269296400,11.50329638671875,-0.5429444313049316,1.6301956176757812,1.8750168085098267
1713358300279245000,11.5132451171875,-0.3725367784500122,1.3689641952514648,1.6114182472229004
1713358300289224200,11.52322412109375,-0.47161591053009033,0.708348274230957,1.7274205684661865
1713358300299203600,11.53320361328125,-0.6124683618545532,0.18405818939208984,2.086735725402832
1713358300309152300,11.54315234375,-0.6797568798065186,-0.5296802520751953,2.452094554901123
1713358300319131400,11.55313134765625,-0.7109894752502441,-1.2661561965942383,2.8643035888671875
1713358300329110800,11.56311083984375,-0.2632793188095093,-1.9760150909423828,2.7311737537384033
1713358300339059500,11.5730595703125,0.6559361219406128,-1.9569759368896484,2.3269124031066895
1713358300349038800,11.583038818359375,2.151836395263672,-1.3164300918579102,1.7690531015396118
1713358300359018000,11.59301806640625,3.591968536376953,-0.20807933807373047,1.250266671180725
1713358300368966700,11.602966552734374,4.903527736663818,0.7369766235351562,1.0649226903915405
1713358300378946000,11.612946044921875,6.004745960235596,1.473069190979004,1.3361186981201172
1713358300388925200,11.62292529296875,6.933811664581299,2.2218379974365234,1.752859354019165
1713358300398873900,11.632873779296874,6.315047264099121,3.042769432067871,2.5487887859344482
1713358300408853200,11.642853271484375,4.9645795822143555,3.1279029846191406,2.867176055908203
1713358300418832400,11.652832275390624,3.3245742321014404,1.947300910949707,2.8298282623291016
1713358300428781000,11.662781005859374,1.8954644203186035,-0.33882904052734375,2.4488368034362793
1713358300438760400,11.672760498046875,1.6834290027618408,-2.316324234008789,1.2826459407806396
1713358300448709000,11.682709228515625,2.038663625717163,-3.3857593536376953,0.44396448135375977
1713358300458688500,11.6926884765625,2.754678249359131,-3.8038501739501953,0.0432586669921875
1713358300468667600,11.702667724609375,2.8097169399261475,-3.6275739669799805,0.7323629856109619
1713358300478616300,11.7126162109375,2.1965513229370117,-3.277667999267578,1.571844458580017
1713358300488595700,11.722595703125,0.9417240619659424,-3.0425682067871094,1.5762449502944946
1713358300498574800,11.732574951171875,-0.7993518114089966,-2.8409767150878906,0.8845809698104858
1713358300508523500,11.7425234375,-1.9198137521743774,-2.160487174987793,-0.020435094833374023
1713358300518503000,11.7525029296875,-2.291106700897217,-1.30780029296875,-1.724915862083435
1713358300528482000,11.76248193359375,-2.914492607116699,-0.8253927230834961,-4.254378318786621
1713358300538461400,11.77246142578125,-4.282805442810059,-1.3335094451904297,-6.614771366119385
1713358300548410000,11.78241015625,-5.206110954284668,-2.981260299682617,-9.11505126953125
1713358300558389200,11.79238916015625,-4.854483127593994,-5.417367935180664,-11.4003324508667
1713358300568368600,11.80236865234375,-3.8313522338867188,-7.45233154296875,-12.710612297058105
1713358300578317300,11.8123173828125,-2.4950690269470215,-8.202454566955566,-10.313520431518555
1713358300588296400,11.82229638671875,-1.334376573562622,-7.297490119934082,-5.685026168823242
1713358300598275800,11.83227587890625,-1.7460606098175049,-5.770168304443359,-0.621681809425354
1713358300608224500,11.842224609375,-3.972031354904175,-4.798648834228516,2.792613983154297
1713358300618203600,11.85220361328125,-7.726639747619629,-4.1326704025268555,5.846349716186523
1713358300628183000,11.86218310546875,-10.056504249572754,-3.571627616882324,9.006757736206055
1713358300638131700,11.872131591796874,-9.716045379638672,-2.8465957641601562,10.416594505310059
1713358300648111000,11.882111083984375,-9.359024047851562,-1.6593189239501953,9.764823913574219
1713358300658090200,11.89209033203125,-7.50480842590332,0.0774688720703125,8.711506843566895
1713358300668039000,11.902038818359374,-4.983339309692383,1.524648666381836,5.607382774353027
1713358300678018300,11.912018310546875,-1.7960150241851807,2.6018991470336914,4.337646484375
1713358300687997400,11.92199755859375,2.18345308303833,2.7508420944213867,2.950261116027832
1713358300697946000,11.931946044921874,3.934781789779663,2.887666702270508,1.2781426906585693
1713358300707925500,11.941925537109375,3.7047667503356934,3.5072765350341797,-0.8890522718429565
1713358300717904600,11.951904541015624,3.4736621379852295,4.434628486633301,-2.6437342166900635
1713358300727853300,11.961853271484374,3.2458081245422363,5.101149559020996,-3.902743101119995
1713358300737832700,11.971832763671875,2.443209648132324,5.773281097412109,-4.2137298583984375
1713358300747811800,11.981811767578124,1.7625749111175537,6.6044769287109375,-4.808197975158691
1713358300757760800,11.9917607421875,1.0854148864746094,7.074321746826172,-5.0822367668151855
1713358300767740000,12.001739990234375,0.4733186364173889,7.411004066467285,-4.290765762329102
1713358300777688600,12.0116884765625,-0.1331043541431427,7.104069709777832,-3.1260411739349365
1713358300787668000,12.02166796875,-0.22632384300231934,6.045372009277344,-1.9436900615692139
1713358300797647000,12.031647216796875,-0.36535006761550903,4.504417419433594,-1.2528163194656372
1713358300807626500,12.04162646484375,-0.801872968673706,2.9486570358276367,-1.398080825805664
1713358300817575200,12.0515751953125,-1.067073106765747,1.7320823669433594,-1.7533785104751587
1713358300827554300,12.06155419921875,-1.0545917749404907,0.7799654006958008,-1.8992739915847778
1713358300837533700,12.07153369140625,-0.7466963529586792,0.16571044921875,-1.8144441843032837
1713358300847512800,12.081512939453125,-0.1525619626045227,0.019738197326660156,-1.3601994514465332
1713358300857461500,12.09146142578125,0.3367229104042053,-0.05318737030029297,-0.4524405598640442
1713358300867441000,12.10144091796875,0.9337402582168579,-0.2755699157714844,0.8393102884292603
1713358300877420000,12.111419921875,1.5124049186706543,-0.3203544616699219,2.3075754642486572
1713358300887368700,12.12136865234375,1.7023227214813232,-0.2264728546142578,3.856170177459717
1713358300897348000,12.13134814453125,1.4768328666687012,-0.10164546966552734,5.607913017272949
1713358300907327200,12.1413271484375,1.067626953125,-0.2994842529296875,7.492730140686035
1713358300917276200,12.151276123046875,0.5812355279922485,-1.091745376586914,8.17642879486084
1713358300927255300,12.16125537109375,0.8294094204902649,-2.4036636352539062,7.341248989105225
1713358300937234400,12.171234375,-0.09659725427627563,-3.692079544067383,5.5252604484558105
1713358300947183400,12.181183349609375,-2.2275757789611816,-4.996829986572266,3.2781147956848145
1713358300957162500,12.19116259765625,-1.652163028717041,-5.558813095092773,1.1884698867797852
1713358300967111200,12.201111083984374,0.017617881298065186,-5.538187026977539,-1.0318517684936523
1713358300977090600,12.211090576171875,2.026578903198242,-4.667662620544434,-3.476329803466797
1713358300987069700,12.221069580078124,2.4461803436279297,-2.0426206588745117,-5.211448669433594
1713358300997018400,12.231018310546874,1.9281553030014038,-0.030782699584960938,-3.328723907470703
1713358301006997800,12.240997802734375,2.102903127670288,-0.37042808532714844,1.713721752166748
1713358301016977000,12.250976806640624,3.751072883605957,-1.4567937850952148,5.241196632385254
1713358301026925800,12.26092578125,3.7094767093658447,-4.441127777099609,4.871071815490723
1713358301036905000,12.270905029296875,-1.3789700269699097,-9.962575912475586,-0.7850245237350464
1713358301046884000,12.280884033203124,-9.582525253295898,-15.989588737487793,-6.503493785858154
1713358301056833000,12.2908330078125,-13.818556785583496,-11.143256187438965,-9.069376945495605
1713358301066812200,12.300812255859375,-11.149109840393066,-2.151259422302246,-9.305179595947266
1713358301076791300,12.310791259765624,-5.056775093078613,0.27005958557128906,-5.3501296043396
1713358301086770700,12.320770751953125,-0.3958812952041626,2.167034149169922,-1.0368528366088867
1713358301096719400,12.33071923828125,2.0792908668518066,3.830813407897949,0.32562166452407837
1713358301106698800,12.34069873046875,2.9740021228790283,4.2371931076049805,0.24166136980056763
1713358301116678000,12.350677978515625,2.5372185707092285,4.545283317565918,0.8207992315292358
1713358301126626600,12.36062646484375,1.6175724267959595,5.144258499145508,0.9143601655960083
1713358301136606000,12.37060595703125,1.5626087188720703,5.029610633850098,0.4310336112976074
1713358301146585000,12.380585205078125,2.1370387077331543,3.828948974609375,-0.7525349259376526
1713358301156533800,12.39053369140625,1.9418433904647827,1.941166877746582,-3.340663433074951
1713358301166513200,12.40051318359375,0.49651551246643066,-0.4407501220703125,-6.877355575561523
1713358301176492300,12.4104921875,-1.0312680006027222,-2.8046722412109375,-9.816717147827148
1713358301186441000,12.42044091796875,-1.5479985475540161,-4.270147323608398,-10.734396934509277
1713358301196420400,12.43042041015625,-1.7150146961212158,-3.1297788619995117,-7.973331928253174
1713358301206399500,12.4403994140625,-0.8633228540420532,0.728302001953125,-5.834748268127441
1713358301216348400,12.450348388671875,0.37672126293182373,3.752471923828125,-3.347795248031616
1713358301226327600,12.46032763671875,2.083199977874756,5.70107364654541,-1.683002233505249
1713358301236306700,12.470306640625,2.949723243713379,6.57187557220459,-1.666080117225647
1713358301246255600,12.480255615234375,2.7166852951049805,6.8814897537231445,-1.2693952322006226
1713358301256234800,12.49023486328125,2.2530813217163086,6.21956729888916,-0.4981042444705963
1713358301266214100,12.500214111328125,1.1981104612350464,4.3774566650390625,0.2965397834777832
1713358301276162800,12.510162841796875,0.5204746723175049,2.1265182495117188,0.9999361634254456
1713358301286142000,12.520141845703124,-0.08414578437805176,-0.20353221893310547,1.7877483367919922
1713358301296121300,12.530121337890625,-0.24451971054077148,-2.118563652038574,2.525867223739624
1713358301306070000,12.540070068359375,-0.13211357593536377,-3.1036176681518555,3.1041839122772217
1713358301316049200,12.550049072265624,-0.41396915912628174,-3.132359504699707,3.248990058898926
1713358301326028500,12.560028564453125,-0.9534598588943481,-2.3288373947143555,3.3135948181152344
1713358301335977200,12.569977294921875,-1.4498021602630615,-1.1207466125488281,2.883234977722168
1713358301345956400,12.579956298828124,-1.536607265472412,0.1795511245727539,2.4498467445373535
1713358301355905300,12.5899052734375,-0.9116668701171875,0.9674177169799805,2.0887322425842285
1713358301365884400,12.599884521484375,-0.20331430435180664,1.1674327850341797,1.7038278579711914
1713358301375863800,12.60986376953125,0.7551977634429932,1.130295753479004,1.5115886926651
1713358301385843000,12.619843017578125,1.4514319896697998,1.0675535202026367,1.6016497611999512
1713358301395791600,12.62979150390625,1.578678011894226,0.9914751052856445,1.9252671003341675
1713358301405771000,12.63977099609375,1.6462279558181763,1.0423946380615234,2.135728120803833
1713358301415750100,12.649750244140625,2.3343822956085205,1.112905502319336,1.5981096029281616
1713358301425729500,12.6597294921875,3.392918348312378,1.238297462463379,1.1042487621307373
1713358301435678200,12.66967822265625,4.358546257019043,1.1697654724121094,0.48525381088256836
1713358301445657300,12.6796572265625,5.215754508972168,0.9884796142578125,0.13343775272369385
1713358301455636700,12.68963671875,6.004445552825928,0.8491687774658203,0.28575748205184937
1713358301465585400,12.69958544921875,6.952958106994629,0.541834831237793,0.5328949689865112
1713358301475564500,12.709564453125,6.777095794677734,0.503117561340332,1.7573521137237549
1713358301485544000,12.7195439453125,5.979852676391602,0.19819259643554688,2.801931858062744
1713358301495492600,12.72949267578125,4.417567253112793,-0.34828758239746094,4.068499565124512
1713358301505471700,12.7394716796875,3.393693447113037,-1.3073616027832031,4.342221736907959
