time,seconds_elapsed,z,y,x
1715093709559803000,0.139802978515625,8.678009033203125,5.14056396484375,1.6177215576171875
1715093709569782300,0.1497822265625,12.061019897460938,7.1373291015625,4.05023193359375
1715093709579792000,0.1597919921875,11.445709228515625,5.420684814453125,3.0662078857421875
1715093709589771300,0.169771240234375,11.15362548828125,3.1414031982421875,0.09979248046875
1715093709599750400,0.17975048828125,11.52471923828125,2.6290435791015625,-1.8371124267578125
1715093709609760300,0.18976025390625,11.689926147460938,2.6122894287109375,-2.105255126953125
1715093709619739400,0.199739501953125,12.02032470703125,2.959442138671875,-1.384613037109375
1715093709629718800,0.20971875,12.247772216796875,3.6537628173828125,-0.529876708984375
1715093709639698000,0.219697998046875,12.061019897460938,4.24273681640625,-0.20904541015625
1715093709649677000,0.229677001953125,11.433746337890625,4.3552703857421875,-0.0941314697265625
1715093709659626000,0.2396259765625,10.796875,4.4127197265625,-0.3742523193359375
1715093709669605000,0.249605224609375,10.291702270507812,4.61383056640625,-0.77886962890625
1715093709679584500,0.25958447265625,9.7506103515625,4.6952362060546875,-0.84112548828125
1715093709689563600,0.269563720703125,9.489654541015625,4.8748016357421875,-0.8291473388671875
1715093709699542800,0.279542724609375,9.233474731445312,4.85565185546875,-0.5753631591796875
1715093709709491700,0.28949169921875,9.164031982421875,4.7479095458984375,-0.4628448486328125
1715093709719470800,0.299470947265625,9.257415771484375,4.791015625,-0.4748077392578125
1715093709729450200,0.3094501953125,9.176010131835938,4.877197265625,-0.2689056396484375
1715093709739429400,0.319429443359375,8.955734252929688,4.8891754150390625,-0.0773773193359375
1715093709749378000,0.3293779296875,8.888702392578125,4.8580474853515625,0.135711669921875
1715093709759357400,0.339357421875,9.015594482421875,4.680877685546875,0.0902252197265625
1715093709769336600,0.349336669921875,9.1568603515625,4.7431182861328125,-0.1324310302734375
1715093709779316000,0.35931591796875,8.907852172851562,4.88677978515625,-0.2162322998046875
1715093709789295000,0.369295166015625,8.505630493164062,4.7790374755859375,-0.3551025390625
1715093709799243800,0.379243896484375,8.191986083984375,4.5300445556640625,-0.6759185791015625
1715093709809223200,0.38922314453125,8.13214111328125,4.6305999755859375,-1.0039215087890625
1715093709819202300,0.399202392578125,8.04833984375,4.791015625,-0.9081573486328125
1715093709829181400,0.409181396484375,7.85919189453125,4.692840576171875,-0.6400146484375
1715093709839130400,0.41913037109375,7.75384521484375,4.5779266357421875,-0.5969085693359375
1715093709849109500,0.429109619140625,7.7131500244140625,4.4893341064453125,-0.745361328125
1715093709859089000,0.4390888671875,9.779342651367188,4.4821624755859375,-1.2984161376953125
1715093709869037600,0.44903759765625,10.58380126953125,4.1876678466796875,-1.0853271484375
1715093709879016700,0.4590166015625,9.72906494140625,4.580322265625,0.13092041015625
1715093709888996000,0.46899609375,8.172836303710938,5.2794189453125,0.8419952392578125
1715093709898944800,0.47894482421875,7.368377685546875,5.253082275390625,0.4756927490234375
1715093709908924000,0.488923828125,7.330078125,5.17169189453125,0.241058349609375
1715093709918903300,0.4989033203125,7.674835205078125,5.442230224609375,0.569061279296875
1715093709928852000,0.50885205078125,7.89990234375,5.3967437744140625,0.84918212890625
1715093709938831000,0.5188310546875,8.23748779296875,5.135772705078125,0.2817535400390625
1715093709948810500,0.528810546875,9.33642578125,4.4941253662109375,-0.98956298828125
1715093709958759200,0.53875927734375,10.37310791015625,4.60186767578125,-0.5059356689453125
1715093709968738600,0.548738525390625,11.110519409179688,5.7127685546875,1.9936065673828125
1715093709978717700,0.5587177734375,10.792098999023438,5.2435150146484375,1.677581787109375
1715093709988666400,0.568666259765625,9.47528076171875,4.680877685546875,1.49322509765625
1715093709998645800,0.578645751953125,9.425003051757812,5.1022491455078125,1.3543548583984375
1715093710008625000,0.588625,9.077850341796875,4.7598876953125,1.2011260986328125
1715093710018573600,0.598573486328125,9.001235961914062,4.786224365234375,1.3543548583984375
1715093710028553000,0.608552978515625,9.11614990234375,4.73834228515625,1.6320953369140625
1715093710038532000,0.618531982421875,9.14727783203125,4.671295166015625,1.7398223876953125
1715093710048511500,0.628511474609375,9.154464721679688,4.60186767578125,1.8140411376953125
1715093710058510800,0.6385107421875,8.555908203125,4.0033111572265625,1.002410888671875
1715093710068459500,0.64845947265625,8.9892578125,4.4414520263671875,0.7510223388671875
1715093710078438700,0.658438720703125,7.986083984375,4.0128936767578125,0.58343505859375
1715093710088418000,0.66841796875,7.4354248046875,3.9554290771484375,0.13092041015625
1715093710098397200,0.678397216796875,5.03643798828125,2.5308837890625,-0.58734130859375
1715093710108345900,0.688345947265625,3.2335968017578125,2.5596160888671875,-1.0829315185546875
1715093710118325200,0.6983251953125,4.72998046875,2.0472564697265625,-1.1834869384765625
1715093710128304400,0.708304443359375,6.8727874755859375,0.8549346923828125,-1.3989715576171875
1715093710138253300,0.71825341796875,8.294937133789062,0.9291534423828125,-0.8626708984375
1715093710148232400,0.728232421875,7.255859375,0.5532684326171875,0.3440093994140625
1715093710158211600,0.738211669921875,5.9534149169921875,-0.0548553466796875,1.6392669677734375
1715093710168141000,0.74814111328125,4.916717529296875,-0.2032928466796875,2.7382049560546875
1715093710178120200,0.7581201171875,4.3061981201171875,-0.2655487060546875,3.051849365234375
1715093710188099300,0.768099365234375,13.696258544921875,0.8429718017578125,5.565765380859375
1715093710198048300,0.77804833984375,12.556625366210938,1.575592041015625,4.878631591796875
1715093710208027400,0.78802734375,14.618026733398438,2.643402099609375,6.971160888671875
1715093710218006500,0.798006591796875,10.847152709960938,1.015350341796875,6.770050048828125
1715093710227955500,0.80795556640625,3.3365478515625,-0.758758544921875,4.900177001953125
1715093710237934600,0.8179345703125,-10.554611206054688,0.5221405029296875,3.6240692138671875
1715093710247914000,0.8279140625,4.3109893798828125,-3.3923797607421875,0.8587646484375
1715093710257888800,0.837888671875,13.708236694335938,-4.299774169921875,-0.745361328125
1715093710267868200,0.8478681640625,24.5419921875,-0.3924407958984375,-6.4291839599609375
1715093710277847300,0.857847412109375,23.572341918945312,-1.12506103515625,-10.42510986328125
1715093710287796000,0.8677958984375,16.562118530273438,-3.2295684814453125,-8.330184936523438
1715093710297775400,0.877775390625,9.9613037109375,-3.717987060546875,-1.4037628173828125
1715093710307754500,0.88775439453125,5.972564697265625,-5.4849090576171875,2.553863525390625
1715093710317703200,0.897703125,5.9222869873046875,-5.9350128173828125,4.1172637939453125
1715093710327682600,0.9076826171875,6.2957763671875,-5.5279998779296875,2.9656524658203125
1715093710337661700,0.91766162109375,6.511260986328125,-5.219146728515625,0.9521331787109375
1715093710347641000,0.92764111328125,5.76666259765625,-5.0036773681640625,-0.9129486083984375
1715093710357620200,0.9376201171875,3.68609619140625,-5.5232086181640625,-0.7716827392578125
1715093710367569000,0.94756884765625,1.576812744140625,-7.1392974853515625,0.6145477294921875
1715093710377548300,0.95754833984375,-0.5635986328125,-8.559066772460938,3.4229583740234375
1715093710387527400,0.96752734375,-2.478973388671875,-8.987625122070312,6.6838531494140625
1715093710397506800,0.9775068359375,-3.11822509765625,-7.9269866943359375,9.813079833984375
1715093710407455500,0.98745556640625,-2.246734619140625,-6.318084716796875,10.725265502929688
1715093710417434600,0.9974345703125,-2.9434356689453125,-4.0076904296875,12.72442626953125
1715093710427414000,1.0074140625,-4.0615386962890625,-3.914306640625,17.029205322265625
1715093710437346600,1.0173466796875,-2.806976318359375,-1.953460693359375,19.076248168945312
1715093710447325700,1.02732568359375,0.9088287353515625,-3.6940460205078125,14.86962890625
1715093710457305000,1.03730517578125,6.5232391357421875,-2.3317413330078125,18.453750610351562
1715093710467253800,1.047253662109375,6.08270263671875,-6.212738037109375,16.2008056640625
1715093710477233000,1.05723291015625,6.1186065673828125,-7.5367431640625,11.453109741210938
1715093710487212300,1.06721240234375,7.6916046142578125,-7.6468658447265625,7.447601318359375
1715093710497161000,1.077160888671875,10.399444580078125,-9.990798950195312,3.5187225341796875
1715093710507140400,1.087140380859375,9.762588500976562,-11.444076538085938,2.908203125
1715093710517119500,1.097119384765625,14.369033813476562,-10.457656860351562,0.123748779296875
1715093710527068200,1.107068115234375,22.609878540039062,-8.623703002929688,-3.8123321533203125
1715093710537047600,1.117047607421875,20.009765625,-9.243804931640625,-3.055755615234375
1715093710547026700,1.127026611328125,15.685836791992188,-11.262115478515625,-3.836273193359375
1715093710556975400,1.136975341796875,16.042572021484375,-9.499984741210938,-4.4970703125
1715093710566954800,1.146954833984375,16.835052490234375,-9.4066162109375,-3.647125244140625
1715093710576934000,1.156933837890625,14.845474243164062,-8.7625732421875,-3.26165771484375
1715093710586882600,1.166882568359375,16.327484130859375,-8.990020751953125,-2.790008544921875
1715093710596862000,1.176862060546875,17.447967529296875,-8.104156494140625,-2.801971435546875
1715093710606841000,1.186841064453125,13.7010498046875,-8.39385986328125,-3.3430633544921875
1715093710616820500,1.196820556640625,11.5462646484375,-9.092971801757812,-3.4124908447265625
1715093710626769200,1.20676904296875,15.0010986328125,-6.825653076171875,-3.8841552734375
1715093710636748300,1.216748291015625,16.270034790039062,-6.497650146484375,-3.287994384765625
1715093710646727700,1.226727783203125,14.838287353515625,-8.42498779296875,-1.2505340576171875
1715093710656706800,1.236706787109375,14.61083984375,-7.8934783935546875,0.394287109375
1715093710666686200,1.246686279296875,14.950820922851562,-7.417022705078125,2.6591949462890625
1715093710676635000,1.256634765625,14.426498413085938,-6.993255615234375,5.1922607421875
1715093710686614000,1.266614013671875,16.475921630859375,-6.962127685546875,7.1124114990234375
1715093710696593400,1.276593505859375,17.907669067382812,-6.9070587158203125,7.28240966796875
1715093710706542000,1.2865419921875,16.81829833984375,-7.2709808349609375,6.4875335693359375
1715093710716521200,1.296521240234375,16.959564208984375,-7.1392974853515625,7.6247711181640625
1715093710726500600,1.30650048828125,17.7257080078125,-6.5263824462890625,9.396484375
1715093710736449300,1.31644921875,16.255661010742188,-7.215911865234375,10.270370483398438
1715093710746428700,1.3264287109375,14.524658203125,-5.9182586669921875,10.5169677734375
1715093710756407800,1.33640771484375,12.42254638671875,-5.767425537109375,9.202560424804688
1715093710766350800,1.346350830078125,9.48486328125,-5.6285552978515625,7.7732086181640625
1715093710776330000,1.356330078125,8.2398681640625,-5.1569061279296875,6.5617523193359375
1715093710786309400,1.366309326171875,6.427459716796875,-4.785797119140625,5.8650360107421875
1715093710796258000,1.376258056640625,2.4243621826171875,-4.4817352294921875,6.4683685302734375
1715093710806237400,1.386237548828125,0.853759765625,-4.089080810546875,6.8322906494140625
1715093710816216600,1.396216552734375,-0.67852783203125,-5.7434844970703125,6.05657958984375
1715093710826165200,1.406165283203125,-2.6369781494140625,-7.3499908447265625,4.3423309326171875
1715093710836144600,1.41614453125,-3.182861328125,-8.480056762695312,4.4859771728515625
1715093710846123800,1.426123779296875,-1.073577880859375,-11.762496948242188,3.949676513671875
1715093710856072400,1.436072509765625,-1.0472412109375,-13.546188354492188,2.9752349853515625
1715093710866051800,1.4460517578125,-3.0775146484375,-11.87982177734375,-1.817962646484375
1715093710876031000,1.456031005859375,-5.469329833984375,-14.484710693359375,-3.7812042236328125
1715093710885979600,1.465979736328125,-4.6816253662109375,-11.798416137695312,-5.4451751708984375
1715093710895959000,1.475958984375,-3.6976165771484375,-3.17449951171875,-7.91119384765625
1715093710905938200,1.485938232421875,-4.8444366455078125,-2.2934417724609375,-5.093231201171875
1715093710915917600,1.49591748046875,-6.822052001953125,-8.544692993164062,-1.5809326171875
1715093710925896700,1.505896728515625,-2.7949981689453125,-10.565399169921875,-3.2784271240234375
1715093710935848200,1.51584814453125,-1.2675018310546875,-11.0777587890625,-4.8992919921875
1715093710945827300,1.525827392578125,-2.3664398193359375,-9.83038330078125,-5.0022430419921875
1715093710955806700,1.535806640625,-1.940277099609375,-8.501602172851562,-5.686981201171875
1715093710965785900,1.545785888671875,-1.4303131103515625,-8.824813842773438,-4.8585968017578125
1715093710975734500,1.555734619140625,-1.8397216796875,-7.5989837646484375,-2.61761474609375
1715093710985714000,1.5657138671875,0.14508056640625,-8.70989990234375,-0.034271240234375
1715093710995693000,1.575693115234375,0.71490478515625,-10.309219360351562,4.2633209228515625
1715093711005642000,1.58564208984375,5.749908447265625,-11.317184448242188,6.1858673095703125
1715093711015621000,1.59562109375,13.64837646484375,-17.103973388671875,-0.233001708984375
1715093711025600300,1.605600341796875,6.5399932861328125,-19.555633544921875,-4.269622802734375
1715093711035549200,1.615549072265625,1.5792083740234375,-15.540557861328125,-2.8091583251953125
1715093711045525200,1.625525146484375,1.8904571533203125,-12.91650390625,-1.513885498046875
1715093711055504400,1.63550439453125,0.257598876953125,-12.655532836914062,-1.9017486572265625
1715093711065453300,1.645453369140625,-2.110260009765625,-12.212615966796875,-4.90887451171875
1715093711075432400,1.655432373046875,-4.1477203369140625,-11.999526977539062,-4.4515838623046875
1715093711085411800,1.665411865234375,-4.9545745849609375,-9.825592041015625,-1.099700927734375
1715093711095360500,1.675360595703125,-5.43341064453125,-7.977264404296875,5.924896240234375
1715093711105339600,1.685339599609375,-4.4685516357421875,-4.965362548828125,18.532760620117188
1715093711115319000,1.695319091796875,-5.560302734375,4.29541015625,27.259628295898438
1715093711125267700,1.705267822265625,-3.6138153076171875,-3.3995513916015625,22.217437744140625
1715093711135246800,1.715246826171875,4.1146697998046875,-13.03143310546875,14.852874755859375
1715093711145226200,1.725226318359375,12.207061767578125,-21.423110961914062,9.841812133789062
1715093711155175000,1.7351748046875,19.767959594726562,-25.280166625976562,1.89544677734375
1715093711165153500,1.745153564453125,16.799148559570312,-26.268966674804688,-7.39166259765625
1715093711175133000,1.7551328125,12.142425537109375,-25.4046630859375,-19.690673828125
1715093711185112000,1.765112060546875,-16.149856567382812,-33.64790344238281,-60.12873840332031
1715093711195060700,1.775060791015625,0.135498046875,-27.71746826171875,-14.454559326171875
1715093711205040000,1.7850400390625,15.151931762695312,-10.797637939453125,11.168197631835938
1715093711215019300,1.795019287109375,-1.559600830078125,-10.565399169921875,4.00714111328125
1715093711224998700,1.80499853515625,-3.6401519775390625,-9.32281494140625,-1.2984161376953125
1715093711234977800,1.814977783203125,-2.4574127197265625,-7.9413604736328125,0.5714569091796875
1715093711244926500,1.824926513671875,-4.2674407958984375,-6.8855133056640625,0.051910400390625
1715093711254905900,1.83490576171875,-2.859649658203125,-4.8791656494140625,-1.1715240478515625
1715093711264885000,1.844885009765625,-3.5874786376953125,-5.7291107177734375,-1.5689544677734375
1715093711274833700,1.854833740234375,-4.34405517578125,-4.826507568359375,-1.458831787109375
1715093711284813000,1.86481298828125,-3.6162109375,-5.61419677734375,2.1827545166015625
1715093711294792200,1.874792236328125,0.688568115234375,-5.745880126953125,12.801040649414062
1715093711304741000,1.8847412109375,1.6007537841796875,-8.199935913085938,9.810684204101562
1715093711314737200,1.894737060546875,1.8641204833984375,-12.001922607421875,4.7493438720703125
1715093711324716500,1.904716552734375,2.548858642578125,-14.846237182617188,1.943328857421875
1715093711334665200,1.914665283203125,1.6749725341796875,-14.886932373046875,3.5785675048828125
1715093711344644400,1.924644287109375,0.2959136962890625,-12.511886596679688,4.7565155029296875
1715093711354623700,1.934623779296875,-2.119842529296875,-12.69384765625,3.564208984375
1715093711364572400,1.944572509765625,-3.2259521484375,-12.528640747070312,0.84918212890625
1715093711374551600,1.954551513671875,-3.0368194580078125,-12.167129516601562,2.5251312255859375
1715093711384531000,1.964531005859375,-2.538818359375,-11.527877807617188,4.36627197265625
1715093711394479600,1.974479736328125,-2.45263671875,-10.44329833984375,2.04150390625
1715093711404458800,1.984458740234375,-1.686492919921875,-9.253372192382812,1.4166107177734375
1715093711414438100,1.994438232421875,-2.6154327392578125,-7.311676025390625,2.6783599853515625
1715093711424386800,2.00438671875,1.4523162841796875,-7.8000946044921875,4.6104736328125
1715093711434366000,2.014365966796875,2.7212371826171875,-8.465682983398438,2.850738525390625
1715093711444345300,2.024345458984375,0.3222503662109375,-7.606170654296875,1.581817626953125
1715093711454294000,2.0342939453125,-2.0911102294921875,-7.6779937744140625,1.260986328125
1715093711464273400,2.0442734375,-2.65374755859375,-8.93255615234375,0.6456756591796875
1715093711474252500,2.05425244140625,-2.6202239990234375,-9.444915771484375,1.6536407470703125
1715093711484231700,2.064231689453125,-2.478973388671875,-8.987625122070312,2.448516845703125
1715093711494211000,2.074211181640625,-2.438262939453125,-8.5518798828125,1.9912261962890625
1715093711504159700,2.08415966796875,-2.0695648193359375,-8.618911743164062,1.8858795166015625
1715093711514139100,2.09413916015625,-1.4853668212890625,-8.990020751953125,1.6967315673828125
1715093711524118300,2.1041181640625,-1.3584747314453125,-9.088180541992188,1.7661590576171875
1715093711534097400,2.114097412109375,-1.04962158203125,-8.891860961914062,2.1779632568359375
1715093711544046300,2.12404638671875,-2.057586669921875,-10.091354370117188,2.2976837158203125
1715093711554025500,2.134025390625,-0.240386962890625,-6.9645233154296875,0.9880523681640625
1715093711564004900,2.1440048828125,-0.673736572265625,-7.5774383544921875,0.18359375
1715093711573953500,2.15395361328125,-1.255523681640625,-6.6820068359375,0.346405029296875
1715093711583932700,2.1639326171875,-2.459808349609375,-4.4865264892578125,2.8220062255859375
1715093711593912000,2.173912109375,-1.4781951904296875,-5.968536376953125,2.1707763671875
1715093711603860700,2.18386083984375,-1.887603759765625,-6.98846435546875,1.3591461181640625
1715093711613840000,2.19383984375,-1.645782470703125,-9.231826782226562,1.562652587890625
1715093711623819300,2.2038193359375,0.04931640625,-11.597305297851562,0.875518798828125
1715093711633768000,2.213767822265625,0.3270416259765625,-10.819183349609375,0.770172119140625
1715093711643747000,2.2237470703125,-0.805419921875,-9.605331420898438,1.5028076171875
1715093711653726500,2.2337265625,-1.6290283203125,-8.63568115234375,1.711090087890625
1715093711663675100,2.243675048828125,-1.7271881103515625,-8.168807983398438,1.3040771484375
1715093711673654500,2.253654541015625,-1.47100830078125,-8.743408203125,0.7845458984375
1715093711683633700,2.263633544921875,-1.4901580810546875,-10.68511962890625,0.537933349609375
1715093711693582300,2.273582275390625,-1.7271881103515625,-12.971572875976562,0.5020294189453125
1715093711703561700,2.283561767578125,-1.53326416015625,-13.424072265625,1.19635009765625
1715093711713539000,2.2935390625,-0.9706268310546875,-11.977981567382812,2.608917236328125
1715093711723487700,2.30348779296875,-0.45587158203125,-8.693130493164062,1.8930511474609375
1715093711733467000,2.313466796875,-0.355316162109375,-5.7099609375,0.2817535400390625
1715093711743446300,2.3234462890625,-0.7335968017578125,-3.981353759765625,-0.7381744384765625
1715093711753425400,2.33342529296875,-1.68170166015625,-3.126617431640625,-1.1978607177734375
1715093711763374000,2.3433740234375,-1.86126708984375,-1.99176025390625,-1.983154296875
1715093711773353500,2.353353515625,-2.1701202392578125,-2.1378173828125,-3.7333221435546875
1715093711783332600,2.36333251953125,-1.9857635498046875,-1.3022308349609375,-4.8370513916015625
1715093711793312000,2.37331201171875,-1.820556640625,-3.53363037109375,-4.7005767822265625
1715093711803291100,2.383291015625,-1.22918701171875,-6.9645233154296875,-0.07977294921875
1715093711813239800,2.39323974609375,-2.828521728515625,-24.561904907226562,14.982162475585938
1715093711823219200,2.40321923828125,-11.564956665039062,-40.540802001953125,2.259368896484375
1715093711833198300,2.4131982421875,-3.52044677734375,-25.821258544921875,3.652801513671875
1715093711843147000,2.42314697265625,1.2775421142578125,-7.943756103515625,4.5865325927734375
1715093711853126400,2.43312646484375,2.8050384521484375,-9.90460205078125,4.383026123046875
1715093711863105500,2.44310546875,0.9830474853515625,-11.070571899414062,7.277618408203125
1715093711873054500,2.453054443359375,0.69573974609375,-9.21746826171875,6.4516143798828125
1715093711883033600,2.46303369140625,3.3221893310546875,-8.4896240234375,4.002349853515625
1715093711893012700,2.4730126953125,2.3405609130859375,-15.315505981445312,-0.40777587890625
1715093711902961700,2.482961669921875,1.8234100341796875,-14.886932373046875,3.1907196044921875
1715093711912940800,2.49294091796875,-0.1110992431640625,-14.549346923828125,3.3080291748046875
1715093711922920000,2.502919921875,-1.7966156005859375,-13.618011474609375,2.3359832763671875
1715093711932868900,2.512868896484375,-5.7398681640625,-10.330764770507812,2.8483428955078125
1715093711942848000,2.522847900390625,-3.6593017578125,-9.140853881835938,-3.208984375
1715093711952827400,2.532827392578125,-0.6186676025390625,-5.7817840576171875,-4.2360992431640625
1715093711962776000,2.542776123046875,-0.1374359130859375,-3.9909210205078125,-1.0135040283203125
1715093711972755200,2.552755126953125,-0.048858642578125,-5.6022186279296875,1.117340087890625
1715093711982734600,2.562734619140625,-0.3481292724609375,-5.049163818359375,1.742218017578125
1715093711992683300,2.572683349609375,-0.051239013671875,-6.069091796875,2.6065216064453125
1715093712002662400,2.582662353515625,0.0205841064453125,-6.200775146484375,3.51153564453125
1715093712012641800,2.592641845703125,-0.314605712890625,-7.553497314453125,2.649627685546875
1715093712022590500,2.602590576171875,-1.063995361328125,-8.915802001953125,2.661590576171875
1715093712032569600,2.612569580078125,-2.04083251953125,-10.153594970703125,2.0510711669921875
1715093712042549000,2.622549072265625,-2.5890960693359375,-11.365066528320312,0.9569244384765625
1715093712052528000,2.632528076171875,-2.7830352783203125,-12.246139526367188,-0.053436279296875
1715093712062507500,2.642507568359375,-2.316162109375,-12.813552856445312,-0.9871673583984375
1715093712072456200,2.652456298828125,-1.8229522705078125,-12.152755737304688,-0.9225311279296875
1715093712082435300,2.662435302734375,-1.466217041015625,-11.345916748046875,-0.6280364990234375
1715093712092414700,2.672414794921875,-0.9873809814453125,-10.807220458984375,-0.1300506591796875
1715093712102393900,2.682393798828125,-0.6497955322265625,-10.2421875,0.516387939453125
1715093712112342800,2.6923427734375,-0.6641693115234375,-9.732223510742188,0.906646728515625
1715093712122322000,2.702322021484375,-0.8987884521484375,-9.4066162109375,1.170013427734375
1715093712132301000,2.712301025390625,-1.0711822509765625,-9.212677001953125,1.3064727783203125
1715093712142250000,2.72225,-1.2244110107421875,-9.057052612304688,1.1412811279296875
1715093712152229000,2.73222900390625,-1.3417205810546875,-9.1025390625,1.0095977783203125
1715093712162208500,2.74220849609375,-1.3369293212890625,-9.2701416015625,0.6145477294921875
1715093712172157200,2.7521572265625,-1.0568084716796875,-9.54547119140625,0.114166259765625
1715093712182136300,2.76213623046875,-0.5971221923828125,-9.634063720703125,-0.0989227294921875
1715093712192115700,2.77211572265625,-0.1949005126953125,-9.559844970703125,-0.1468048095703125
1715093712202064400,2.782064453125,-0.156585693359375,-9.811233520507812,-0.1635589599609375
1715093712212043500,2.79204345703125,-0.2810821533203125,-10.40020751953125,-0.0630035400390625
1715093712222023000,2.80202294921875,-0.261932373046875,-10.998748779296875,0.2961273193359375
1715093712231971600,2.8119716796875,-0.3409423828125,-11.022689819335938,0.980865478515625
1715093712241950700,2.82195068359375,-0.5516357421875,-10.77130126953125,1.2993011474609375
1715093712251930000,2.83193017578125,-0.5635986328125,-10.62286376953125,1.0886077880859375
1715093712261878800,2.841878662109375,-0.4031982421875,-10.658782958984375,1.265777587890625
1715093712271858200,2.851858154296875,-0.4582672119140625,-10.879043579101562,1.5746307373046875
1715093712281837300,2.86183740234375,-0.5205078125,-11.66912841796875,1.49322509765625
1715093712291786000,2.871785888671875,-0.5109405517578125,-13.670684814453125,1.9409332275390625
1715093712301765400,2.881765380859375,-1.1454010009765625,-15.51422119140625,1.6201171875
1715093712311744500,2.89174462890625,-1.3560791015625,-16.124740600585938,1.1628265380859375
1715093712321693200,2.901693115234375,-0.61627197265625,-15.97869873046875,0.4996337890625
1715093712331672600,2.911672607421875,-0.27630615234375,-15.243667602539062,0.04473876953125
1715093712341651700,2.921651611328125,-0.5851593017578125,-14.79595947265625,0.126129150390625
1715093712351631000,2.931631103515625,-1.5739593505859375,-14.420074462890625,0.8252410888671875
1715093712361610200,2.9416103515625,-1.66015625,-12.416122436523438,1.2059173583984375
1715093712371559000,2.951558837890625,-2.215606689453125,-9.849533081054688,0.631317138671875
1715093712381538300,2.961538330078125,-2.12701416015625,-5.9613494873046875,0.209930419921875
1715093712391517400,2.971517333984375,-1.4566497802734375,-3.2774505615234375,2.2330322265625
1715093712401496800,2.981496826171875,-0.9083709716796875,-3.1194305419921875,2.194732666015625
1715093712411445500,2.991445556640625,-0.54205322265625,-3.1074676513671875,-0.3119964599609375
1715093712421424600,3.001424560546875,0.1426849365234375,-2.2263946533203125,-1.20025634765625
1715093712431404000,3.011404052734375,0.7603912353515625,-1.7355804443359375,-0.1635589599609375
1715093712441352700,3.021352783203125,0.1211395263671875,-2.3413238525390625,0.643280029296875
1715093712451331800,3.031331787109375,-0.64739990234375,-5.55194091796875,1.07183837890625
1715093712461311200,3.041311279296875,-0.9993438720703125,-6.9741058349609375,0.5139923095703125
1715093712471260000,3.051260009765625,-1.1884918212890625,-6.48089599609375,0.6337127685546875
1715093712481239000,3.061239013671875,-1.3776397705078125,-6.7586212158203125,0.08782958984375
1715093712491218400,3.071218505859375,-1.6218414306640625,-6.861572265625,-0.5011444091796875
1715093712501167000,3.0811669921875,-1.8852081298828125,-6.813690185546875,-0.9392852783203125
1715093712511146500,3.091146484375,-1.9498443603515625,-6.708343505859375,-1.2624969482421875
1715093712521125600,3.101125732421875,-1.9235076904296875,-7.321258544921875,-0.7118377685546875
1715093712531074300,3.11107421875,-1.550018310546875,-8.190353393554688,-0.8698577880859375
1715093712541053700,3.1210537109375,-0.894012451171875,-8.803268432617188,-0.963226318359375
1715093712551032800,3.13103271484375,-0.6761322021484375,-11.178314208984375,-0.11328125
1715093712560981500,3.1409814453125,-0.74078369140625,-13.560546875,0.58343505859375
1715093712570961000,3.1509609375,-0.336151123046875,-15.217330932617188,1.3160552978515625
1715093712580940000,3.16093994140625,-0.5109405517578125,-14.54217529296875,0.7031402587890625
1715093712590888700,3.170888671875,-0.7120513916015625,-16.617950439453125,2.4006195068359375
1715093712600868000,3.1808681640625,-1.4997406005859375,-16.311492919921875,0.7725677490234375
1715093712610847200,3.19084716796875,-1.475799560546875,-11.55181884765625,1.5746307373046875
1715093712620826600,3.20082666015625,-1.339324951171875,-8.64764404296875,1.773345947265625
1715093712630775300,3.210775390625,-1.073577880859375,-7.7785491943359375,2.110931396484375
1715093712640754400,3.22075439453125,-0.884429931640625,-7.579833984375,2.4197845458984375
1715093712650733800,3.23073388671875,-0.7934417724609375,-7.5822296142578125,2.8004608154296875
1715093712660713000,3.240712890625,-0.5492401123046875,-7.950927734375,3.056640625
1715093712670692400,3.2506923828125,-0.503753662109375,-8.21429443359375,2.934539794921875
1715093712680641000,3.26064111328125,-1.1932830810546875,-8.5518798828125,2.71905517578125
1715093712690626800,3.270626708984375,-0.7623291015625,-9.124099731445312,2.4556884765625
1715093712700606000,3.28060595703125,-1.255523681640625,-9.528717041015625,1.8403778076171875
1715093712710554600,3.2905546875,-1.7008514404296875,-9.476043701171875,1.711090087890625
1715093712720534000,3.300533935546875,-1.5739593505859375,-9.250991821289062,1.8284149169921875
1715093712730513200,3.31051318359375,-1.40875244140625,-9.040298461914062,1.974456787109375
1715093712740461800,3.3204619140625,-1.03765869140625,-8.894256591796875,2.355133056640625
1715093712750441200,3.330441162109375,-0.609100341796875,-8.78411865234375,2.4844207763671875
1715093712760420400,3.34042041015625,-0.2475738525390625,-8.719467163085938,2.6639862060546875
1715093712770369000,3.350369140625,0.3533782958984375,-8.669189453125,2.680755615234375
1715093712780348400,3.360348388671875,0.8250274658203125,-8.673980712890625,2.5514678955078125
1715093712790327600,3.37032763671875,1.2559814453125,-8.724258422851562,2.8172149658203125
1715093712800276500,3.3802763671875,1.440338134765625,-8.767349243164062,2.994384765625
1715093712810255600,3.390255615234375,1.449920654296875,-8.791305541992188,3.7581329345703125
1715093712820234800,3.40023486328125,1.30865478515625,-8.7003173828125,3.99755859375
1715093712830183700,3.41018359375,0.975860595703125,-8.54229736328125,4.160369873046875
1715093712840162800,3.420162841796875,0.3773193359375,-8.717071533203125,3.9161529541015625
1715093712850142200,3.43014208984375,-0.235595703125,-8.915802001953125,3.3128204345703125
1715093712860091000,3.4400908203125,-0.1949005126953125,-9.064239501953125,3.135650634765625
1715093712870070000,3.450070068359375,-0.0105438232421875,-9.40899658203125,1.85235595703125
1715093712880049400,3.46004931640625,0.7292633056640625,-10.311614990234375,1.01678466796875
1715093712889998000,3.469998046875,1.40203857421875,-11.549423217773438,0.411041259765625
1715093712899977200,3.479977294921875,2.4506988525390625,-12.830322265625,0.2697906494140625
1715093712909956600,3.48995654296875,2.7739105224609375,-13.505477905273438,0.885101318359375
1715093712919935700,3.499935791015625,2.855316162109375,-13.201416015625,1.9337615966796875
1715093712929915100,3.5099150390625,2.5321044921875,-12.116851806640625,2.872283935546875
1715093712939863800,3.51986376953125,1.93115234375,-10.941299438476562,3.7725067138671875
1715093712949843000,3.529843017578125,0.255218505859375,-10.144027709960938,4.3255615234375
1715093712959822300,3.539822265625,-1.69366455078125,-9.456893920898438,4.3878173828125
1715093712969801500,3.549801513671875,-3.81732177734375,-8.307662963867188,4.0167083740234375
1715093712979750100,3.559750244140625,-5.1604766845703125,-7.2015533447265625,2.7693328857421875
1715093712989729500,3.5697294921875,-4.6600799560546875,-6.9214324951171875,0.727081298828125
1715093712999708700,3.579708740234375,-3.642547607421875,-7.0411376953125,-1.3367156982421875
1715093713009657600,3.58965771484375,-3.4486236572265625,-7.500823974609375,-2.780426025390625
1715093713019636700,3.59963671875,-3.757476806640625,-8.652435302734375,-3.6926116943359375
1715093713029615900,3.609615966796875,-4.18603515625,-10.230209350585938,-5.01422119140625
1715093713039564800,3.619564697265625,-4.46136474609375,-11.697860717773438,-6.3477935791015625
1715093713049544000,3.6295439453125,-4.2291259765625,-12.753707885742188,-6.891265869140625
1715093713059523000,3.639523193359375,-3.831695556640625,-14.285995483398438,-7.0253448486328125
1715093713069472000,3.649471923828125,-3.5084686279296875,-16.469497680664062,-6.7500152587890625
1715093713079451100,3.659451171875,-3.3001708984375,-17.791107177734375,-4.66705322265625
1715093713089430500,3.669430419921875,-3.0942840576171875,-18.131072998046875,-2.0118865966796875
1715093713099379200,3.679379150390625,-4.3751678466796875,-17.345779418945312,0.7845458984375
1715093713109358300,3.6893583984375,-6.6688232421875,-13.773635864257812,3.9472808837890625
1715093713119337700,3.699337646484375,-6.3767242431640625,-9.547866821289062,7.9168701171875
1715093713129286400,3.709286376953125,-6.55389404296875,-9.126480102539062,5.3742218017578125
1715093713139265500,3.719265625,-6.83880615234375,-9.890243530273438,4.6727294921875
1715093713149245000,3.729244873046875,-6.4437713623046875,-9.954879760742188,4.7134246826171875
1715093713159193600,3.739193603515625,-4.2315216064453125,-9.44012451171875,4.225006103515625
1715093713169172700,3.7491728515625,-1.7918243408203125,-8.887069702148438,3.7557525634765625
1715093713179152100,3.759152099609375,-0.029693603515625,-8.57342529296875,3.039886474609375
1715093713189131300,3.76913134765625,0.3007049560546875,-8.697921752929688,2.089385986328125
1715093713199080200,3.779080078125,-0.49896240234375,-8.685958862304688,2.07501220703125
1715093713209059300,3.789059326171875,-0.7335968017578125,-8.4345703125,2.268951416015625
1715093713219038500,3.79903857421875,-0.38165283203125,-8.199935913085938,1.9385528564453125
1715093713229017900,3.809017822265625,0.65264892578125,-8.185562133789062,1.361541748046875
1715093713238997000,3.8189970703125,1.694122314453125,-7.9365692138671875,0.71270751953125
1715093713248946000,3.82894580078125,2.1514129638671875,-7.8000946044921875,-0.180328369140625
1715093713258925000,3.838925048828125,1.5792083740234375,-7.859954833984375,-0.5849456787109375
1715093713268904200,3.848904296875,1.0524749755859375,-8.085006713867188,-1.0925140380859375
1715093713278853000,3.85885302734375,0.5137786865234375,-7.4290008544921875,-0.783660888671875
1715093713288832300,3.868832275390625,0.3533782958984375,-7.151275634765625,-0.362274169921875
1715093713298811600,3.878811767578125,0.2121124267578125,-6.85198974609375,0.3918914794921875
1715093713308760300,3.88876025390625,1.0213623046875,-6.107391357421875,0.918609619140625
1715093713318739500,3.898739501953125,1.47625732421875,-6.2941436767578125,0.863555908203125
1715093713328718800,3.90871875,1.8114471435546875,-6.717926025390625,0.8779144287109375
1715093713338667500,3.91866748046875,2.093963623046875,-6.9764862060546875,0.9569244384765625
1715093713348646700,3.928646728515625,2.3525390625,-7.0171966552734375,0.916229248046875
1715093713358626000,3.9386259765625,2.44830322265625,-7.024383544921875,0.8300323486328125
1715093713368574700,3.94857470703125,2.4051971435546875,-6.983673095703125,0.897064208984375
1715093713378553900,3.958553955078125,2.433929443359375,-6.9046630859375,1.098175048828125
1715093713388533200,3.968533203125,2.5680084228515625,-6.813690185546875,1.46209716796875
1715093713398482000,3.97848193359375,2.517730712890625,-6.952545166015625,2.1181182861328125
1715093713408461300,3.98846142578125,2.5368804931640625,-7.0554962158203125,3.12127685546875
1715093713418440400,3.9984404296875,2.9055938720703125,-7.3380126953125,4.6416015625
1715093713428389000,4.00838916015625,3.0851593017578125,-7.6229248046875,6.856231689453125
1715093713438368500,4.018368408203125,2.6470184326171875,-7.6971435546875,9.3653564453125
1715093713448347600,4.02834765625,1.6222991943359375,-8.432174682617188,10.873703002929688
1715093713458296300,4.03829638671875,1.0309295654296875,-9.804046630859375,11.685348510742188
1715093713468275700,4.048275634765625,-0.874847412109375,-11.649978637695312,10.574432373046875
1715093713478254800,4.0582548828125,-2.4215087890625,-13.553359985351562,7.8091278076171875
1715093713488234200,4.068234130859375,-0.953857421875,-14.410491943359375,4.51470947265625
1715093713498213400,4.07821337890625,1.428375244140625,-15.394500732421875,1.5219573974609375
1715093713508162000,4.088162109375,4.662933349609375,-16.864547729492188,-0.2114410400390625
1715093713518141400,4.098141357421875,9.492034912109375,-16.333038330078125,-0.3215789794921875
1715093713528120600,4.10812060546875,9.614151000976562,-12.521469116210938,2.513153076171875
1715093713538100000,4.118099853515625,5.0077056884765625,-9.808837890625,6.09967041015625
1715093713548048600,4.128048583984375,1.7491912841796875,-9.066635131835938,8.728500366210938
1715093713558027800,4.13802783203125,1.607940673828125,-9.626876831054688,9.49224853515625
1715093713568007200,4.148007080078125,-0.27630615234375,-12.35626220703125,7.4404144287109375
1715093713577955800,4.157955810546875,-4.7534637451171875,-16.294723510742188,3.906585693359375
1715093713587935000,4.16793505859375,-6.568267822265625,-20.123062133789062,-0.0055389404296875
1715093713597914400,4.177914306640625,-3.4989013671875,-22.969757080078125,-3.8673858642578125
1715093713607863000,4.187863037109375,-1.739166259765625,-20.0799560546875,-4.789154052734375
1715093713617842200,4.19784228515625,-3.3432769775390625,-10.6444091796875,-3.414886474609375
1715093713627821600,4.207821533203125,-2.1796875,-6.85198974609375,-1.10687255859375
1715093713637800700,4.21780078125,-0.249969482421875,-5.820098876953125,0.70074462890625
1715093713647749600,4.22774951171875,0.11395263671875,-5.3005523681640625,1.4405517578125
1715093713657728800,4.237728759765625,-0.0943450927734375,-4.575103759765625,2.1468353271484375
1715093713667708000,4.2477080078125,-0.8461151123046875,-4.34765625,0.9473419189453125
1715093713677656800,4.25765673828125,-0.9658355712890625,-4.2016143798828125,-0.4963531494140625
1715093713687636000,4.267635986328125,-0.463043212890625,-5.64532470703125,0.135711669921875
1715093713697615400,4.277615478515625,0.2216949462890625,-8.259780883789062,-0.1420135498046875
1715093713707564000,4.28756396484375,0.372528076171875,-10.54864501953125,-1.4037628173828125
1715093713717543200,4.297543212890625,-0.3385467529296875,-11.89178466796875,-2.505096435546875
1715093713727522600,4.3075224609375,-2.0168914794921875,-12.456817626953125,-2.9743499755859375
1715093713737471200,4.31747119140625,-3.7143707275390625,-12.516677856445312,-3.826690673828125
1715093713747450400,4.327450439453125,-3.27862548828125,-11.877426147460938,-4.2001800537109375
1715093713757429800,4.3374296875,-1.5164947509765625,-10.1368408203125,-2.7780303955078125
1715093713767409000,4.347408935546875,-0.218841552734375,-8.017974853515625,-1.501922607421875
1715093713777388300,4.35738818359375,1.0788116455078125,-6.2342987060546875,-1.207427978515625
1715093713787337000,4.3673369140625,1.90960693359375,-5.008453369140625,-1.8466796875
1715093713797316000,4.377316162109375,1.840179443359375,-4.869598388671875,-0.69268798828125
1715093713807295500,4.38729541015625,0.9878387451171875,-5.927825927734375,-0.9488677978515625
1715093713817274600,4.397274658203125,-0.0751953125,-7.0483245849609375,0.305694580078125
1715093713827223300,4.407223388671875,-0.587554931640625,-8.427383422851562,2.142059326171875
1715093713837202700,4.41720263671875,-1.2986297607421875,-9.562225341796875,3.7581329345703125
1715093713847181800,4.427181884765625,-1.4111480712890625,-10.378662109375,4.07177734375
1715093713857130500,4.437130615234375,-1.2938385009765625,-10.651596069335938,4.4955596923828125
1715093713867110000,4.44710986328125,-1.147796630859375,-10.36907958984375,4.1316375732421875
1715093713877089000,4.457089111328125,-0.6713409423828125,-9.286895751953125,4.30401611328125
1715093713887038000,4.467037841796875,-0.2068634033203125,-8.458511352539062,4.246551513671875
1715093713897017000,4.47701708984375,-0.314605712890625,-7.6779937744140625,4.22979736328125
1715093713906996200,4.486996337890625,-0.4702301025390625,-7.321258544921875,4.18670654296875
1715093713916945200,4.496945068359375,-0.72161865234375,-7.4074554443359375,3.940093994140625
1715093713926924300,4.50692431640625,-1.11187744140625,-7.73785400390625,3.79644775390625
1715093713936903700,4.516903564453125,-1.7319793701171875,-8.10894775390625,4.2896575927734375
1715093713946852400,4.526852294921875,-2.4239044189453125,-8.413009643554688,4.4548492431640625
1715093713956831500,4.53683154296875,-2.9578094482421875,-8.85833740234375,4.3997802734375
1715093713966811000,4.546810791015625,-3.4222869873046875,-9.22705078125,4.4117584228515625
1715093713976759600,4.556759521484375,-3.405517578125,-9.669967651367188,4.16754150390625
1715093713986738700,4.56673876953125,-2.8955535888671875,-10.105712890625,4.2393798828125
1715093713996718000,4.576718017578125,-2.12701416015625,-10.096145629882812,3.6839141845703125
1715093714006666800,4.586666748046875,-1.0472412109375,-9.897415161132812,2.661590576171875
1715093714016646000,4.59664599609375,0.6023712158203125,-9.14324951171875,1.646453857421875
1715093714026625300,4.606625244140625,3.5472412109375,-8.061065673828125,1.3806915283203125
1715093714036574000,4.616573974609375,6.195220947265625,-6.8376312255859375,1.509979248046875
1715093714046553300,4.62655322265625,7.1217803955078125,-6.0499420166015625,1.7446136474609375
1715093714056532500,4.636532470703125,5.9701690673828125,-5.83685302734375,2.1707763671875
1715093714066511600,4.64651171875,2.824188232421875,-6.717926025390625,2.503570556640625
1715093714076491000,4.656490966796875,0.192962646484375,-8.841583251953125,2.4102020263671875
1715093714086439700,4.666439697265625,0.0421295166015625,-11.4368896484375,2.42218017578125
1715093714096419000,4.676419189453125,0.6717987060546875,-14.1614990234375,3.020721435546875
1715093714106398200,4.686398193359375,2.17535400390625,-16.27557373046875,3.442108154296875
1715093714116377300,4.69637744140625,1.904815673828125,-17.2691650390625,3.22662353515625
1715093714126326300,4.706326171875,0.2959136962890625,-16.483871459960938,3.6072998046875
1715093714136305400,4.716305419921875,-1.32257080078125,-14.312332153320312,4.5290679931640625
1715093714146284800,4.726284912109375,-1.6314239501953125,-11.47760009765625,5.1252288818359375
1715093714156233500,4.7362333984375,-1.8971710205078125,-9.380279541015625,5.3000030517578125
1715093714166212600,4.746212646484375,-2.1485595703125,-8.046707153320312,4.773284912109375
1715093714176192000,4.75619189453125,-2.241943359375,-7.49603271484375,3.4492950439453125
1715093714186140700,4.766140625,-1.9905548095703125,-7.3332366943359375,1.636871337890625
1715093714196119800,4.776119873046875,-1.9690093994140625,-7.3811187744140625,-0.2042694091796875
1715093714206099200,4.78609912109375,-2.014495849609375,-7.5941925048828125,-3.065338134765625
1715093714216047900,4.7960478515625,-2.5364227294921875,-8.190353393554688,-6.213714599609375
1715093714226027000,4.806027099609375,-2.91949462890625,-9.5550537109375,-7.7124786376953125
1715093714236006400,4.81600634765625,-3.558746337890625,-11.939666748046875,-8.16259765625
1715093714245955000,4.825955078125,-3.958587646484375,-14.704971313476562,-8.346939086914062
1715093714255934200,4.835934326171875,-3.80535888671875,-17.360153198242188,-7.925567626953125
1715093714265913600,4.84591357421875,-3.4677734375,-19.462249755859375,-5.99822998046875
1715093714275862300,4.8558623046875,-3.59466552734375,-19.292266845703125,-2.15313720703125
1715093714285841700,4.865841552734375,-4.5331878662109375,-16.488662719726562,2.6999053955078125
1715093714295820800,4.87582080078125,-5.5459442138671875,-12.205429077148438,5.69744873046875
1715093714305769500,4.88576953125,-5.8739471435546875,-11.56378173828125,6.29119873046875
1715093714315748900,4.895748779296875,-5.337646484375,-9.748977661132812,8.769210815429688
1715093714325728000,4.90572802734375,-3.980133056640625,-7.522369384765625,8.991867065429688
1715093714335707400,4.915707275390625,-2.2443389892578125,-7.110565185546875,8.1826171875
1715093714345656000,4.925656005859375,-1.128631591796875,-7.5151824951171875,5.9871368408203125
1715093714355635200,4.93563525390625,-0.7934417724609375,-8.075439453125,4.5865325927734375
1715093714365614600,4.945614501953125,-0.0464630126953125,-8.331619262695312,3.516326904296875
1715093714375593700,4.95559375,0.8394012451171875,-8.82720947265625,2.3192291259765625
1715093714385573000,4.965572998046875,1.514556884765625,-8.930160522460938,1.5889892578125
1715093714395521800,4.975521728515625,1.703704833984375,-8.63568115234375,1.038330078125
1715093714405501000,4.9855009765625,1.904815673828125,-7.78094482421875,0.95452880859375
1715093714415480300,4.995480224609375,1.90960693359375,-6.962127685546875,0.832427978515625
1715093714425429000,5.005428955078125,1.7444000244140625,-6.2989349365234375,0.3488006591796875
1715093714435408100,5.015408203125,1.1721954345703125,-5.9302215576171875,0.05670166015625
1715093714445387500,5.025387451171875,0.7029266357421875,-5.91107177734375,-0.3479156494140625
1715093714455336200,5.035336181640625,0.5018157958984375,-6.0092315673828125,-0.7693023681640625
1715093714465315300,5.0453154296875,0.6191253662109375,-5.980499267578125,-1.1882781982421875
1715093714475294700,5.055294677734375,0.975860595703125,-5.8440399169921875,-1.4995269775390625
1715093714485243400,5.065243408203125,1.4163970947265625,-5.674041748046875,-1.6240234375
1715093714495222800,5.075222900390625,1.9598846435546875,-5.50885009765625,-1.7174072265625
1715093714505202000,5.085201904296875,2.7356109619140625,-5.5160369873046875,-1.57135009765625
1715093714515150600,5.095150634765625,3.2910614013671875,-5.7075653076171875,-1.1715240478515625
1715093714525130000,5.1051298828125,3.3748626708984375,-6.2247161865234375,-0.3311614990234375
1715093714535109000,5.115109130859375,3.2479705810546875,-6.804107666015625,0.8300323486328125
1715093714545057800,5.125057861328125,2.939117431640625,-7.469696044921875,2.3719024658203125
1715093714555037200,5.135037109375,2.6470184326171875,-7.500823974609375,4.4548492431640625
1715093714565016300,5.145016357421875,2.1609954833984375,-7.7953033447265625,6.3343048095703125
1715093714574965000,5.154965087890625,1.3589324951171875,-9.1959228515625,7.3494415283203125
1715093714584944400,5.1649443359375,0.72686767578125,-10.689895629882812,8.843429565429688
1715093714594923500,5.174923583984375,-0.2739105224609375,-12.667510986328125,9.1546630859375
1715093714604872200,5.1848720703125,-1.38720703125,-14.781585693359375,7.71575927734375
1715093714614851600,5.1948515625,-1.8708343505859375,-16.2540283203125,5.70941162109375
1715093714624830700,5.204830810546875,-2.9147186279296875,-17.666610717773438,2.364715576171875
1715093714634810000,5.21481005859375,-1.597900390625,-18.744003295898438,0.47808837890625
1715093714644789200,5.224789306640625,5.54400634765625,-17.771957397460938,0.1524658203125
1715093714654738000,5.234738037109375,8.275787353515625,-13.17987060546875,1.38787841796875
1715093714664717300,5.24471728515625,8.03875732421875,-9.124099731445312,2.3982391357421875
1715093714674696400,5.254696533203125,4.8975677490234375,-10.081771850585938,3.1332550048828125
1715093714684675800,5.26467578125,1.481048583984375,-13.141555786132812,6.82989501953125
1715093714694624500,5.27462451171875,1.9120025634765625,-13.42169189453125,6.085296630859375
1715093714704603600,5.284603759765625,-2.986541748046875,-13.208602905273438,3.9041900634765625
1715093714714583000,5.2945830078125,-6.8914794921875,-16.198959350585938,2.52752685546875
1715093714724531700,5.30453173828125,-6.7095184326171875,-18.528518676757812,2.25457763671875
1715093714734511000,5.314510986328125,-5.6728363037109375,-15.76800537109375,0.0160064697265625
1715093714744490200,5.324490234375,-2.9290771484375,-11.434494018554688,-0.0821533203125
1715093714754439000,5.33443896484375,-0.7814788818359375,-9.193527221679688,1.46209716796875
1715093714764418300,5.344418212890625,0.468292236328125,-7.256622314453125,3.1332550048828125
1715093714774397400,5.3543974609375,0.3964691162109375,-5.2454833984375,3.18353271484375
1715093714784346000,5.36434619140625,0.0421295166015625,-3.6796722412109375,1.2011260986328125
1715093714794325500,5.374325439453125,0.1642303466796875,-3.0906982421875,-0.73577880859375
1715093714804304600,5.3843046875,0.394073486328125,-3.9957122802734375,-1.02069091796875
1715093714814253300,5.39425341796875,0.42041015625,-6.919036865234375,-0.8339385986328125
1715093714824232700,5.404232666015625,0.1786041259765625,-9.86151123046875,-1.2361602783203125
1715093714834211800,5.4142119140625,-0.4965667724609375,-11.614059448242188,-0.994354248046875
1715093714844160800,5.424160888671875,-1.7631072998046875,-13.278030395507812,-1.0135040283203125
1715093714854140000,5.434139892578125,-2.806976318359375,-13.579696655273438,-1.703033447265625
1715093714864119000,5.444119140625,-2.62261962890625,-12.234161376953125,-2.5984649658203125
1715093714874068000,5.45406787109375,-1.1956787109375,-9.69390869140625,-1.8945770263671875
1715093714884047000,5.464047119140625,0.2121124267578125,-7.30450439453125,-1.9903411865234375
1715093714894026500,5.474026611328125,1.2320404052734375,-5.34124755859375,-2.6774749755859375
1715093714904005600,5.484005615234375,2.031707763671875,-4.0172576904296875,-3.3143310546875
1715093714913954300,5.493954345703125,2.486602783203125,-3.7850189208984375,-3.1634979248046875
1715093714923933700,5.50393359375,1.8808746337890625,-4.340484619140625,-2.1028594970703125
1715093714933912800,5.513912841796875,0.9399566650390625,-5.0108489990234375,-0.7549285888671875
1715093714943892000,5.52389208984375,-0.336151123046875,-6.231903076171875,1.1484527587890625
1715093714953841000,5.5338408203125,-0.862884521484375,-8.061065673828125,2.4269561767578125
1715093714963820000,5.543820068359375,-0.508544921875,-9.741790771484375,3.9472808837890625
1715093714973799400,5.55379931640625,-0.3289794921875,-10.81439208984375,5.0462188720703125
1715093714983778600,5.563778564453125,-0.716827392578125,-10.768905639648438,6.20501708984375
1715093714993727200,5.573727294921875,-0.97540283203125,-10.278091430664062,6.1978302001953125
1715093715003706600,5.58370654296875,-1.147796630859375,-9.516738891601562,5.7596893310546875
1715093715013685800,5.593685791015625,-1.391998291015625,-8.8798828125,5.0438232421875
1715093715023634400,5.603634521484375,-1.7487335205078125,-8.650039672851562,4.488372802734375
1715093715033613800,5.61361376953125,-2.407135009765625,-8.623703002929688,4.0047454833984375
1715093715043593000,5.623593017578125,-3.01287841796875,-8.834396362304688,3.712646484375
1715093715053541600,5.633541748046875,-3.5132598876953125,-9.24859619140625,3.5953369140625
1715093715063521000,5.64352099609375,-3.3121490478515625,-9.8519287109375,3.9472808837890625
1715093715073500200,5.653500244140625,-1.96661376953125,-9.796859741210938,4.14599609375
1715093715083449000,5.663448974609375,0.7077178955078125,-9.308441162109375,4.107696533203125
1715093715093428200,5.67342822265625,3.0971221923828125,-8.187957763671875,4.059814453125
1715093715103407400,5.683407470703125,4.808990478515625,-6.7801666259765625,3.7461700439453125
1715093715113356300,5.693356201171875,5.807373046875,-5.68841552734375,3.7772979736328125
1715093715123335400,5.70333544921875,5.7738494873046875,-5.1521148681640625,3.1595916748046875
1715093715133314800,5.713314697265625,4.471405029296875,-5.6022186279296875,1.9289703369140625
1715093715143263500,5.723263427734375,2.4698486328125,-7.436187744140625,1.667999267578125
1715093715153242600,5.73324267578125,0.49462890625,-10.246978759765625,2.501190185546875
1715093715163222000,5.743221923828125,-1.992950439453125,-13.093673706054688,3.6815185546875
1715093715173170700,5.753170654296875,-2.7040252685546875,-15.406478881835938,4.22979736328125
1715093715183149800,5.76314990234375,-1.8277435302734375,-16.74005126953125,3.6887054443359375
1715093715193129200,5.773129150390625,0.3485870361328125,-16.091217041015625,3.67913818359375
1715093715203108400,5.7831083984375,0.86334228515625,-13.187057495117188,5.6998443603515625
1715093715213087700,5.793087646484375,0.0684661865234375,-9.655609130859375,6.454010009765625
1715093715223036400,5.803036376953125,-0.4438934326171875,-6.717926025390625,6.116424560546875
1715093715233015600,5.813015625,-0.3074188232421875,-4.421875,5.429290771484375
1715093715242995000,5.822994873046875,-0.6450042724609375,-3.4354705810546875,3.221832275390625
1715093715252974000,5.83297412109375,-0.64739990234375,-3.528839111328125,1.5387115478515625
1715093715262922800,5.8429228515625,-0.429534912109375,-4.8241119384765625,-1.133209228515625
1715093715272902100,5.852902099609375,-0.113494873046875,-6.69158935546875,-4.0445709228515625
1715093715282881300,5.86288134765625,-0.4175567626953125,-9.023529052734375,-6.019775390625
1715093715292830200,5.872830322265625,-1.0615997314453125,-11.939666748046875,-7.3892669677734375
1715093715302809300,5.882809326171875,-2.0503997802734375,-15.729690551757812,-8.540878295898438
1715093715312788500,5.89278857421875,-2.6441650390625,-20.170944213867188,-9.637420654296875
1715093715322737400,5.9027373046875,-3.7766265869140625,-24.408676147460938,-9.297439575195312
1715093715332716500,5.912716552734375,-5.883514404296875,-26.3336181640625,-5.4834747314453125
1715093715342695700,5.92269580078125,-7.521148681640625,-24.27459716796875,0.537933349609375
1715093715352644600,5.93264453125,-10.185897827148438,-19.869277954101562,5.3143768310546875
1715093715362623700,5.942623779296875,-10.805999755859375,-14.072906494140625,9.676605224609375
1715093715372603100,5.95260302734375,-9.68072509765625,-8.480056762695312,14.347686767578125
1715093715382551800,5.9625517578125,-5.8643646240234375,-6.13372802734375,14.074752807617188
1715093715392531000,5.972531005859375,-1.7367706298828125,-4.6086273193359375,13.729995727539062
1715093715402510300,5.98251025390625,0.6717987060546875,-4.2447052001953125,11.180160522460938
1715093715412459000,5.992458984375,0.4491424560546875,-5.1952056884765625,7.4332427978515625
1715093715422438100,6.002438232421875,0.36773681640625,-6.935791015625,4.5338592529296875
1715093715432417500,6.01241748046875,1.217681884765625,-8.283721923828125,2.1181182861328125
1715093715442366200,6.0223662109375,2.6901092529296875,-8.882278442382812,0.44696044921875
1715093715452345300,6.032345458984375,4.0476226806640625,-9.351547241210938,-0.9704132080078125
1715093715462324700,6.04232470703125,4.0428314208984375,-9.509552001953125,-1.712615966796875
1715093715472273400,6.0522734375,3.1426239013671875,-8.518356323242188,-1.96160888671875
1715093715482252800,6.062252685546875,2.1514129638671875,-6.935791015625,-1.686279296875
1715093715492232000,6.07223193359375,1.37091064453125,-5.7291107177734375,-1.386993408203125
1715093715502211000,6.082211181640625,0.6071624755859375,-5.355621337890625,-1.068572998046875
1715093715512190500,6.0921904296875,0.319854736328125,-5.4897003173828125,-0.836334228515625
1715093715522139100,6.10213916015625,-0.0057525634765625,-5.7841796875,-0.9440765380859375
1715093715532118500,6.112118408203125,-0.1685638427734375,-6.1002197265625,-1.1403961181640625
1715093715542097700,6.12209765625,0.1690216064453125,-6.0499420166015625,-1.0709686279296875
1715093715552076800,6.132076904296875,0.9878387451171875,-5.6668701171875,-1.05419921875
1715093715562025700,6.142025634765625,1.84735107421875,-5.8607940673828125,-0.9704132080078125
1715093715572004900,6.1520048828125,2.6063232421875,-6.4832916259765625,0.09979248046875
1715093715581984300,6.161984375,3.099517822265625,-6.950164794921875,1.076629638671875
1715093715591933000,6.171932861328125,3.3245849609375,-7.7833404541015625,2.3311920166015625
1715093715601912000,6.181912109375,3.4730224609375,-7.754608154296875,4.6727294921875
1715093715611891500,6.191891357421875,3.4730224609375,-6.7011566162109375,7.6989898681640625
1715093715621840100,6.201840087890625,2.8744659423828125,-6.7155303955078125,9.470703125
1715093715631819300,6.2118193359375,1.746795654296875,-8.326828002929688,10.265579223632812
1715093715641798700,6.221798583984375,0.5927886962890625,-10.22064208984375,11.1490478515625
1715093715651747300,6.231747314453125,-0.197296142578125,-12.32275390625,9.846588134765625
1715093715661726500,6.2417265625,-0.0895538330078125,-13.574920654296875,6.35345458984375
1715093715671705900,6.251705810546875,0.0014190673828125,-15.624343872070312,2.4987945556640625
1715093715681654500,6.261654541015625,2.0484619140625,-19.083969116210938,-1.1284332275390625
1715093715691634000,6.271634033203125,4.8879852294921875,-19.316207885742188,-1.2194061279296875
1715093715701613000,6.281613037109375,3.3126068115234375,-15.032989501953125,0.0806427001953125
1715093715711561700,6.291561767578125,-1.4326934814453125,-12.698638916015625,0.55230712890625
1715093715721541000,6.301541015625,0.83221435546875,-15.423233032226562,1.1724090576171875
1715093715731520300,6.311520263671875,-0.4055938720703125,-16.58203125,-0.1779327392578125
1715093715741469000,6.321468994140625,-4.7989501953125,-17.805465698242188,1.107757568359375
1715093715751448300,6.3314482421875,-2.65374755859375,-19.452682495117188,4.964813232421875
1715093715761427500,6.341427490234375,-3.975341796875,-15.904464721679688,1.9936065673828125
1715093715771406800,6.35140673828125,-3.6497344970703125,-10.891006469726562,0.29852294921875
1715093715781386000,6.361385986328125,-3.5395965576171875,-8.851150512695312,2.26416015625
1715093715791334700,6.371334716796875,-1.6050872802734375,-7.7881317138671875,4.3997802734375
1715093715801314000,6.38131396484375,0.5496978759765625,-6.286956787109375,5.7429351806640625
1715093715811293200,6.391293212890625,1.2512054443359375,-4.9486083984375,5.8003997802734375
1715093715821272600,6.4012724609375,0.3126678466796875,-3.761077880859375,4.2848663330078125
1715093715831221200,6.41122119140625,-0.714447021484375,-3.495330810546875,1.308868408203125
1715093715841200400,6.421200439453125,-0.21405029296875,-4.9318389892578125,0.6289215087890625
1715093715851179800,6.4311796875,0.489837646484375,-7.52716064453125,-0.5849456787109375
1715093715861128400,6.44112841796875,1.0524749755859375,-10.007553100585938,-2.8307037353515625
1715093715871107600,6.451107666015625,1.1458587646484375,-11.884613037109375,-3.7764129638671875
1715093715881087000,6.4610869140625,0.0588836669921875,-13.3067626953125,-4.303131103515625
1715093715891035600,6.47103564453125,-1.1406097412109375,-12.899749755859375,-3.9583740234375
1715093715901014800,6.481014892578125,-2.05279541015625,-9.717849731445312,-3.0916748046875
1715093715910994200,6.490994140625,-1.741546630859375,-7.1608428955078125,-2.8211212158203125
1715093715920942800,6.50094287109375,-1.2052459716796875,-5.767425537109375,-2.8690185546875
1715093715930922200,6.510922119140625,-0.1254730224609375,-5.1209869384765625,-3.151519775390625
1715093715940901400,6.5209013671875,1.1314849853515625,-5.3268890380859375,-3.4747467041015625
1715093715950850000,6.53085009765625,2.1825408935546875,-5.7841796875,-2.986328125
1715093715960829400,6.540829345703125,2.168182373046875,-6.6700286865234375,-2.2010345458984375
1715093715970808600,6.55080859375,1.217681884765625,-7.3882904052734375,-0.3215789794921875
1715093715980757200,6.56075732421875,-0.1494140625,-7.8934783935546875,1.9816436767578125
1715093715990736600,6.570736572265625,-1.4566497802734375,-9.164794921875,3.32000732421875
1715093716000715800,6.5807158203125,-1.8325347900390625,-9.897415161132812,4.19866943359375
1715093716010664400,6.59066455078125,-2.25390625,-10.251754760742188,5.2209930419921875
1715093716020643800,6.600643798828125,-2.5507965087890625,-10.124862670898438,5.5394287109375
1715093716030623000,6.610623046875,-2.426300048828125,-9.626876831054688,5.2257843017578125
1715093716040572000,6.620572021484375,-1.9809722900390625,-8.906219482421875,4.7876434326171875
1715093716050551000,6.630551025390625,-1.78704833984375,-8.262176513671875,4.246551513671875
1715093716060530200,6.6405302734375,-1.86126708984375,-7.733062744140625,3.8993988037109375
1715093716070509600,6.650509521484375,-2.1964569091796875,-7.4864654541015625,3.5450592041015625
1715093716080488700,6.66048876953125,-2.4550323486328125,-7.66363525390625,3.2170562744140625
1715093716090437600,6.670437744140625,-2.2610931396484375,-8.046707153320312,3.04705810546875
1715093716100416800,6.680416748046875,-1.961822509765625,-8.420196533203125,2.915374755859375
1715093716110396000,6.69039599609375,-1.720001220703125,-8.841583251953125,2.7214508056640625
1715093716120375300,6.700375244140625,-1.042449951171875,-9.104934692382812,2.6161041259765625
1715093716130324000,6.710323974609375,0.705322265625,-9.078598022460938,2.6735687255859375
1715093716140303000,6.72030322265625,3.70526123046875,-8.621307373046875,2.745391845703125
1715093716150282500,6.730282470703125,5.749908447265625,-7.876708984375,2.754974365234375
1715093716160231200,6.740231201171875,5.443450927734375,-6.9956512451171875,2.11572265625
1715093716170210600,6.75021044921875,2.9151763916015625,-6.6700286865234375,1.5746307373046875
1715093716180189700,6.760189697265625,0.5281524658203125,-7.3188629150390625,1.95770263671875
1715093716190168800,6.7701689453125,-0.989776611328125,-9.100143432617188,2.9177703857421875
1715093716200117800,6.78011767578125,-0.642608642578125,-11.295639038085938,3.600128173828125
1715093716210097000,6.790096923828125,0.4395599365234375,-13.10565185546875,3.7509613037109375
1715093716220076300,6.800076171875,1.217681884765625,-13.47674560546875,3.801239013671875
1715093716230025000,6.81002490234375,2.6087188720703125,-12.464004516601562,4.60089111328125
1715093716240004000,6.820004150390625,2.07958984375,-11.037063598632812,5.8602447509765625
1715093716249983500,6.8299833984375,0.2743682861328125,-9.60772705078125,6.370208740234375
1715093716259932200,6.83993212890625,-0.56121826171875,-8.125717163085938,5.8434906005859375
1715093716269911300,6.849911376953125,-1.1525726318359375,-6.935791015625,4.7182159423828125
1715093716279890700,6.859890625,-1.65057373046875,-6.1768341064453125,3.528289794921875
1715093716289839400,6.86983935546875,-2.162933349609375,-6.1768341064453125,2.0103759765625
1715093716299818500,6.879818603515625,-2.2347564697265625,-7.4625091552734375,-0.0630035400390625
1715093716309798000,6.8897978515625,-2.50531005859375,-9.17437744140625,-1.978363037109375
1715093716319746600,6.89974658203125,-2.99371337890625,-10.843124389648438,-3.76922607421875
1715093716329726000,6.909725830078125,-3.4677734375,-12.6507568359375,-6.15625
1715093716339705000,6.919705078125,-3.77423095703125,-15.320281982421875,-8.16259765625
1715093716349684200,6.929684326171875,-3.74310302734375,-18.89483642578125,-8.990982055664062
1715093716359663600,6.93966357421875,-3.884368896484375,-22.165313720703125,-8.70367431640625
1715093716369612300,6.9496123046875,-4.413482666015625,-24.279388427734375,-6.4818572998046875
1715093716379591700,6.959591796875,-5.5315704345703125,-22.936248779296875,-1.3893890380859375
1715093716389570800,6.96957080078125,-6.6257171630859375,-18.605133056640625,4.52667236328125
1715093716399519500,6.97951953125,-7.4636993408203125,-12.35626220703125,9.260009765625
1715093716409499000,6.989498779296875,-7.320037841796875,-9.748977661132812,10.5050048828125
1715093716419478000,6.99947802734375,-6.948944091796875,-8.511184692382812,12.43951416015625
1715093716429457400,7.00945751953125,-5.079071044921875,-7.6516571044921875,12.066024780273438
1715093716439406000,7.019406005859375,-1.7319793701171875,-6.3252716064453125,11.03411865234375
1715093716449385200,7.02938525390625,-1.0089263916015625,-6.33245849609375,8.1395263671875
1715093716459364600,7.039364501953125,-1.308197021484375,-7.1225433349609375,5.70941162109375
1715093716469313300,7.049313232421875,0.0421295166015625,-7.9150238037109375,3.9640350341796875
1715093716479292400,7.05929248046875,1.694122314453125,-8.5518798828125,1.6967315673828125
1715093716489271800,7.069271728515625,3.0061492919921875,-8.803268432617188,-0.1204681396484375
1715093716499220500,7.079220458984375,3.9207305908203125,-8.733840942382812,-1.037445068359375
1715093716509199600,7.08919970703125,4.0524139404296875,-7.802490234375,-1.5522003173828125
1715093716519179000,7.099178955078125,3.836944580078125,-6.4162445068359375,-1.712615966796875
1715093716529127700,7.109127685546875,2.697296142578125,-5.398712158203125,-1.638397216796875
1715093716539106800,7.11910693359375,1.56243896484375,-4.97015380859375,-1.4157257080078125
1715093716549086200,7.129086181640625,0.7603912353515625,-4.9677581787109375,-0.879425048828125
1715093716559035000,7.139034912109375,-0.0320892333984375,-5.3220977783203125,-0.5107269287109375
1715093716569014300,7.14901416015625,-0.642608642578125,-5.6788330078125,-0.3838348388671875
1715093716578993400,7.158993408203125,-0.5205078125,-5.98529052734375,-0.2186279296875
1715093716588942000,7.168942138671875,0.4132232666015625,-5.94219970703125,0.23626708984375
1715093716598921500,7.17892138671875,1.830596923828125,-5.630950927734375,0.197967529296875
1715093716608900600,7.188900634765625,2.675750732421875,-5.5375823974609375,0.123748779296875
1715093716618880000,7.1988798828125,2.8481292724609375,-5.757843017578125,0.8994598388671875
1715093716628828700,7.20882861328125,2.697296142578125,-6.296539306640625,2.1731719970703125
1715093716638807800,7.218807861328125,2.8840484619140625,-5.693206787109375,4.73736572265625
1715093716648787200,7.228787109375,2.74517822265625,-3.9861297607421875,7.4930877685546875
1715093716658766300,7.238766357421875,1.8712921142578125,-4.8408660888671875,8.0533447265625
1715093716668715000,7.248715087890625,1.239227294921875,-7.500823974609375,9.348602294921875
1715093716678694400,7.2586943359375,1.227264404296875,-10.620468139648438,10.698928833007812
1715093716688673500,7.268673583984375,0.9088287353515625,-13.957992553710938,8.869766235351562
1715093716698653000,7.27865283203125,0.9471282958984375,-16.756805419921875,4.1651611328125
1715093716708601600,7.2886015625,1.138671875,-20.656967163085938,-1.7269744873046875
1715093716718580700,7.298580810546875,4.186492919921875,-23.113418579101562,-4.0349884033203125
1715093716728560000,7.30856005859375,4.198455810546875,-19.088760375976562,-2.8690185546875
1715093716738508800,7.3185087890625,1.291900634765625,-10.02191162109375,-1.449249267578125
1715093716748488000,7.328488037109375,1.6390533447265625,-5.302947998046875,3.0542449951171875
1715093716758467300,7.33846728515625,0.4539337158203125,-7.1608428955078125,4.8498992919921875
1715093716768416000,7.348416015625,-1.147796630859375,-11.4368896484375,6.6742706298828125
1715093716778395400,7.3583955078125,-0.384033203125,-19.754348754882812,9.1546630859375
1715093716788374500,7.36837451171875,-5.9745025634765625,-26.673599243164062,11.93194580078125
1715093716798323200,7.3783232421875,-10.762908935546875,-23.570709228515625,5.1300201416015625
1715093716808302600,7.388302490234375,-8.746994018554688,-16.184600830078125,-3.7237396240234375
1715093716818281700,7.39828173828125,-4.032806396484375,-10.428939819335938,-4.38214111328125
1715093716828230400,7.40823046875,0.0924072265625,-7.395477294921875,-0.16595458984375
1715093716838209800,7.418209716796875,2.5416717529296875,-6.638916015625,1.826019287109375
1715093716848189000,7.42818896484375,2.4075927734375,-5.53997802734375,2.067840576171875
1715093716858137600,7.4381376953125,0.4012603759765625,-4.0747222900390625,1.3471832275390625
1715093716868117000,7.448116943359375,-0.113494873046875,-3.4210968017578125,-0.2306060791015625
1715093716878096100,7.45809619140625,0.9567108154296875,-4.108245849609375,-1.1308135986328125
1715093716888044800,7.468044921875,1.7061004638671875,-6.2079620361328125,-1.1715240478515625
1715093716898024200,7.478024169921875,1.9862213134765625,-8.587799072265625,-1.777252197265625
1715093716908003300,7.48800341796875,1.081207275390625,-10.606109619140625,-1.1547698974609375
1715093716917982700,7.497982666015625,-0.714447021484375,-12.39697265625,-0.4005889892578125
1715093716927961900,7.5079619140625,-2.6322021484375,-13.304367065429688,-0.752532958984375
1715093716937910500,7.51791064453125,-3.2810211181640625,-12.1431884765625,-1.6312103271484375
1715093716947890000,7.527889892578125,-2.5819244384765625,-9.930938720703125,-2.32073974609375
1715093716957869000,7.537869140625,-1.39678955078125,-7.9629058837890625,-2.294403076171875
1715093716967848400,7.547848388671875,-0.345733642578125,-6.6006011962890625,-2.4141082763671875
1715093716977797000,7.557797119140625,0.990234375,-5.80572509765625,-2.5888824462890625
1715093716987776300,7.5677763671875,1.6031494140625,-5.3268890380859375,-2.538604736328125
1715093716997755600,7.577755615234375,1.0883941650390625,-5.8153076171875,-2.1914520263671875
1715093717007704300,7.587704345703125,-0.0751953125,-6.729888916015625,-1.015899658203125
1715093717017683700,7.59768359375,-1.0520172119140625,-7.5080108642578125,0.4254150390625
1715093717027662800,7.607662841796875,-1.5428314208984375,-8.420196533203125,1.4333648681640625
1715093717037611500,7.617611572265625,-1.71282958984375,-9.339569091796875,2.2833099365234375
1715093717047591000,7.6275908203125,-1.5260772705078125,-10.503158569335938,3.5306854248046875
1715093717057570000,7.637570068359375,-1.3369293212890625,-10.608505249023438,4.0358734130859375
1715093717067518700,7.647518798828125,-1.1956787109375,-9.86151123046875,4.2848663330078125
1715093717077498000,7.657498046875,-1.0089263916015625,-9.148040771484375,4.8355255126953125
1715093717087477200,7.667477294921875,-0.9514617919921875,-8.6572265625,4.519500732421875
1715093717097426000,7.677426025390625,-1.042449951171875,-8.106552124023438,4.203460693359375
1715093717107405300,7.6874052734375,-1.200469970703125,-8.180770874023438,3.844329833984375
1715093717117384400,7.697384521484375,-1.0089263916015625,-8.45611572265625,3.2721099853515625
1715093717127333400,7.70733349609375,-0.3912200927734375,-8.90142822265625,3.5330810546875
1715093717137312500,7.7173125,-0.0057525634765625,-9.296478271484375,3.5306854248046875
1715093717147291600,7.727291748046875,1.3110504150390625,-9.385055541992188,3.7844696044921875
1715093717157240600,7.737240478515625,3.192901611328125,-9.052261352539062,4.119659423828125
1715093717167219700,7.7472197265625,5.2734527587890625,-8.053878784179688,4.4811859130859375
1715093717177199000,7.75719921875,6.1377716064453125,-6.9333953857421875,4.7038421630859375
1715093717187147800,7.767147705078125,4.4139404296875,-5.9637451171875,3.77490234375
1715093717197127000,7.777126953125,1.6270904541015625,-5.79376220703125,2.5059661865234375
1715093717207106300,7.787106201171875,-0.1182861328125,-6.952545166015625,2.57061767578125
1715093717217085400,7.79708544921875,-1.190887451171875,-9.459274291992188,3.61688232421875
1715093717227064600,7.807064697265625,-0.853302001953125,-11.999526977539062,4.6176605224609375
1715093717237013500,7.817013427734375,-0.2739105224609375,-13.735321044921875,4.203460693359375
1715093717246992600,7.82699267578125,1.5408935546875,-14.020233154296875,3.5235137939453125
1715093717256972000,7.836971923828125,2.711669921875,-13.47674560546875,4.1053009033203125
1715093717266951200,7.846951171875,2.1131134033203125,-11.915725708007812,4.9193267822265625
1715093717276899800,7.85689990234375,0.1259307861328125,-9.9141845703125,5.132415771484375
1715093717286879200,7.866879150390625,-0.5444488525390625,-7.4936370849609375,4.79962158203125
1715093717296858400,7.8768583984375,-2.0551910400390625,-5.621368408203125,4.6559600830078125
1715093717306807000,7.88680712890625,-2.9578094482421875,-4.575103759765625,3.525909423828125
1715093717316786400,7.896786376953125,-3.0631561279296875,-4.8049468994140625,0.937774658203125
1715093717326765600,7.906765625,-2.964996337890625,-6.217529296875,-1.5498046875
1715093717336714200,7.91671435546875,-2.6824798583984375,-8.120925903320312,-3.55615234375
1715093717346693600,7.926693603515625,-3.6473388671875,-10.943679809570312,-5.7372589111328125
1715093717356672800,7.9366728515625,-3.970550537109375,-14.570907592773438,-8.504959106445312
1715093717366621700,7.94662158203125,-4.0136566162109375,-18.174179077148438,-9.350112915039062
1715093717376600800,7.956600830078125,-3.992095947265625,-22.071929931640625,-10.190475463867188
1715093717386580000,7.966580078125,-4.5164337158203125,-25.565078735351562,-9.733184814453125
1715093717396529000,7.97652880859375,-4.9234466552734375,-26.575424194335938,-5.9000701904296875
1715093717406508000,7.986508056640625,-5.8691558837890625,-23.063140869140625,0.145294189453125
1715093717416487400,7.9964873046875,-7.4948272705078125,-17.74322509765625,5.0869140625
1715093717426436000,8.00643603515625,-8.629669189453125,-11.379425048828125,9.346206665039062
1715093717436415200,8.016415283203125,-7.466094970703125,-8.515960693359375,10.586410522460938
1715093717446394600,8.02639453125,-5.3089141845703125,-6.72509765625,12.219253540039062
1715093717456343300,8.03634326171875,-3.2906036376953125,-5.9924774169921875,11.089187622070312
1715093717466322400,8.046322509765625,-1.138214111328125,-4.979736328125,8.86737060546875
1715093717476301800,8.0563017578125,-0.927520751953125,-5.113800048828125,6.9017333984375
1715093717486281000,8.066281005859375,-1.0448455810546875,-6.327667236328125,4.7565155029296875
1715093717496260400,8.07626025390625,0.1738128662109375,-7.3092803955078125,2.9752349853515625
1715093717506209000,8.086208984375,1.4954071044921875,-7.9796600341796875,0.91143798828125
1715093717516188200,8.096188232421875,2.512939453125,-8.09698486328125,-0.4915618896484375
1715093717526167600,8.10616748046875,3.6837158203125,-7.881500244140625,-1.46600341796875
1715093717536146700,8.116146728515625,3.8417205810546875,-6.8160858154296875,-1.81317138671875
1715093717546095400,8.126095458984375,2.991790771484375,-5.705169677734375,-1.9520263671875
1715093717556074800,8.13607470703125,2.1179046630859375,-4.9366302490234375,-2.00469970703125
1715093717566054000,8.146053955078125,1.3733062744140625,-4.61102294921875,-1.6360015869140625
1715093717576002800,8.1560029296875,0.7771453857421875,-4.773834228515625,-1.1044769287109375
1715093717585982000,8.16598193359375,0.2480316162109375,-5.1784515380859375,-0.5059356689453125
1715093717595961000,8.175961181640625,-0.2236328125,-5.757843017578125,-0.249755859375
1715093717605910000,8.185909912109375,-0.0105438232421875,-6.2678070068359375,-0.0582122802734375
1715093717615889200,8.19588916015625,0.942352294921875,-6.3252716064453125,0.3224639892578125
1715093717625868300,8.205868408203125,2.00537109375,-6.73468017578125,0.19317626953125
1715093717635847700,8.21584765625,2.666168212890625,-7.405059814453125,0.6887664794921875
1715093717645796400,8.22579638671875,3.0205078125,-8.2550048828125,1.4214019775390625
1715093717655775700,8.235775634765625,3.118682861328125,-9.124099731445312,2.7645416259765625
1715093717665755000,8.2457548828125,2.9846038818359375,-8.757781982421875,5.5753326416015625
1715093717675703600,8.25570361328125,2.2471923828125,-7.658843994140625,8.683013916015625
1715093717685683000,8.265682861328125,1.1362762451171875,-7.8886871337890625,10.081222534179688
1715093717695662000,8.275662109375,0.6382904052734375,-9.313232421875,11.165802001953125
1715093717705610800,8.28561083984375,0.0277557373046875,-11.518295288085938,11.465072631835938
1715093717715590100,8.295590087890625,-0.5803680419921875,-13.459991455078125,9.307891845703125
1715093717725569300,8.3055693359375,1.66778564453125,-14.683425903320312,4.646392822265625
1715093717735518000,8.31551806640625,2.263946533203125,-16.66583251953125,0.16204833984375
1715093717745497300,8.325497314453125,3.7028656005859375,-17.946731567382812,-2.7086029052734375
1715093717755476500,8.3354765625,3.9925537109375,-15.1024169921875,-2.986328125
1715093717765456000,8.345455810546875,2.91278076171875,-10.072189331054688,-1.97119140625
1715093717775404500,8.355404541015625,1.20330810546875,-7.596588134765625,2.132476806640625
1715093717785383700,8.3653837890625,-1.6840972900390625,-9.4185791015625,2.5682220458984375
1715093717795363000,8.375363037109375,-3.4965057373046875,-14.812713623046875,5.2257843017578125
1715093717805342200,8.38534228515625,-4.9976654052734375,-21.265090942382812,11.649429321289062
1715093717815321600,8.395321533203125,-6.896270751953125,-24.470932006835938,8.726104736328125
1715093717825270300,8.405270263671875,-6.848388671875,-22.304168701171875,1.7877044677734375
1715093717835249400,8.41524951171875,-4.7989501953125,-15.085647583007812,-2.7469024658203125
1715093717845228800,8.425228759765625,-1.4374847412109375,-8.74102783203125,-2.2010345458984375
1715093717855177500,8.435177490234375,1.78271484375,-5.9326171875,0.4876556396484375
1715093717865156900,8.445156982421874,3.5568084716796875,-4.2638702392578125,2.5466766357421875
1715093717875136000,8.455135986328125,2.781097412109375,-3.2559051513671875,2.3934478759765625
1715093717885084700,8.465084716796875,1.682159423828125,-2.4346923828125,0.971282958984375
1715093717895064000,8.47506396484375,1.3589324951171875,-2.767486572265625,-0.819580078125
1715093717905043200,8.485043212890625,0.6622314453125,-4.4242706298828125,-2.210601806640625
1715093717914991900,8.494991943359375,0.1953582763671875,-6.87115478515625,-3.5322113037109375
1715093717924971300,8.50497119140625,0.140289306640625,-9.37548828125,-3.2784271240234375
1715093717934950400,8.514950439453125,0.27197265625,-11.580551147460938,-2.1746978759765625
1715093717944899000,8.524899169921875,-0.123077392578125,-13.206207275390625,-0.8602752685546875
1715093717954878500,8.53487841796875,-1.84210205078125,-12.93804931640625,-1.0015411376953125
1715093717964857600,8.544857666015625,-2.1222381591796875,-10.244583129882812,-1.2337646484375
1715093717974806500,8.554806640625,-1.1669464111328125,-7.9365692138671875,-0.9967498779296875
1715093717984785700,8.56478564453125,-0.0320892333984375,-6.4952545166015625,-0.7860565185546875
1715093717994764800,8.574764892578125,0.669403076171875,-5.779388427734375,-1.0350494384765625
1715093718004713700,8.584713623046875,1.0955810546875,-5.460968017578125,-0.805206298828125
1715093718014692900,8.59469287109375,0.7819366455078125,-6.011627197265625,-0.096527099609375
1715093718024672000,8.604672119140625,0.087615966796875,-6.7418670654296875,1.1556396484375
1715093718034621000,8.614620849609375,-0.8509063720703125,-7.479278564453125,2.5730133056640625
1715093718044600000,8.62460009765625,-1.71282958984375,-8.08740234375,3.4780120849609375
1715093718054579500,8.634579345703125,-2.088714599609375,-8.575820922851562,4.392608642578125
1715093718064558600,8.64455859375,-1.9690093994140625,-9.315628051757812,5.2042388916015625
1715093718074537700,8.654537841796875,-1.7966156005859375,-10.005157470703125,5.070159912109375
1715093718084486700,8.664486572265625,-1.2579193115234375,-10.165573120117188,4.4380950927734375
1715093718094465800,8.6744658203125,-0.800628662109375,-9.784896850585938,4.0957183837890625
1715093718104445200,8.684445068359375,-0.4654388427734375,-9.380279541015625,3.3439483642578125
1715093718114424300,8.69442431640625,-0.630645751953125,-8.92059326171875,3.1236724853515625
1715093718124373000,8.704373046875,-1.0137176513671875,-8.633285522460938,3.1165008544921875
1715093718134352400,8.714352294921875,-1.3943939208984375,-8.410614013671875,2.5682220458984375
1715093718144331500,8.72433154296875,-1.8540802001953125,-8.298095703125,2.833984375
1715093718154280200,8.7342802734375,-2.131805419921875,-8.628494262695312,3.0326995849609375
1715093718164259600,8.744259521484375,-1.4207305908203125,-9.030715942382812,2.994384765625
1715093718174238700,8.75423876953125,0.767578125,-9.315628051757812,2.5370941162109375
1715093718184187400,8.7641875,4.1290283203125,-9.033111572265625,1.531524658203125
1715093718194166800,8.774166748046875,6.923065185546875,-8.293304443359375,0.918609619140625
1715093718204146000,8.78414599609375,6.733917236328125,-7.1608428955078125,1.2490234375
1715093718214094800,8.7940947265625,4.01171875,-6.2630157470703125,1.98883056640625
1715093718224074000,8.804073974609375,1.598358154296875,-5.9876861572265625,2.697509765625
1715093718234053000,8.81405322265625,0.3007049560546875,-7.2350616455078125,3.712646484375
1715093718244002000,8.824001953125,0.0684661865234375,-10.012344360351562,4.5482330322265625
1715093718253981200,8.833981201171875,0.425201416015625,-12.93804931640625,3.8682708740234375
1715093718263960600,8.843960693359374,0.8513641357421875,-14.783981323242188,3.061431884765625
1715093718273909200,8.8539091796875,1.30865478515625,-14.3218994140625,4.26092529296875
1715093718283888400,8.863888427734375,0.6334991455078125,-13.280426025390625,5.5801239013671875
1715093718293867800,8.87386767578125,-0.240386962890625,-12.021072387695312,6.063751220703125
1715093718303816400,8.88381640625,-2.1772918701171875,-10.436111450195312,5.69744873046875
1715093718313795600,8.893795654296875,-3.47735595703125,-8.729049682617188,4.8091888427734375
1715093718323775000,8.90377490234375,-3.8149261474609375,-7.869537353515625,2.5418853759765625
1715093718333723600,8.9137236328125,-3.3432769775390625,-8.051483154296875,-0.1468048095703125
1715093718343702800,8.923702880859375,-3.04638671875,-8.666793823242188,-2.57452392578125
1715093718353682200,8.93368212890625,-3.8867645263671875,-9.7777099609375,-5.51220703125
1715093718363661300,8.943661376953125,-4.856414794921875,-11.470413208007812,-8.066818237304688
1715093718373640700,8.953640625,-4.978515625,-14.01544189453125,-9.66375732421875
1715093718383589400,8.96358935546875,-3.9131011962890625,-16.828628540039062,-11.028457641601562
1715093718393568500,8.973568603515625,-3.30975341796875,-19.531692504882812,-10.705230712890625
1715093718403548000,8.9835478515625,-3.3384857177734375,-21.31536865234375,-7.64544677734375
1715093718413527000,8.993527099609375,-2.881195068359375,-20.297836303710938,-1.554595947265625
1715093718423475700,9.003475830078125,-4.0304107666015625,-16.979461669921875,4.225006103515625
1715093718433455000,9.013455078125,-5.8476104736328125,-12.1240234375,7.9934844970703125
1715093718443434200,9.023434326171875,-7.3894805908203125,-9.962066650390625,9.62872314453125
1715093718453383200,9.033383056640625,-7.6648101806640625,-8.599761962890625,13.016525268554688
1715093718463362300,9.0433623046875,-6.103790283203125,-6.7490386962890625,13.677322387695312
1715093718473341400,9.053341552734375,-3.790985107421875,-5.73150634765625,10.330230712890625
1715093718483290400,9.063290283203125,-1.894775390625,-4.9773406982421875,8.797927856445312
1715093718493269500,9.07326953125,-1.327362060546875,-5.5758819580078125,5.757293701171875
1715093718503249000,9.083248779296875,0.161834716796875,-6.5263824462890625,3.4708404541015625
1715093718513197600,9.093197509765625,1.988616943359375,-7.37872314453125,1.476470947265625
1715093718523176700,9.1031767578125,2.860107421875,-8.144866943359375,-0.175537109375
1715093718533156000,9.113156005859375,2.92474365234375,-8.652435302734375,-1.2553253173828125
1715093718543104800,9.123104736328125,2.898406982421875,-8.590179443359375,-2.205810546875
1715093718553084000,9.133083984375,2.508148193359375,-7.70672607421875,-2.4141082763671875
1715093718563063300,9.143063232421875,1.935943603515625,-6.564697265625,-1.93048095703125
1715093718573012000,9.153011962890625,1.2631683349609375,-5.73150634765625,-1.375030517578125
1715093718582991000,9.1629912109375,0.80108642578125,-5.4058990478515625,-0.752532958984375
1715093718592970500,9.172970458984375,0.3653411865234375,-5.5447540283203125,-0.1252593994140625
1715093718602919200,9.182919189453125,-0.051239013671875,-5.925445556640625,0.08782958984375
1715093718612898600,9.192898681640624,-0.1949005126953125,-6.274993896484375,-0.0294952392578125
1715093718622877700,9.202877685546875,0.42041015625,-6.4306182861328125,-0.223419189453125
1715093718632856800,9.21285693359375,1.2104949951171875,-6.3827362060546875,-0.33355712890625
1715093718642836200,9.222836181640625,2.010162353515625,-6.5263824462890625,-0.15399169921875
1715093718652785000,9.232784912109375,2.601531982421875,-6.7227020263671875,0.5187835693359375
1715093718662764300,9.242764404296874,3.0540313720703125,-6.84002685546875,1.43096923828125
1715093718672743400,9.252743408203125,3.3126068115234375,-7.0818328857421875,2.7693328857421875
1715093718682722600,9.26272265625,3.267120361328125,-6.56707763671875,5.69744873046875
1715093718692671500,9.27267138671875,2.9223480224609375,-5.7339019775390625,8.893707275390625
1715093718702650600,9.282650634765625,2.2615509033203125,-6.638916015625,10.227279663085938
1715093718712629800,9.292629638671874,1.56243896484375,-8.650039672851562,11.714065551757812
1715093718722578700,9.30257861328125,1.291900634765625,-11.276473999023438,12.815399169921875
1715093718732557800,9.312557861328125,1.028533935546875,-13.943618774414062,11.438735961914062
1715093718742537200,9.322537109375,-0.716827392578125,-16.167831420898438,8.156295776367188
1715093718752486000,9.33248583984375,-2.90753173828125,-18.401626586914062,3.844329833984375
1715093718762465000,9.342465087890625,0.1690216064453125,-20.240371704101562,-0.620849609375
1715093718772444400,9.3524443359375,6.1856536865234375,-20.302627563476562,-1.82513427734375
1715093718782393000,9.36239306640625,5.6517486572265625,-14.029815673828125,1.1628265380859375
1715093718792372200,9.372372314453125,1.4906158447265625,-8.094589233398438,3.4445037841796875
1715093718802351600,9.3823515625,1.5432891845703125,-9.808837890625,4.33514404296875
1715093718812300300,9.39230029296875,1.2631683349609375,-12.191070556640625,4.8666534423828125
1715093718822279400,9.402279541015625,-2.98175048828125,-12.490341186523438,3.432525634765625
1715093718832258800,9.4122587890625,-3.5707244873046875,-15.94757080078125,2.4676666259765625
1715093718842207500,9.42220751953125,-6.7837371826171875,-20.379241943359375,3.0853729248046875
1715093718852187000,9.432186767578125,-6.6496734619140625,-19.694488525390625,-1.4372711181640625
1715093718862166000,9.442166015625,-3.8149261474609375,-14.221343994140625,-2.969573974609375
1715093718872114700,9.45211474609375,-0.7910614013671875,-9.823196411132812,-0.7166290283203125
1715093718882094000,9.462093994140625,1.3110504150390625,-7.089019775390625,2.2258453369140625
1715093718892073200,9.4720732421875,2.1035308837890625,-5.1473236083984375,3.5713958740234375
1715093718902022000,9.48202197265625,2.381256103515625,-3.7634735107421875,3.262542724609375
1715093718912001300,9.492001220703125,1.04290771484375,-3.528839111328125,1.1460723876953125
1715093718921980400,9.50198046875,0.1594390869140625,-4.2064056396484375,-0.0103302001953125
1715093718931959800,9.511959716796875,-0.0991363525390625,-5.9972686767578125,-1.1882781982421875
1715093718941939000,9.52193896484375,0.0301513671875,-8.168807983398438,-2.49072265625
1715093718951887600,9.5318876953125,0.26239013671875,-10.122482299804688,-2.57452392578125
1715093718961867000,9.541866943359375,0.341400146484375,-11.259719848632812,-1.4348907470703125
1715093718971846100,9.55184619140625,-0.6881103515625,-11.815170288085938,-1.0302581787109375
1715093718981825500,9.561825439453125,-1.940277099609375,-11.238174438476562,-1.983154296875
1715093718991774200,9.571774169921875,-1.5859222412109375,-9.332382202148438,-2.0118865966796875
1715093719001753300,9.58175341796875,-0.537261962890625,-7.5463104248046875,-1.808380126953125
1715093719011732700,9.591732666015625,0.6143341064453125,-6.5742645263671875,-2.315948486328125
1715093719021681400,9.601681396484375,1.9167938232421875,-5.587860107421875,-2.0549774169921875
1715093719031660500,9.61166064453125,1.9981842041015625,-5.0731048583984375,-1.64556884765625
1715093719041640000,9.621639892578125,1.11712646484375,-5.14013671875,-0.9775848388671875
1715093719051588600,9.631588623046875,0.3318328857421875,-5.662078857421875,0.82763671875
1715093719061568000,9.641568115234374,-0.3385467529296875,-6.4258270263671875,3.169158935546875
1715093719071547100,9.651547119140625,-0.810211181640625,-7.615753173828125,4.4763946533203125
1715093719081495800,9.661495849609375,-1.0711822509765625,-9.033111572265625,5.0462188720703125
1715093719091475200,9.67147509765625,-0.9562530517578125,-10.170364379882812,5.3957672119140625
1715093719101454300,9.681454345703125,-0.90118408203125,-10.618072509765625,5.4364776611328125
1715093719111403000,9.691403076171875,-1.1956787109375,-10.32598876953125,5.1060791015625
1715093719121382400,9.70138232421875,-1.72479248046875,-9.847137451171875,4.6080780029296875
1715093719131361500,9.711361572265625,-2.2395477294921875,-9.330001831054688,4.1771240234375
1715093719141341000,9.7213408203125,-2.6369781494140625,-9.109725952148438,3.6312408447265625
1715093719151289600,9.73128955078125,-2.818939208984375,-9.188735961914062,3.240997314453125
1715093719161268700,9.741268798828125,-2.6082611083984375,-9.298873901367188,3.0805816650390625
1715093719171248000,9.751248046875,-1.68170166015625,-9.648422241210938,3.6312408447265625
1715093719181196800,9.76119677734375,-0.731201171875,-9.974029541015625,3.9472808837890625
1715093719191176000,9.771176025390625,0.140289306640625,-9.990798950195312,4.509918212890625
1715093719201155300,9.7811552734375,1.7515869140625,-9.622085571289062,4.0622100830078125
1715093719211134500,9.791134521484375,4.2535247802734375,-8.53033447265625,3.6360321044921875
1715093719221113900,9.80111376953125,5.9366455078125,-7.0435333251953125,3.142822265625
1715093719231062500,9.8110625,5.7762451171875,-5.513641357421875,2.1252899169921875
1715093719241041700,9.821041748046875,3.6071014404296875,-4.2542877197265625,1.43096923828125
1715093719251021000,9.83102099609375,0.743621826171875,-4.3045654296875,1.203521728515625
1715093719261000200,9.841000244140625,-0.980194091796875,-6.31329345703125,2.0247344970703125
1715093719270948900,9.850948974609375,-0.8652801513671875,-9.420974731445312,3.4875946044921875
1715093719280928300,9.86092822265625,0.1857757568359375,-12.351470947265625,3.5139312744140625
1715093719290907400,9.870907470703125,1.95269775390625,-13.606033325195312,2.7956695556640625
1715093719300856300,9.880856201171875,3.310211181640625,-12.741729736328125,3.633636474609375
1715093719310835500,9.89083544921875,2.685333251953125,-11.56378173828125,4.593719482421875
1715093719320814600,9.900814697265625,0.6143341064453125,-10.12725830078125,5.7213897705078125
1715093719330763500,9.910763427734375,-1.14300537109375,-8.417800903320312,6.3199310302734375
1715093719340742700,9.92074267578125,-2.605865478515625,-7.1895751953125,6.13079833984375
1715093719350722000,9.93072216796875,-3.2211761474609375,-7.2973175048828125,4.3375396728515625
1715093719360670700,9.940670654296875,-3.367218017578125,-8.10894775390625,1.6225128173828125
1715093719370649900,9.95064990234375,-3.034423828125,-8.867919921875,-0.867462158203125
1715093719380629200,9.960629150390625,-2.924285888671875,-10.438507080078125,-3.8027496337890625
1715093719390578000,9.970577880859375,-3.345672607421875,-12.722579956054688,-7.312652587890625
1715093719400557000,9.98055712890625,-4.1884307861328125,-15.945175170898438,-10.197662353515625
1715093719410536400,9.990536376953125,-4.5547332763671875,-19.447891235351562,-11.497711181640625
1715093719420485000,10.000485107421875,-4.9066925048828125,-22.818923950195312,-11.476165771484375
1715093719430464300,10.01046435546875,-5.555511474609375,-24.645706176757812,-9.907958984375
1715093719440443600,10.020443603515625,-4.8803558349609375,-23.331283569335938,-4.1690673828125
1715093719450392300,10.030392333984375,-4.85162353515625,-20.012924194335938,3.4085845947265625
1715093719460371700,10.040371826171874,-6.209136962890625,-15.928421020507812,7.96954345703125
1715093719470350800,10.050350830078125,-7.5474853515625,-10.014739990234375,10.751602172851562
1715093719480330000,10.060330078125,-8.141250610351562,-8.35076904296875,11.802658081054688
1715093719490279000,10.07027880859375,-7.3870849609375,-6.624542236328125,13.5264892578125
1715093719500258000,10.080258056640625,-4.243499755859375,-5.6118011474609375,12.585556030273438
1715093719510237200,10.0902373046875,-1.6840972900390625,-5.3484344482421875,9.19537353515625
1715093719520216600,10.100216552734375,-1.4207305908203125,-5.772216796875,6.511474609375
1715093719530195700,10.11019580078125,-0.3577117919921875,-6.7107391357421875,4.667938232421875
1715093719540144600,10.12014453125,1.0620574951171875,-7.680389404296875,2.807647705078125
1715093719550123800,10.130123779296875,2.63983154296875,-8.4034423828125,0.8683319091796875
1715093719560103000,10.14010302734375,3.331756591796875,-8.54229736328125,-0.2521514892578125
1715093719570051800,10.1500517578125,3.341339111328125,-8.147262573242188,-0.845916748046875
1715093719580031000,10.160031005859375,3.0420684814453125,-7.10577392578125,-1.12603759765625
1715093719590010400,10.17001025390625,2.390838623046875,-5.7913665771484375,-1.0925140380859375
1715093719599959000,10.179958984375,1.629486083984375,-4.9150848388671875,-1.1308135986328125
1715093719609938200,10.189938232421875,0.990234375,-4.637359619140625,-0.9392852783203125
1715093719619917600,10.19991748046875,0.5185699462890625,-4.7714385986328125,-0.6855010986328125
1715093719629866200,10.2098662109375,0.5377197265625,-5.1952056884765625,-0.508331298828125
1715093719639845400,10.219845458984375,0.841796875,-5.3963165283203125,-0.4173431396484375
1715093719649824800,10.22982470703125,1.375701904296875,-5.2646331787109375,-0.3479156494140625
1715093719659773400,10.2397734375,1.70849609375,-5.276611328125,-0.7501373291015625
1715093719669752600,10.249752685546875,2.0700225830078125,-5.513641357421875,-0.22821044921875
1715093719679732000,10.25973193359375,2.22802734375,-5.6692657470703125,0.7103271484375
1715093719689680600,10.2696806640625,2.49139404296875,-5.9637451171875,1.857147216796875
1715093719699660000,10.279659912109375,2.67095947265625,-6.3946990966796875,3.6575775146484375
1715093719709639200,10.28963916015625,3.0420684814453125,-6.2606201171875,5.7213897705078125
1715093719719587800,10.299587890625,3.14501953125,-6.401885986328125,7.3925323486328125
1715093719729567200,10.309567138671875,2.579986572265625,-7.9844512939453125,8.173049926757812
1715093719739546400,10.31954638671875,1.7396240234375,-10.129653930664062,9.085235595703125
1715093719749495000,10.3294951171875,0.6023712158203125,-11.92291259765625,8.94158935546875
1715093719759474400,10.339474365234375,-0.060821533203125,-13.7281494140625,6.6455535888671875
1715093719769453600,10.34945361328125,1.9766387939453125,-15.214935302734375,2.9441070556640625
1715093719779433000,10.359432861328125,3.0229034423828125,-17.1949462890625,-1.09490966796875
1715093719789412000,10.369412109375,3.975799560546875,-17.259597778320312,-1.058990478515625
1715093719799360800,10.37936083984375,3.8034210205078125,-13.610824584960938,0.9736785888671875
1715093719809340200,10.389340087890625,3.7627105712890625,-9.44970703125,3.104522705078125
1715093719819319300,10.3993193359375,4.8544769287109375,-7.2063446044921875,5.565765380859375
1715093719829298700,10.409298583984375,-0.135040283203125,-7.6564483642578125,7.1746673583984375
1715093719839247400,10.419247314453125,-2.2970123291015625,-10.871856689453125,8.795547485351562
1715093719849226500,10.4292265625,-5.0216064453125,-20.561187744140625,7.6822357177734375
1715093719859206000,10.439205810546875,-10.111679077148438,-27.7701416015625,6.1834716796875
1715093719869154600,10.449154541015625,-9.273712158203125,-29.053421020507812,1.05987548828125
1715093719879133700,10.4591337890625,-5.205963134765625,-22.131790161132812,-6.4914398193359375
1715093719889113000,10.469113037109375,-0.8197784423828125,-11.705047607421875,-4.7053680419921875
1715093719899061800,10.479061767578125,1.536102294921875,-6.62933349609375,-1.078155517578125
1715093719909041000,10.489041015625,2.886444091796875,-4.3069610595703125,0.468505859375
1715093719919020300,10.499020263671875,1.777923583984375,-3.4378662109375,1.905029296875
1715093719928969000,10.508968994140625,0.6239166259765625,-3.136199951171875,2.185150146484375
1715093719938948400,10.5189482421875,-0.5588226318359375,-3.2606964111328125,0.241058349609375
1715093719948927500,10.528927490234375,-0.4774169921875,-3.7155914306640625,-1.279266357421875
1715093719958876200,10.538876220703125,0.47308349609375,-5.3747711181640625,-0.90576171875
1715093719968855600,10.54885546875,1.208099365234375,-7.5870208740234375,-0.8387298583984375
1715093719978834700,10.558834716796875,1.3948516845703125,-9.68194580078125,-0.249755859375
1715093719988783400,10.568783447265625,0.4515380859375,-12.114456176757812,0.4349822998046875
1715093719998762800,10.5787626953125,-1.487762451171875,-13.469573974609375,0.5738525390625
1715093720008742000,10.588741943359375,-3.2690582275390625,-12.562164306640625,-1.4731903076171875
1715093720018690600,10.598690673828125,-2.9961090087890625,-10.72821044921875,-2.749298095703125
1715093720028670000,10.608669921875,-1.1094818115234375,-8.580612182617188,-2.4188995361328125
1715093720038649000,10.618649169921875,0.1163482666015625,-6.9429779052734375,-2.67987060546875
1715093720048598000,10.628597900390625,1.37091064453125,-5.767425537109375,-2.9671783447265625
1715093720058577200,10.6385771484375,1.8760833740234375,-5.240692138671875,-2.833099365234375
1715093720068556300,10.648556396484375,1.5480804443359375,-5.5591278076171875,-2.3350982666015625
1715093720078535700,10.65853564453125,0.9567108154296875,-6.191192626953125,-0.87225341796875
1715093720088514800,10.668514892578125,0.171417236328125,-6.9741058349609375,0.8707275390625
1715093720098463700,10.678463623046875,-0.3648834228515625,-8.051483154296875,2.3096466064453125
1715093720108443000,10.68844287109375,-1.0185089111328125,-9.370697021484375,3.0446624755859375
1715093720118422000,10.698422119140625,-1.1358184814453125,-10.46484375,3.7988433837890625
1715093720128401400,10.7084013671875,-1.0352630615234375,-11.13043212890625,4.58892822265625
1715093720138350000,10.71835009765625,-1.1956787109375,-11.345916748046875,4.8642578125
1715093720148329500,10.72832958984375,-1.370452880859375,-10.522308349609375,4.8546905517578125
1715093720158308600,10.73830859375,-1.57635498046875,-9.535888671875,4.624847412109375
1715093720168257300,10.74825732421875,-1.6577606201171875,-8.729049682617188,4.208251953125
1715093720178236700,10.758236572265625,-1.5859222412109375,-8.080215454101562,4.2274017333984375
1715093720188215800,10.7682158203125,-1.5643768310546875,-7.9820556640625,4.445281982421875
1715093720198164500,10.77816455078125,-1.4829864501953125,-7.9413604736328125,4.8881988525390625
1715093720208144000,10.788143798828125,-1.66015625,-8.10894775390625,5.745330810546875
1715093720218123000,10.798123046875,-1.2148284912109375,-8.3411865234375,6.813140869140625
1715093720228071700,10.80807177734375,0.985443115234375,-8.372314453125,7.1172027587890625
1715093720238051000,10.818051025390625,4.445068359375,-7.7713623046875,6.57611083984375
1715093720248030200,10.8280302734375,6.9637603759765625,-6.581451416015625,5.2473297119140625
1715093720257979000,10.837978759765624,6.7458953857421875,-4.9366302490234375,3.73419189453125
1715093720267958300,10.847958251953125,3.5568084716796875,-3.9334564208984375,2.50836181640625
1715093720277937400,10.8579375,-0.64739990234375,-5.123382568359375,0.5547027587890625
1715093720287886300,10.86788623046875,-3.0104827880859375,-8.527938842773438,0.3488006591796875
1715093720297865500,10.877865478515625,-2.0240631103515625,-11.903762817382812,1.550689697265625
1715093720307844600,10.8878447265625,-0.24517822265625,-13.323516845703125,2.201904296875
1715093720317793500,10.89779345703125,1.651031494140625,-13.017059326171875,3.0805816650390625
1715093720327772700,10.907772705078125,2.8696746826171875,-12.219802856445312,4.3590850830078125
1715093720337752000,10.917751953125,1.6797637939453125,-11.1519775390625,5.5370330810546875
1715093720347731200,10.927731201171875,0.626312255859375,-9.674758911132812,6.1140289306640625
1715093720357710300,10.93771044921875,-0.6497955322265625,-7.785736083984375,5.671112060546875
1715093720367659300,10.9476591796875,-2.7088165283203125,-6.9477691650390625,4.014312744140625
1715093720377638400,10.957638427734375,-2.7471160888671875,-7.268585205078125,0.9401702880859375
1715093720387617800,10.96761767578125,-2.3879852294921875,-8.223876953125,-1.7413482666015625
1715093720397597000,10.977596923828125,-2.0025177001953125,-9.655609130859375,-3.90570068359375
1715093720407545600,10.987545654296875,-1.9761810302734375,-11.63800048828125,-5.8952789306640625
1715093720417525000,10.99752490234375,-2.8428802490234375,-14.297958374023438,-8.059646606445312
1715093720427504000,11.007504150390625,-3.1804656982421875,-17.961090087890625,-9.685302734375
1715093720437452800,11.017452880859375,-3.1948394775390625,-21.164535522460938,-8.91436767578125
1715093720447432200,11.02743212890625,-4.044769287109375,-22.8165283203125,-6.1849822998046875
1715093720457411300,11.037411376953125,-4.561920166015625,-23.61859130859375,-2.7038116455078125
1715093720467360000,11.047360107421875,-5.2394866943359375,-22.206008911132812,2.5299072265625
1715093720477339400,11.05733935546875,-6.3551788330078125,-18.942718505859375,7.1650848388671875
1715093720487318500,11.067318603515625,-7.9449310302734375,-13.828704833984375,9.271987915039062
1715093720497267500,11.077267333984375,-8.986404418945312,-8.175994873046875,10.883285522460938
1715093720507246600,11.08724658203125,-7.72705078125,-7.3763275146484375,8.860183715820312
1715093720517225700,11.097225830078125,-5.2251129150390625,-6.761016845703125,7.9575653076171875
1715093720527174700,11.107174560546875,-1.5260772705078125,-5.4058990478515625,8.505844116210938
1715093720537153800,11.11715380859375,0.2408447265625,-5.14013671875,7.193817138671875
1715093720547133200,11.12713330078125,-0.7671051025390625,-6.507232666015625,4.8211669921875
1715093720557081900,11.137081787109375,-0.853302001953125,-7.71868896484375,4.19866943359375
1715093720567061000,11.14706103515625,-0.0153350830078125,-7.986846923828125,3.142822265625
1715093720577040400,11.157040283203125,1.428375244140625,-7.7665863037109375,1.8858795166015625
1715093720586989000,11.166989013671875,2.3956298828125,-7.2805633544921875,1.1269073486328125
1715093720596968200,11.17696826171875,2.73321533203125,-6.7849578857421875,0.336822509765625
1715093720606947600,11.186947509765625,2.5943450927734375,-6.0020599365234375,-0.4700164794921875
1715093720616896300,11.196896240234375,1.7324371337890625,-5.2622528076171875,-1.2289886474609375
1715093720626875400,11.20687548828125,0.8106689453125,-4.8312835693359375,-2.0549774169921875
1715093720636854800,11.216854736328125,0.1857757568359375,-4.7451019287109375,-2.6990203857421875
1715093720646834000,11.226833984375,0.0157928466796875,-5.0108489990234375,-3.182647705078125
1715093720656813300,11.236813232421875,0.0900115966796875,-5.573486328125,-3.5345916748046875
1715093720666762000,11.246761962890625,-0.0272979736328125,-6.0092315673828125,-3.4220733642578125
1715093720676741000,11.2567412109375,0.34619140625,-6.2773895263671875,-2.9623870849609375
1715093720686720500,11.266720458984375,1.12908935546875,-6.2725982666015625,-1.999908447265625
1715093720696699600,11.27669970703125,1.83538818359375,-6.7274932861328125,-1.691070556640625
1715093720706648300,11.2866484375,2.2400054931640625,-7.2613983154296875,-1.0182952880859375
1715093720716627700,11.296627685546875,2.579986572265625,-7.6732025146484375,0.188385009765625
1715093720726606800,11.30660693359375,2.6637725830078125,-8.259780883789062,1.86431884765625
1715093720736555800,11.3165556640625,2.6637725830078125,-7.742645263671875,5.122833251953125
1715093720746535000,11.326534912109375,2.421966552734375,-7.0004425048828125,8.115585327148438
1715093720756514000,11.33651416015625,1.7491912841796875,-7.6349029541015625,9.537750244140625
1715093720766463000,11.346462890625,1.1793670654296875,-8.70989990234375,11.568023681640625
1715093720776442000,11.356442138671875,1.349365234375,-10.65399169921875,13.495361328125
1715093720786421500,11.36642138671875,0.9351654052734375,-12.880599975585938,12.032501220703125
1715093720796370200,11.3763701171875,1.354156494140625,-13.50787353515625,8.740478515625
1715093720806349300,11.386349365234375,1.5696258544921875,-14.740890502929688,4.852294921875
1715093720816328700,11.39632861328125,0.1043701171875,-17.178192138671875,0.695953369140625
1715093720826277400,11.40627734375,3.4131622314453125,-18.090377807617188,-0.9871673583984375
1715093720836256500,11.416256591796875,4.72998046875,-14.843841552734375,-0.63043212890625
1715093720846236000,11.42623583984375,2.9319305419921875,-9.411392211914062,2.343170166015625
1715093720856184600,11.4361845703125,0.54730224609375,-6.9333953857421875,4.9767913818359375
1715093720866163700,11.446163818359375,-2.902740478515625,-9.1217041015625,4.562591552734375
1715093720876143000,11.45614306640625,-2.9434356689453125,-14.245285034179688,6.1451568603515625
1715093720886091800,11.466091796875,-4.624176025390625,-20.814987182617188,9.140304565429688
1715093720896071200,11.4760712890625,-8.282516479492188,-24.356002807617188,7.5242156982421875
1715093720906050300,11.48605029296875,-8.87628173828125,-24.26263427734375,0.4661102294921875
1715093720916029400,11.496029541015625,-5.332855224609375,-17.745620727539062,-3.635162353515625
1715093720925978400,11.505978271484375,-1.3513031005859375,-11.044235229492188,-2.2656707763671875
1715093720935957500,11.51595751953125,2.0388946533203125,-8.712295532226562,0.52117919921875
1715093720945937000,11.52593701171875,3.13543701171875,-6.105010986328125,2.6304779052734375
1715093720955916000,11.535916015625,2.4578704833984375,-4.532012939453125,3.2984466552734375
1715093720965895200,11.545895263671875,1.1578216552734375,-4.235137939453125,1.5530853271484375
1715093720975844000,11.555843994140625,1.1841583251953125,-4.10345458984375,-0.7860565185546875
1715093720985823200,11.5658232421875,1.68695068359375,-5.188018798828125,-2.34228515625
1715093720995802400,11.57580224609375,1.70849609375,-6.92620849609375,-3.7021942138671875
1715093721005751300,11.585751220703125,1.3421783447265625,-8.803268432617188,-4.9854888916015625
1715093721015730400,11.59573046875,0.6550445556640625,-10.582168579101562,-4.3055267333984375
1715093721025709800,11.605709716796875,-0.6545867919921875,-10.895797729492188,-2.18426513671875
1715093721035689000,11.61568896484375,-2.390380859375,-10.309219360351562,-0.762115478515625
1715093721045637600,11.6256376953125,-2.7183837890625,-9.387451171875,-2.0142822265625
1715093721055617000,11.635616943359375,-1.8181610107421875,-8.180770874023438,-2.775634765625
1715093721065596200,11.64559619140625,-0.35052490234375,-7.268585205078125,-3.2329254150390625
1715093721075544800,11.655544921875,1.2775421142578125,-6.5694732666015625,-3.3526458740234375
1715093721085524200,11.665524169921875,2.4411163330078125,-6.0547332763671875,-2.9480133056640625
1715093721095503400,11.67550341796875,2.2352142333984375,-5.8919219970703125,-2.093292236328125
1715093721105452000,11.6854521484375,1.9503021240234375,-5.9230499267578125,-0.043853759765625
1715093721115431400,11.695431396484375,1.7707366943359375,-6.1744384765625,2.6065216064453125
1715093721125410600,11.70541064453125,1.4523162841796875,-6.51202392578125,5.017486572265625
1715093721135359500,11.715359375,0.669403076171875,-7.1895751953125,5.9871368408203125
1715093721145338600,11.725338623046875,-0.582763671875,-7.891082763671875,6.7772216796875
1715093721155317800,11.73531787109375,-1.8181610107421875,-8.432174682617188,7.2752227783203125
1715093721165266700,11.7452666015625,-2.7064208984375,-8.824813842773438,7.1124114990234375
1715093721175245800,11.755245849609375,-3.3959503173828125,-9.016357421875,6.57611083984375
1715093721185225200,11.76522509765625,-3.4701690673828125,-9.033111572265625,5.7333526611328125
1715093721195174000,11.775173828125,-3.2451171875,-9.045089721679688,5.1180419921875
1715093721205153000,11.785153076171875,-3.11822509765625,-9.205490112304688,4.505126953125
1715093721215132400,11.79513232421875,-3.252288818359375,-9.4185791015625,4.1651611328125
1715093721225111600,11.805111572265625,-3.156524658203125,-9.528717041015625,3.9113616943359375
1715093721235091000,11.815091064453124,-2.613037109375,-9.499984741210938,3.72222900390625
1715093721245039600,11.82503955078125,-1.2244110107421875,-9.320419311523438,3.305633544921875
1715093721255018800,11.835018798828125,0.408447265625,-9.114517211914062,2.6663818359375
1715093721264998100,11.844998046875,2.295074462890625,-8.7745361328125,2.089385986328125
1715093721274977300,11.854977294921875,4.9406585693359375,-8.089797973632812,1.9457244873046875
1715093721284926000,11.864926025390625,7.758636474609375,-7.0866241455078125,1.888275146484375
1715093721294905300,11.8749052734375,8.5128173828125,-6.20556640625,1.8595428466796875
1715093721304884500,11.884884521484375,5.82891845703125,-5.863189697265625,1.4261932373046875
1715093721314833200,11.894833251953125,2.199310302734375,-7.0914154052734375,1.550689697265625
1715093721324812500,11.9048125,0.94952392578125,-9.437728881835938,2.2473907470703125
1715093721334791700,11.914791748046875,1.66778564453125,-11.81756591796875,3.2362060546875
1715093721344740600,11.92474072265625,1.22247314453125,-13.720962524414062,2.618499755859375
1715093721354719700,11.9347197265625,0.86334228515625,-14.412887573242188,2.1707763671875
1715093721364699000,11.944698974609375,0.3653411865234375,-14.3218994140625,2.841156005859375
1715093721374647800,11.954647705078125,-1.29144287109375,-12.995513916015625,4.8283538818359375
1715093721384627000,11.964626953125,-3.1852569580078125,-11.525482177734375,5.43408203125
1715093721394606000,11.974606201171875,-4.803741455078125,-10.278091430664062,4.921722412109375
1715093721404555000,11.984554931640625,-4.86358642578125,-9.437728881835938,3.7677154541015625
1715093721414534100,11.9945341796875,-3.0703277587890625,-9.351547241210938,0.695953369140625
1715093721424513500,12.004513427734375,-2.3472900390625,-10.153594970703125,-1.925689697265625
1715093721434462200,12.014462158203125,-1.8588714599609375,-11.9324951171875,-4.54974365234375
1715093721444441300,12.02444140625,-2.2778472900390625,-14.1614990234375,-8.186538696289062
1715093721454420700,12.034420654296875,-3.60662841796875,-15.973907470703125,-11.844879150390625
1715093721464369400,12.044369384765625,-4.698394775390625,-17.700119018554688,-13.496871948242188
1715093721474348500,12.0543486328125,-4.6337432861328125,-19.589141845703125,-12.405120849609375
1715093721484328000,12.064327880859375,-3.92266845703125,-19.751953125,-8.548065185546875
1715093721494307000,12.07430712890625,-2.998504638671875,-19.25634765625,-2.050201416015625
1715093721504286500,12.084286376953125,-3.53240966796875,-17.453521728515625,5.2425384521484375
1715093721514235100,12.094235107421875,-5.5722808837890625,-15.009033203125,8.936798095703125
1715093721524214300,12.10421435546875,-8.675155639648438,-11.247756958007812,11.558456420898438
1715093721534193700,12.114193603515625,-9.496368408203125,-9.24859619140625,13.00933837890625
1715093721544172800,12.1241728515625,-7.5474853515625,-6.5790557861328125,14.503311157226562
1715093721554121500,12.13412158203125,-5.2514495849609375,-4.90789794921875,11.558456420898438
1715093721564100900,12.144100830078125,-1.6697235107421875,-3.38519287109375,8.7093505859375
1715093721574080000,12.154080078125,0.07086181640625,-4.3452606201171875,6.422882080078125
1715093721584029000,12.16402880859375,0.72686767578125,-5.1688690185546875,4.3135986328125
1715093721594008000,12.174008056640625,1.84735107421875,-6.105010986328125,2.534698486328125
1715093721603987200,12.1839873046875,3.0396728515625,-7.1560516357421875,0.432586669921875
1715093721613936000,12.19393603515625,3.4011993408203125,-7.0267791748046875,-1.7676849365234375
1715093721623915300,12.203915283203125,2.8792572021484375,-6.7586212158203125,-2.938446044921875
1715093721633894700,12.213894775390624,2.8960113525390625,-6.6532745361328125,-3.888946533203125
1715093721643843300,12.22384326171875,2.6254730224609375,-6.160064697265625,-4.470733642578125
1715093721653822500,12.233822509765625,2.105926513671875,-5.4561767578125,-4.5425567626953125
1715093721663801900,12.2438017578125,1.2440185546875,-5.2047882080078125,-4.07568359375
1715093721673750500,12.25375048828125,0.5449066162109375,-5.398712158203125,-2.9097137451171875
1715093721683729700,12.263729736328125,-0.1470184326171875,-5.7769927978515625,-1.671905517578125
1715093721693709000,12.273708984375,-0.8293609619140625,-6.4569549560546875,-0.95843505859375
1715093721703657700,12.28365771484375,-0.9969635009765625,-7.1608428955078125,-0.170745849609375
1715093721713636900,12.293636962890625,-0.8987884521484375,-7.53912353515625,0.70074462890625
1715093721723616300,12.3036162109375,0.362945556640625,-7.3930816650390625,0.56427001953125
1715093721733565000,12.31356494140625,1.4163970947265625,-7.689971923828125,0.47808837890625
1715093721743544300,12.32354443359375,2.338165283203125,-7.977264404296875,1.550689697265625
1715093721753523500,12.3335234375,2.919952392578125,-8.420196533203125,2.1660003662109375
1715093721763472100,12.34347216796875,3.2072601318359375,-8.480056762695312,3.6240692138671875
1715093721773451500,12.353451416015625,3.4921722412109375,-7.06268310546875,7.3661956787109375
1715093721783430700,12.3634306640625,3.25274658203125,-6.5742645263671875,9.415634155273438
1715093721793409800,12.373409912109375,2.8529205322265625,-7.7091217041015625,10.531341552734375
1715093721803389200,12.38338916015625,2.41717529296875,-9.732223510742188,12.710052490234375
1715093721813337900,12.393337890625,2.3573150634765625,-12.46160888671875,13.722808837890625
1715093721823317200,12.403317138671875,0.2647857666015625,-14.623580932617188,10.89764404296875
1715093721833296400,12.41329638671875,-1.7104339599609375,-15.882919311523438,5.95123291015625
1715093721843275500,12.423275634765625,-2.37841796875,-18.29388427734375,1.3208465576171875
1715093721853224400,12.433224365234375,2.141845703125,-19.000167846679688,-1.427703857421875
1715093721863203600,12.44320361328125,5.043609619140625,-15.954757690429688,-1.9472503662109375
1715093721873183000,12.453182861328125,3.4754180908203125,-10.448089599609375,0.245849609375
1715093721883131600,12.463131591796875,1.8282012939453125,-9.394638061523438,2.21148681640625
1715093721893110800,12.47311083984375,0.2384490966796875,-12.475982666015625,-0.7645111083984375
1715093721903090200,12.483090087890625,-3.0894927978515625,-17.118331909179688,1.045501708984375
1715093721913038800,12.493038818359375,-5.4549560546875,-21.133407592773438,7.74688720703125
1715093721923018000,12.50301806640625,-6.642486572265625,-21.052001953125,4.4021759033203125
1715093721932997400,12.512997314453125,-5.907470703125,-17.273956298828125,-2.36383056640625
1715093721942946000,12.522946044921875,-2.500518798828125,-12.286834716796875,-2.53143310546875
1715093721952925200,12.53292529296875,-1.1454010009765625,-9.06903076171875,-0.0151214599609375
1715093721962904600,12.542904541015625,0.4323883056640625,-7.24224853515625,2.4413299560546875
1715093721972853200,12.552853271484375,1.6486358642578125,-5.47772216796875,4.6296234130859375
1715093721982832600,12.56283251953125,1.23443603515625,-4.1585235595703125,5.3000030517578125
1715093721992811800,12.572811767578125,0.0636749267578125,-3.6629180908203125,3.4564666748046875
1715093722002760400,12.582760498046875,0.078033447265625,-4.024444580078125,1.730255126953125
1715093722012739800,12.59273974609375,0.1378936767578125,-5.71954345703125,-0.520294189453125
1715093722022719000,12.602718994140625,-0.13983154296875,-7.9988250732421875,-3.7764129638671875
1715093722032667600,12.612667724609375,-0.0895538330078125,-10.227813720703125,-5.8785247802734375
1715093722042647000,12.62264697265625,0.013397216796875,-12.0067138671875,-6.204132080078125
1715093722052626200,12.632626220703125,-0.5588226318359375,-12.959609985351562,-5.3350372314453125
1715093722062605600,12.64260546875,-1.212432861328125,-11.992340087890625,-4.33905029296875
1715093722072554200,12.65255419921875,-0.716827392578125,-9.061843872070312,-3.2520904541015625
1715093722082533400,12.662533447265625,-0.0440673828125,-6.559906005859375,-2.64874267578125
1715093722092512800,12.6725126953125,0.83221435546875,-5.460968017578125,-2.63677978515625
1715093722102492000,12.682491943359375,1.6701812744140625,-4.89593505859375,-2.3973541259765625
1715093722112471300,12.69247119140625,2.0484619140625,-4.8456573486328125,-1.9065399169921875
1715093722122420000,12.702419921875,1.979034423828125,-5.6812286376953125,-0.1563873291015625
1715093722132399000,12.712399169921875,1.9646759033203125,-6.5623016357421875,2.661590576171875
1715093722142378500,12.72237841796875,1.3254241943359375,-7.098602294921875,4.79962158203125
1715093722152327200,12.7323271484375,0.1690216064453125,-7.9485321044921875,5.608856201171875
1715093722162306300,12.742306396484375,-0.3074188232421875,-9.14324951171875,6.02545166015625
1715093722172285700,12.75228564453125,-0.714447021484375,-9.976425170898438,6.6670989990234375
1715093722182234400,12.762234375,-1.3058013916015625,-10.067413330078125,6.5665435791015625
1715093722192213500,12.772213623046875,-1.53326416015625,-9.813629150390625,6.2816314697265625
1715093722202193000,12.78219287109375,-1.7104339599609375,-9.760955810546875,5.65673828125
1715093722212141600,12.7921416015625,-2.131805419921875,-9.660400390625,4.8881988525390625
1715093722222121000,12.802120849609375,-2.4502410888671875,-9.47125244140625,3.782073974609375
1715093722232100000,12.81210009765625,-2.4933319091796875,-9.1025390625,3.485198974609375
1715093722242048800,12.822048828125,-2.241943359375,-9.042694091796875,3.3223876953125
1715093722252028200,12.832028076171875,-1.9905548095703125,-8.85833740234375,3.61688232421875
1715093722262007300,12.84200732421875,-1.1454010009765625,-9.009170532226562,3.8898162841796875
1715093722271956000,12.8519560546875,1.5049896240234375,-9.030715942382812,3.9376983642578125
1715093722281935400,12.861935302734375,5.687652587890625,-8.413009643554688,3.9640350341796875
1715093722291914500,12.87191455078125,9.039535522460938,-7.4002685546875,3.7365875244140625
1715093722301863200,12.88186328125,8.804901123046875,-5.980499267578125,2.6639862060546875
1715093722311842600,12.891842529296875,5.07952880859375,-4.9893035888671875,1.45013427734375
1715093722321821700,12.90182177734375,1.387664794921875,-5.3747711181640625,1.095794677734375
1715093722331770600,12.9117705078125,-0.0560302734375,-7.55828857421875,2.8650970458984375
1715093722341749800,12.921749755859375,-0.27630615234375,-10.541458129882812,4.689483642578125
1715093722351729000,12.93172900390625,-0.8173980712890625,-12.940444946289062,5.1252288818359375
1715093722361708300,12.941708251953125,0.07086181640625,-14.484710693359375,4.5649871826171875
1715093722371687400,12.9516875,2.2926788330078125,-14.434432983398438,4.6703338623046875
1715093722381636400,12.96163623046875,2.972625732421875,-12.320358276367188,5.9703826904296875
1715093722391615500,12.971615478515625,1.028533935546875,-9.212677001953125,7.1124114990234375
1715093722401594600,12.9815947265625,-0.5109405517578125,-6.813690185546875,6.090087890625
1715093722411574000,12.991573974609375,-1.561981201171875,-5.28857421875,4.7182159423828125
