time,seconds_elapsed,z,y,x
1715093709599750400,0.17975048828125,2.2841968536376953,-2.016500473022461,-2.777254104614258
1715093709609760300,0.18976025390625,2.0523929595947266,-1.707470417022705,-2.582001209259033
1715093709619739400,0.199739501953125,2.0557785034179688,-1.1886072158813477,-1.6557714939117432
1715093709629718800,0.20971875,2.014906883239746,-0.4687018394470215,-0.7633049488067627
1715093709639698000,0.219697998046875,1.6470136642456055,0.05647897720336914,-0.45117294788360596
1715093709649677000,0.229677001953125,0.9437036514282227,0.0915842056274414,-0.35542839765548706
1715093709659626000,0.2396259765625,0.30678367614746094,0.07092523574829102,-0.6266942024230957
1715093709669605000,0.249605224609375,-0.1540088653564453,0.1855330467224121,-0.9899009466171265
1715093709679584500,0.25958447265625,-0.6161928176879883,0.1890115737915039,-1.0117098093032837
1715093709689563600,0.269563720703125,-0.792236328125,0.29293394088745117,-0.964783251285553
1715093709699542800,0.279542724609375,-0.959599494934082,0.21446752548217773,-0.6979769468307495
1715093709709491700,0.28949169921875,-0.9485177993774414,0.06561851501464844,-0.581780195236206
1715093709719470800,0.299470947265625,-0.7899885177612305,0.07129669189453125,-0.589601993560791
1715093709729450200,0.3094501953125,-0.8085918426513672,0.11902761459350586,-0.3918592631816864
1715093709739429400,0.319429443359375,-0.9607419967651367,0.09576654434204102,-0.2195367068052292
1715093709749378000,0.3293779296875,-0.9622611999511719,0.03336286544799805,-0.03827489912509918
1715093709759357400,0.339357421875,-0.7802009582519531,-0.1669020652770996,-0.11381132900714874
1715093709769336600,0.349336669921875,-0.5925846099853516,-0.13339710235595703,-0.3505137860774994
1715093709779316000,0.35931591796875,-0.7868576049804688,-0.025280475616455078,-0.4368584454059601
1715093709789295000,0.369295166015625,-1.1228351593017578,-0.15965843200683594,-0.5655151009559631
1715093709799243800,0.379243896484375,-1.3656272888183594,-0.4179515838623047,-0.8595870733261108
1715093709809223200,0.38922314453125,-1.3606147766113281,-0.3243246078491211,-1.1470601558685303
1715093709819202300,0.399202392578125,-1.3836631774902344,-0.1715860366821289,-1.016684651374817
1715093709829181400,0.409181396484375,-1.5121278762817383,-0.268524169921875,-0.7292549014091492
1715093709839130400,0.41913037109375,-1.560093879699707,-0.37303686141967773,-0.6736513376235962
1715093709849109500,0.429109619140625,-1.549753189086914,-0.44153833389282227,-0.813593864440918
1715093709859089000,0.4390888671875,0.49978065490722656,-0.43372392654418945,-1.3526382446289062
1715093709869037600,0.44903759765625,1.2717838287353516,-0.7207427024841309,-1.1298425197601318
1715093709879016700,0.4590166015625,0.4175567626953125,-0.34289121627807617,0.07269372045993805
1715093709888996000,0.46899609375,-1.0946273803710938,0.32580995559692383,0.7618035078048706
1715093709898944800,0.47894482421875,-1.8399791717529297,0.28179931640625,0.3878713548183441
1715093709908924000,0.488923828125,-1.8268404006958008,0.19621562957763672,0.14845088124275208
1715093709918903300,0.4989033203125,-1.445775032043457,0.4611687660217285,0.45722639560699463
1715093709928852000,0.50885205078125,-1.193913459777832,0.41477203369140625,0.7070971131324768
1715093709938831000,0.5188310546875,-0.8397073745727539,0.1602497100830078,0.11530597507953644
1715093709948810500,0.528810546875,0.24757003784179688,-0.45917463302612305,-1.1475154161453247
1715093709958759200,0.53875927734375,1.2492446899414062,-0.3356494903564453,-0.6610302925109863
1715093709968738600,0.548738525390625,1.9420967102050781,0.7519254684448242,1.7886849641799927
1715093709978717700,0.5587177734375,1.5945568084716797,0.2601795196533203,1.4380099773406982
1715093709988666400,0.568666259765625,0.27819252014160156,-0.30833864212036133,1.2311906814575195
1715093709998645800,0.578645751953125,0.2289266586303711,0.09914827346801758,1.0716463327407837
1715093710008625000,0.588625,-0.1117410659790039,-0.2451462745666504,0.8989707231521606
1715093710018573600,0.598573486328125,-0.18344879150390625,-0.21592998504638672,1.031905174255371
1715093710028553000,0.608552978515625,-0.06867122650146484,-0.2558917999267578,1.2893829345703125
1715093710038532000,0.618531982421875,-0.04058551788330078,-0.3101801872253418,1.3810858726501465
1715093710048511500,0.628511474609375,-0.0384674072265625,-0.36270666122436523,1.4445395469665527
1715093710058510800,0.6385107421875,-0.6341085433959961,-0.9260034561157227,0.6392067670822144
1715093710068459500,0.64845947265625,-0.20795631408691406,-0.4591560363769531,0.3990764915943146
1715093710078438700,0.658438720703125,-1.201883316040039,-0.8454351425170898,0.22834289073944092
1715093710088418000,0.66841796875,-1.7387685775756836,-0.8497252464294434,-0.2327623963356018
1715093710098397200,0.678397216796875,-4.0949602127075195,-2.1681618690490723,-0.9626001119613647
1715093710108345900,0.688345947265625,-5.843418121337891,-1.9930343627929688,-1.5180796384811401
1715093710118325200,0.6983251953125,-4.331131935119629,-2.3182835578918457,-1.7649259567260742
1715093710128304400,0.708304443359375,-2.21026611328125,-3.2830686569213867,-2.190548896789551
1715093710138253300,0.71825341796875,-0.8236761093139648,-2.9768483638763428,-1.9171807765960693
1715093710148232400,0.728232421875,-1.8657245635986328,-3.1075048446655273,-1.0338690280914307
1715093710158211600,0.738211669921875,-3.1272382736206055,-3.455474853515625,-0.12954354286193848
1715093710168141000,0.74814111328125,-4.078235626220703,-3.339815616607666,0.5271697044372559
1715093710178120200,0.7581201171875,-4.5628814697265625,-3.131911277770996,0.3707883358001709
1715093710188099300,0.768099365234375,4.775907516479492,-1.7854223251342773,2.5619077682495117
1715093710198048300,0.77804833984375,3.529336929321289,-0.841785192489624,1.8337821960449219
1715093710208027400,0.78802734375,5.3511810302734375,0.3888530731201172,4.223775863647461
1715093710218006500,0.798006591796875,1.3512983322143555,-1.0837836265563965,4.63889217376709
1715093710227955500,0.80795556640625,-6.244787216186523,-2.6543960571289062,3.5144736766815186
1715093710237934600,0.8179345703125,-19.95920753479004,-0.9452868700027466,2.5531678199768066
1715093710247914000,0.8279140625,-5.110459327697754,-4.26840877532959,0.020498216152191162
1715093710257862700,0.837862548828125,4.1789350509643555,-4.626657485961914,-1.3630599975585938
1715093710267868200,0.8478681640625,14.790769577026367,-0.41701415181159973,-6.810845375061035
1715093710277847300,0.857847412109375,13.629521369934082,-1.0958316326141357,-10.59610652923584
1715093710287796000,0.8677958984375,6.531536102294922,-3.3201091289520264,-8.42834758758545
1715093710297775400,0.877775390625,-0.061145782470703125,-3.996661901473999,-1.6136207580566406
1715093710307754500,0.88775439453125,-3.9833545684814453,-5.8917131423950195,2.1318483352661133
1715093710317703200,0.897703125,-3.9614086151123047,-6.4263200759887695,3.4304299354553223
1715093710327682600,0.9076826171875,-3.5134191513061523,-6.102715015411377,2.014650583267212
1715093710337661700,0.91766162109375,-3.2191648483276367,-5.891841411590576,-0.23193299770355225
1715093710347641000,0.92764111328125,-3.868379592895508,-5.785577774047852,-2.3065757751464844
1715093710357620200,0.9376201171875,-5.817568778991699,-6.396322250366211,-2.4065604209899902
1715093710367569000,0.94756884765625,-7.75748348236084,-8.051591873168945,-1.319832444190979
1715093710377548300,0.95754833984375,-9.69104290008545,-9.44165325164795,1.1231980323791504
1715093710387527400,0.96752734375,-11.364418983459473,-9.764774322509766,3.957683801651001
1715093710397506800,0.9775068359375,-11.741700172424316,-8.540302276611328,6.62276554107666
1715093710407455500,0.98745556640625,-10.608699798583984,-6.729789733886719,7.084904193878174
1715093710417434600,0.9974345703125,-11.009247779846191,-4.164638519287109,8.604026794433594
1715093710427414000,1.0074140625,-11.81324577331543,-3.7066004276275635,12.434329986572266
1715093710437346600,1.0173466796875,-10.316141128540039,-1.3376069068908691,14.148676872253418
1715093710447325700,1.02732568359375,-6.423972129821777,-2.6256754398345947,9.746650695800781
1715093710457305000,1.03730517578125,-0.7549920082092285,-0.8100700378417969,13.230010986328125
1715093710467253800,1.047253662109375,-1.15932035446167,-4.2019734382629395,10.972936630249023
1715093710477233000,1.05723291015625,-1.0534687042236328,-5.022396087646484,6.2695698738098145
1715093710487212300,1.06721240234375,0.6216568946838379,-4.626401901245117,2.331867218017578
1715093710497161000,1.077160888671875,3.483119487762451,-6.459661483764648,-1.5603046417236328
1715093710507140400,1.087140380859375,3.1037445068359375,-7.39071798324585,-2.205674648284912
1715093710517119500,1.097119384765625,7.940466403961182,-5.909116268157959,-4.974075794219971
1715093710527068200,1.107068115234375,16.285249710083008,-3.64666748046875,-8.791215896606445
1715093710537047600,1.117047607421875,13.767671585083008,-3.8849258422851562,-7.878140449523926
1715093710547026700,1.127026611328125,9.577149391174316,-5.515304088592529,-8.483922004699707
1715093710556975400,1.136975341796875,10.063432693481445,-3.3889336585998535,-8.930355072021484
1715093710566954800,1.146954833984375,10.97117805480957,-2.9285478591918945,-7.816571235656738
1715093710576934000,1.156933837890625,9.129961013793945,-1.9189176559448242,-7.129311561584473
1715093710586882600,1.166882568359375,10.753469467163086,-1.7993907928466797,-6.346485137939453
1715093710596862000,1.176862060546875,11.99038028717041,-0.6084561347961426,-6.02811336517334
1715093710606841000,1.186841064453125,8.423601150512695,-0.5956058502197266,-6.223738193511963
1715093710616820500,1.196820556640625,6.501923561096191,-0.9831514358520508,-5.90887975692749
1715093710626769200,1.20676904296875,10.154394149780273,1.5548925399780273,-5.9239277839660645
1715093710636748300,1.216748291015625,11.589183807373047,2.115017890930176,-4.809250354766846
1715093710646727700,1.226727783203125,10.316217422485352,0.3905029296875,-2.2421340942382812
1715093710656706800,1.236706787109375,10.232856750488281,1.0725536346435547,-0.07382866740226746
1715093710666686200,1.246686279296875,10.692615509033203,1.6484622955322266,2.678746461868286
1715093710676635000,1.256634765625,10.282453536987305,2.134047508239746,5.631106853485107
1715093710686614000,1.266614013671875,12.399147033691406,2.1949119567871094,7.8959808349609375
1715093710696593400,1.276593505859375,13.831012725830078,2.2437353134155273,8.3679780960083
1715093710706542000,1.2865419921875,12.712005615234375,1.846480369567871,7.884388446807861
1715093710716521200,1.296521240234375,12.792433738708496,1.9136323928833008,9.341018676757812
1715093710726500600,1.30650048828125,13.465795516967773,2.4287118911743164,11.424999237060547
1715093710736449300,1.31644921875,11.887547492980957,1.6230459213256836,12.587425231933594
1715093710746428700,1.3264287109375,10.047981262207031,2.7798595428466797,13.094015121459961
1715093710756407800,1.33640771484375,7.858648777008057,2.78543758392334,12.027108192443848
1715093710766350800,1.346350830078125,4.899849891662598,2.7892541885375977,10.85491943359375
1715093710776330000,1.356330078125,3.6841907501220703,3.1320438385009766,9.910662651062012
1715093710786309400,1.366309326171875,1.9525337219238281,3.383634567260742,9.476229667663574
1715093710796258000,1.376258056640625,-1.8827481269836426,3.5971736907958984,10.307575225830078
1715093710806237400,1.386237548828125,-3.221527099609375,3.93685245513916,10.846571922302246
1715093710816216600,1.396216552734375,-4.4780354499816895,2.280834197998047,10.188777923583984
1715093710826165200,1.406165283203125,-6.099982738494873,0.7215633392333984,8.556534767150879
1715093710836144600,1.41614453125,-6.257153511047363,-0.31908702850341797,8.729035377502441
1715093710846123800,1.426123779296875,-3.7557220458984375,-3.471795082092285,8.177566528320312
1715093710856072400,1.436072509765625,-3.3310139179229736,-5.103309631347656,7.145256996154785
1715093710866051800,1.4460517578125,-4.93986701965332,-3.3128223419189453,2.3255157470703125
1715093710876031000,1.456031005859375,-6.8990278244018555,-5.801252365112305,0.36248302459716797
1715093710885979600,1.465979736328125,-5.715564250946045,-3.0505027770996094,-1.272474765777588
1715093710895959000,1.475958984375,-4.3915114402771,5.5326128005981445,-3.6479454040527344
1715093710905938200,1.485938232421875,-5.228968143463135,6.3452863693237305,-0.7460970878601074
1715093710915917600,1.49591748046875,-6.925980091094971,0.08654212951660156,2.773589611053467
1715093710925896700,1.505896728515625,-2.738490581512451,-1.9094915390014648,1.048192024230957
1715093710935848200,1.51584814453125,-1.161296010017395,-2.3803367614746094,-0.6178293228149414
1715093710945827300,1.525827392578125,-2.2520065307617188,-1.0911893844604492,-0.7845501899719238
1715093710955806700,1.535806640625,-1.8320106267929077,0.26909351348876953,-1.5278549194335938
1715093710965785900,1.545785888671875,-1.3315966129302979,-0.025299072265625,-0.7546019554138184
1715093710975734500,1.555734619140625,-1.7228635549545288,1.2202873229980469,1.4149222373962402
1715093710985714000,1.5657138671875,0.2964230179786682,0.14204788208007812,3.895311117172241
1715093710995693000,1.575693115234375,0.904358983039856,-1.3994932174682617,8.02505874633789
1715093711005642000,1.58564208984375,5.914331912994385,-2.324552536010742,9.717229843139648
1715093711015621000,1.59562109375,13.654314994812012,-7.995780944824219,3.120610237121582
1715093711025600300,1.605600341796875,6.434887409210205,-10.342728614807129,-1.0045742988586426
1715093711035549200,1.615549072265625,1.5144217014312744,-6.269217491149902,0.40865588188171387
1715093711045528300,1.6255283203125,1.9927997589111328,-3.6141366958618164,1.6716907024383545
1715093711055504400,1.63550439453125,0.608428955078125,-3.334636688232422,1.2680490016937256
1715093711065453300,1.645453369140625,-1.4614864587783813,-2.901766777038574,-1.6872599124908447
1715093711075432400,1.655432373046875,-3.1753225326538086,-2.725719451904297,-1.1402952671051025
1715093711085411800,1.665411865234375,-3.677814483642578,-0.6084976196289062,2.2711374759674072
1715093711095360500,1.675360595703125,-3.9128804206848145,1.1991329193115234,9.235803604125977
1715093711105339600,1.685339599609375,-2.812082529067993,4.234251976013184,21.502090454101562
1715093711115319000,1.695319091796875,-3.8789165019989014,13.555731773376465,29.53589630126953
1715093711125267700,1.705267822265625,-1.9746489524841309,5.990538597106934,23.558805465698242
1715093711135246800,1.715246826171875,5.622217178344727,-3.5146751403808594,15.121625900268555
1715093711145226200,1.725226318359375,13.46894359588623,-11.839020729064941,8.968585014343262
1715093711155175000,1.7351748046875,20.642505645751953,-15.733489990234375,-0.08677077293395996
1715093711165153500,1.745153564453125,17.298542022705078,-16.867218017578125,-10.332620620727539
1715093711175133000,1.7551328125,12.308444023132324,-16.186805725097656,-23.301315307617188
1715093711185112000,1.765112060546875,-15.963982582092285,-24.356548309326172,-42.7656364440918
1715093711195060700,1.775060791015625,0.3291584551334381,-18.242557525634766,-17.68912696838379
1715093711205040000,1.7850400390625,15.147629737854004,-1.2575912475585938,8.053600311279297
1715093711215019300,1.795019287109375,-1.6079065799713135,-0.9939985275268555,0.9660747051239014
1715093711224998700,1.80499853515625,-3.655250072479248,0.2674121856689453,-4.249139785766602
1715093711234977800,1.814977783203125,-2.4279673099517822,1.661646842956543,-2.290907621383667
1715093711244926500,1.824926513671875,-4.150213718414307,2.7274627685546875,-2.7039668560028076
1715093711254905900,1.83490576171875,-2.6311330795288086,4.736115455627441,-3.791628122329712
1715093711264885000,1.844885009765625,-3.2185895442962646,3.8953161239624023,-4.031268119812012
1715093711274833700,1.854833740234375,-3.7976126670837402,4.802181243896484,-3.7400450706481934
1715093711284813000,1.86481298828125,-2.8604652881622314,4.017767906188965,0.07399249076843262
1715093711294792200,1.874792236328125,1.6443421840667725,3.8675708770751953,10.735647201538086
1715093711304741000,1.8847412109375,2.7298622131347656,1.391042709350586,7.72984504699707
1715093711314737200,1.894737060546875,3.118906259536743,-2.4139795303344727,2.659019947052002
1715093711324716500,1.904716552734375,3.8465309143066406,-5.23600959777832,-0.13986659049987793
1715093711334665200,1.914665283203125,2.9705276489257812,-5.2467803955078125,1.4981844425201416
1715093711344644400,1.924644287109375,1.5623103380203247,-2.8534669876098633,2.659437656402588
1715093711354623700,1.934623779296875,-0.9048293828964233,-3.0146684646606445,1.4443256855010986
1715093711364572400,1.944572509765625,-2.075068473815918,-2.826345443725586,-1.2713825702667236
1715093711374551600,1.954551513671875,-1.9554213285446167,-2.444157600402832,0.39356017112731934
1715093711384531000,1.964531005859375,-1.524736762046814,-1.7917652130126953,2.2010364532470703
1715093711394479600,1.974479736328125,-1.4877517223358154,-0.695408821105957,-0.11318063735961914
1715093711404458800,1.984458740234375,-0.747576892375946,0.5074567794799805,-0.6758413314819336
1715093711414438100,1.994438232421875,-1.656796932220459,2.449892044067383,0.653419017791748
1715093711424386800,2.00438671875,2.4176347255706787,1.9586706161499023,2.618447780609131
1715093711434366000,2.014365966796875,3.679446220397949,1.2914810180664062,0.8861473798751831
1715093711444345300,2.024345458984375,1.2877898216247559,2.1437063217163086,-0.3536200523376465
1715093711454294000,2.0342939453125,-1.1003031730651855,2.064162254333496,-0.6452252864837646
1715093711464273400,2.0442734375,-1.637204647064209,0.8090753555297852,-1.225934386253357
1715093711474252500,2.05425244140625,-1.5907056331634521,0.2995729446411133,-0.19124114513397217
1715093711484231700,2.064231689453125,-1.4531546831130981,0.7572841644287109,0.6172348260879517
1715093711494211000,2.074211181640625,-1.4244033098220825,1.191598892211914,0.173484206199646
1715093711504159700,2.08415966796875,-1.069685697555542,1.1234407424926758,0.08187294006347656
1715093711514139100,2.09413916015625,-0.5044338703155518,0.7534866333007812,-0.09153246879577637
1715093711524118300,2.1041181640625,-0.39102524518966675,0.65594482421875,-0.00891733169555664
1715093711534097400,2.114097412109375,-0.09165072441101074,0.8516693115234375,0.4158138036727905
1715093711544046300,2.12404638671875,-1.0954532623291016,-0.3420286178588867,0.554707407951355
1715093711554025500,2.134025390625,0.7200342416763306,2.772064208984375,-0.7438589334487915
1715093711564004900,2.1440048828125,0.28769898414611816,2.152327537536621,-1.5174036026000977
1715093711573953500,2.15395361328125,-0.29034727811813354,3.0408716201782227,-1.2994344234466553
1715093711583932700,2.1639326171875,-1.475160837173462,5.209582328796387,1.171065092086792
1715093711593912000,2.173912109375,-0.49220478534698486,3.703303337097168,0.4813227653503418
1715093711603860700,2.18386083984375,-0.9061731100082397,2.661092758178711,-0.38587963581085205
1715093711613840000,2.19383984375,-0.6644035577774048,0.40717315673828125,-0.2298433780670166
1715093711623819300,2.2038193359375,1.0277502536773682,-1.9528846740722656,-0.932815432548523
1715093711633768000,2.213767822265625,1.2903811931610107,-1.1706218719482422,-1.0458035469055176
1715093711643747000,2.2237470703125,0.13611924648284912,0.042713165283203125,-0.3243234157562256
1715093711653726500,2.2337265625,-0.7119474411010742,1.005889892578125,-0.13826465606689453
1715093711663675100,2.243675048828125,-0.8384058475494385,1.463496208190918,-0.5702277421951294
1715093711673654500,2.253654541015625,-0.6155920028686523,0.8839197158813477,-1.1054235696792603
1715093711683633700,2.263633544921875,-0.6656824350357056,-1.0492448806762695,-1.3423900604248047
1715093711693582300,2.273582275390625,-0.9183632135391235,-3.312130928039551,-1.3389004468917847
1715093711703561700,2.283561767578125,-0.7242112159729004,-3.736471176147461,-0.5857808589935303
1715093711713539000,2.2935390625,-0.1560637354850769,-2.2702808380126953,0.8779106140136719
1715093711723487700,2.30348779296875,0.3574467897415161,1.0168724060058594,0.20098578929901123
1715093711733467000,2.313466796875,0.44332951307296753,3.988375663757324,-1.3716871738433838
1715093711743446300,2.3234462890625,0.04009974002838135,5.698977470397949,-2.3452486991882324
1715093711753425400,2.33342529296875,-0.9334802627563477,6.534452438354492,-2.7428011894226074
1715093711763374000,2.3433740234375,-1.142981767654419,7.650689125061035,-3.4266715049743652
1715093711773353500,2.353353515625,-1.4857604503631592,7.495180130004883,-5.003462314605713
1715093711783332600,2.36333251953125,-1.3379805088043213,8.322443008422852,-5.8644280433654785
1715093711793312000,2.37331201171875,-1.2215235233306885,6.092711448669434,-5.428822040557861
1715093711803291100,2.383291015625,-0.6981173753738403,2.6709671020507812,-0.5305261611938477
1715093711813239800,2.39323974609375,-2.3750126361846924,-14.851226806640625,14.591609001159668
1715093711823219200,2.40321923828125,-11.04095458984375,-29.383962631225586,1.9621796607971191
1715093711833198300,2.4131982421875,-2.845682382583618,-15.913969039916992,3.4771995544433594
1715093711843147000,2.42314697265625,2.151838541030884,1.9397821426391602,4.478701114654541
1715093711853126400,2.43312646484375,3.8768539428710938,-0.041785240173339844,4.30477237701416
1715093711863105500,2.44310546875,2.2191073894500732,-1.2228240966796875,7.179352760314941
1715093711873054500,2.453054443359375,2.037384033203125,0.6123180389404297,6.300469875335693
1715093711883033600,2.46303369140625,4.673129081726074,1.3294239044189453,3.780912399291992
1715093711893012700,2.4730126953125,3.628603935241699,-5.467763900756836,-0.6697962880134583
1715093711902961700,2.482961669921875,2.9789626598358154,-5.004289627075195,2.8706374168395996
1715093711912940800,2.49294091796875,0.869687557220459,-4.630526542663574,2.9201440811157227
1715093711922920000,2.502919921875,-1.003955602645874,-3.669541358947754,1.8703207969665527
1715093711932868900,2.512868896484375,-5.067355155944824,-0.3776512145996094,2.238731861114502
1715093711942848000,2.522847900390625,-3.048884391784668,0.8055381774902344,-3.9229092597961426
1715093711952827400,2.532827392578125,-0.044738173484802246,4.145262718200684,-4.9862446784973145
1715093711962776000,2.542776123046875,0.4221363067626953,5.9117279052734375,-1.7640528678894043
1715093711972755200,2.552755126953125,0.5153539180755615,4.283550262451172,0.38127273321151733
1715093711982734600,2.562734619140625,0.23376667499542236,4.816740989685059,1.016082525253296
1715093711992683300,2.572683349609375,0.5483763813972473,3.7806406021118164,1.879806637763977
1715093712002662400,2.582662353515625,0.6306151747703552,3.6328001022338867,2.7663848400115967
1715093712012641800,2.592641845703125,0.2942392826080322,2.269989013671875,1.885547161102295
1715093712022590500,2.602590576171875,-0.4626346826553345,0.9033222198486328,1.873650074005127
1715093712032569600,2.612569580078125,-1.4458914995193481,-0.3338890075683594,1.2395873069763184
1715093712042549000,2.622549072265625,-1.993180274963379,-1.540060043334961,0.12926453351974487
1715093712052528000,2.632528076171875,-2.175079822540283,-2.4122352600097656,-0.8840317726135254
1715093712062507500,2.642507568359375,-1.6902570724487305,-2.967966079711914,-1.8039387464523315
1715093712072456200,2.652456298828125,-1.1791009902954102,-2.2977981567382812,-1.7190523147583008
1715093712082435300,2.662435302734375,-0.8055317401885986,-1.4845390319824219,-1.4008231163024902
1715093712092414700,2.672414794921875,-0.31175369024276733,-0.9416255950927734,-0.8807802200317383
1715093712102393900,2.682393798828125,0.04020732641220093,-0.37506103515625,-0.21931010484695435
1715093712112342800,2.6923427734375,0.04329490661621094,0.1337146759033203,0.17812246084213257
1715093712122322000,2.702322021484375,-0.16656845808029175,0.45598411560058594,0.4424251317977905
1715093712132301000,2.712301025390625,-0.30548930168151855,0.6449184417724609,0.5759033560752869
1715093712142250000,2.72225,-0.4164813160896301,0.7942008972167969,0.4086589217185974
1715093712152229000,2.73222900390625,-0.4843131899833679,0.7418985366821289,0.27669620513916016
1715093712162208500,2.74220849609375,-0.4264985918998718,0.567683219909668,-0.11555349826812744
1715093712172157200,2.7521572265625,-0.0955127477645874,0.28692054748535156,-0.6072995066642761
1715093712182136300,2.76213623046875,0.4066789150238037,0.19406700134277344,-0.8051716685295105
1715093712192115700,2.77211572265625,0.8371965885162354,0.26520538330078125,-0.8331626057624817
1715093712202064400,2.782064453125,0.8913382291793823,0.012877464294433594,-0.8302137851715088
1715093712212043500,2.79204345703125,0.7769347429275513,-0.5743436813354492,-0.7121949195861816
1715093712222023000,2.80202294921875,0.8044692277908325,-1.1686792373657227,-0.33551090955734253
1715093712231971600,2.8119716796875,0.7342417240142822,-1.1883525848388672,0.3650355935096741
1715093712241950700,2.82195068359375,0.5344918966293335,-0.9340572357177734,0.6947419047355652
1715093712251930000,2.83193017578125,0.5342493057250977,-0.7836494445800781,0.49194806814193726
1715093712261878800,2.841878662109375,0.704607367515564,-0.8177852630615234,0.6695566177368164
1715093712271858200,2.851858154296875,0.656916618347168,-1.0359086990356445,0.9656580090522766
1715093712281837300,2.86183740234375,0.6000111103057861,-1.8215522766113281,0.8592989444732666
1715093712291786000,2.871785888671875,0.6138484477996826,-3.812798500061035,1.2594304084777832
1715093712301765400,2.881765380859375,-0.0001971721649169922,-5.643314361572266,0.8646996021270752
1715093712311744500,2.89174462890625,-0.17218172550201416,-6.242840766906738,0.3182300925254822
1715093712321693200,2.901693115234375,0.6074498891830444,-6.087424278259277,-0.42673712968826294
1715093712331672600,2.911672607421875,0.9729112386703491,-5.342432022094727,-0.936470091342926
1715093712341651700,2.921651611328125,0.6682201623916626,-4.880121231079102,-0.8725066781044006
1715093712351631000,2.931631103515625,-0.32676243782043457,-4.48587703704834,-0.15869206190109253
1715093712361610200,2.9416103515625,-0.42088091373443604,-2.468648910522461,0.25513315200805664
1715093712371559000,2.951558837890625,-0.9672240018844604,0.101287841796875,-0.271124005317688
1715093712381538300,2.961538330078125,-0.8489304780960083,3.9768991470336914,-0.6349200010299683
1715093712391517400,2.971517333984375,-0.13709545135498047,6.634164810180664,1.4080793857574463
1715093712401496800,2.981496826171875,0.4590059518814087,6.759981155395508,1.3440001010894775
1715093712411445500,2.991445556640625,0.8765242099761963,6.737557411193848,-1.1945210695266724
1715093712421424600,3.001424560546875,1.6049057245254517,7.582635879516602,-2.101318836212158
1715093712431404000,3.011404052734375,2.2493667602539062,8.038755416870117,-1.0777744054794312
1715093712441352700,3.021352783203125,1.6258248090744019,7.402886390686035,-0.28307920694351196
1715093712451331800,3.031331787109375,0.8691098690032959,4.17457389831543,0.13456499576568604
1715093712461311200,3.041311279296875,0.5274220705032349,2.7410707473754883,-0.4221290349960327
1715093712471260000,3.051260009765625,0.3453749418258667,3.2223358154296875,-0.2972613573074341
1715093712481239000,3.061239013671875,0.1587526798248291,2.9346961975097656,-0.8341518044471741
1715093712491218400,3.071218505859375,-0.08467113971710205,2.8229494094848633,-1.4089813232421875
1715093712501167000,3.0811669921875,-0.344460129737854,2.8619327545166016,-1.8281817436218262
1715093712511146500,3.091146484375,-0.4016566276550293,2.9579362869262695,-2.1263866424560547
1715093712521125600,3.101125732421875,-0.3657475709915161,2.3374404907226562,-1.5520706176757812
1715093712531074300,3.11107421875,0.015413641929626465,1.4637298583984375,-1.6864830255508423
1715093712541053700,3.1210537109375,0.6704620122909546,0.8494453430175781,-1.7538692951202393
1715093712551032800,3.13103271484375,0.8784152269363403,-1.5178184509277344,-0.8813042044639587
1715093712560981500,3.1409814453125,0.8026961088180542,-3.8844404220581055,-0.1667652130126953
1715093712570961000,3.1509609375,1.1944185495376587,-5.520135879516602,0.5820485353469849
1715093712580940000,3.16093994140625,1.0133293867111206,-4.827444076538086,-0.015610814094543457
1715093712590888700,3.170888671875,0.8108364343643188,-6.8816375732421875,1.6649398803710938
1715093712600868000,3.1808681640625,0.03481590747833252,-6.555540084838867,0.03673088550567627
1715093712610847200,3.19084716796875,0.07792174816131592,-1.7924489974975586,0.8444744348526001
1715093712620826600,3.20082666015625,0.23842036724090576,1.1051597595214844,1.0534629821777344
1715093712630775300,3.210775390625,0.5322080850601196,1.964426040649414,1.4058705568313599
1715093712640754400,3.22075439453125,0.7530397176742554,2.152153968811035,1.7324634790420532
1715093712650733800,3.23073388671875,0.8795430660247803,2.1380138397216797,2.130524158477783
1715093712660713000,3.240712890625,1.160006046295166,1.7580604553222656,2.399096965789795
1715093712670692400,3.2506923828125,1.241194725036621,1.4838933944702148,2.2849926948547363
1715093712680641000,3.26064111328125,0.5991255044937134,1.1346149444580078,2.077120065689087
1715093712690626800,3.270626708984375,1.0768096446990967,0.5515632629394531,1.8131173849105835
1715093712700606000,3.28060595703125,0.6311932802200317,0.1371440887451172,1.1968939304351807
1715093712710554600,3.2905546875,0.2419203519821167,0.17817401885986328,1.0670123100280762
1715093712720534000,3.300533935546875,0.43462038040161133,0.3886699676513672,1.1871016025543213
1715093712730513200,3.31051318359375,0.6771409511566162,0.5811958312988281,1.3373229503631592
1715093712740461800,3.3204619140625,1.1339306831359863,0.7057085037231445,1.719712734222412
1715093712750441200,3.330441162109375,1.6530070304870605,0.7914848327636719,1.8471533060073853
1715093712760420400,3.34042041015625,2.1071202754974365,0.8297052383422852,2.0222108364105225
1715093712770369000,3.350369140625,2.797664165496826,0.8529052734375,2.037767171859741
1715093712780348400,3.360348388671875,3.3572490215301514,0.8203878402709961,1.9114646911621094
1715093712790327600,3.37032763671875,3.87286639213562,0.7424650192260742,2.1845905780792236
1715093712800276500,3.3802763671875,4.137505531311035,0.6722278594970703,2.371499538421631
1715093712810255600,3.390255615234375,4.22027587890625,0.6230926513671875,3.1529130935668945
1715093712820234800,3.40023486328125,4.145023822784424,0.6909379959106445,3.421767234802246
1715093712830183700,3.41018359375,3.87341570854187,0.8267288208007812,3.6184043884277344
1715093712840162800,3.420162841796875,3.3342373371124268,0.6305952072143555,3.4057326316833496
1715093712850142200,3.43014208984375,2.7812881469726562,0.4108133316040039,2.833839178085327
1715093712860091000,3.4400908203125,2.874959707260132,0.24346542358398438,2.689056634902954
1715093712870070000,3.450070068359375,3.1057138442993164,-0.11786079406738281,1.4371806383132935
1715093712880049400,3.46004931640625,3.881762742996216,-1.0323047637939453,0.6292909383773804
1715093712889998000,3.469998046875,4.576687812805176,-2.2743797302246094,0.05275142192840576
1715093712899977200,3.479977294921875,5.628913402557373,-3.55049991607666,-0.05646112561225891
1715093712909956600,3.48995654296875,5.941889762878418,-4.214489936828613,0.5925142765045166
1715093712919935700,3.499935791015625,6.0040388107299805,-3.897249221801758,1.674367904663086
1715093712929915100,3.5099150390625,5.655089378356934,-2.800238609313965,2.648879051208496
1715093712939863800,3.51986376953125,5.017064571380615,-1.6113471984863281,3.593181610107422
1715093712949843000,3.529843017578125,3.2900359630584717,-0.7969779968261719,4.210392951965332
1715093712959822300,3.539822265625,1.2745516300201416,-0.08870697021484375,4.362423419952393
1715093712969801500,3.549801513671875,-0.9282650947570801,1.0825920104980469,4.085615158081055
1715093712979750100,3.559750244140625,-2.362761974334717,2.210869789123535,2.9171950817108154
1715093712989729500,3.5697294921875,-1.9789667129516602,2.517947196960449,0.9367156624794006
1715093712999708700,3.579708740234375,-1.1104950904846191,2.4321441650390625,-1.0835602283477783
1715093713009657600,3.58965771484375,-1.0943620204925537,2.0127811431884766,-2.5060338973999023
1715093713019636700,3.59963671875,-1.606377363204956,0.9080142974853516,-3.4239723682403564
1715093713029615900,3.609615966796875,-2.2562432289123535,-0.6184377670288086,-4.775838375091553
1715093713039564800,3.619564697265625,-2.7624003887176514,-2.034048080444336,-6.1548004150390625
1715093713049544000,3.6295439453125,-2.770813465118408,-3.0396575927734375,-6.748584270477295
1715093713059523000,3.639523193359375,-2.6226439476013184,-4.523290634155273,-6.921632766723633
1715093713069472000,3.649471923828125,-2.555849075317383,-6.658553123474121,-6.657337188720703
1715093713079451100,3.659451171875,-2.6147255897521973,-7.93486213684082,-4.564716339111328
1715093713089430500,3.669430419921875,-2.6866469383239746,-8.235954284667969,-1.8954951763153076
1715093713099379200,3.679379150390625,-4.235045433044434,-7.42227840423584,0.9055608510971069
1715093713109358300,3.6893583984375,-6.761007785797119,-3.8388519287109375,4.045567512512207
1715093713119337700,3.699337646484375,-6.671825885772705,0.3817472457885742,7.928160667419434
1715093713129286400,3.709286376953125,-7.012218475341797,0.7934398651123047,5.274186611175537
1715093713139265500,3.719265625,-7.40712833404541,0.02106761932373047,4.453524589538574
1715093713149245000,3.729244873046875,-7.064699172973633,-0.05121898651123047,4.362003803253174
1715093713159193600,3.739193603515625,-4.877233028411865,0.4540061950683594,3.7265801429748535
1715093713169172700,3.7491728515625,-2.4653480052948,0.9930295944213867,3.094688892364502
1715093713179152100,3.759152099609375,-0.7496882677078247,1.2871627807617188,2.2064929008483887
1715093713189131300,3.76913134765625,-0.47938472032546997,1.1391115188598633,1.0840370655059814
1715093713199080200,3.779080078125,-1.3274729251861572,1.1249504089355469,0.8979810476303101
1715093713209059300,3.789059326171875,-1.5878093242645264,1.3480224609375,0.9183154106140137
1715093713219038500,3.79903857421875,-1.2444881200790405,1.5522985458374023,0.4162079095840454
1715093713229017900,3.809017822265625,-0.21862196922302246,1.5343618392944336,-0.325752854347229
1715093713238997000,3.8189970703125,0.7946364283561707,1.7475471496582031,-1.1292017698287964
1715093713248946000,3.82894580078125,1.1961060762405396,1.845123291015625,-2.162174940109253
1715093713258925000,3.838925048828125,0.5490769147872925,1.7443618774414062,-2.6941027641296387
1715093713268904200,3.848904296875,-0.059497714042663574,1.4785404205322266,-3.3148066997528076
1715093713278853000,3.85885302734375,-0.6737122535705566,2.092510223388672,-3.111140251159668
1715093713288832300,3.868832275390625,-0.8977103233337402,2.330167770385742,-2.783665657043457
1715093713298811600,3.878811767578125,-1.0847119092941284,2.592902183532715,-2.1124980449676514
1715093713308760300,3.88876025390625,-0.3094578981399536,3.3027448654174805,-1.659677505493164
1715093713318739500,3.898739501953125,0.11893784999847412,3.0858402252197266,-1.775615930557251
1715093713328718800,3.90871875,0.4335780143737793,2.6371498107910156,-1.8095612525939941
1715093713338667500,3.91866748046875,0.7008723020553589,2.358156204223633,-1.7680916786193848
1715093713348646700,3.928646728515625,0.9458010196685791,2.300471305847168,-1.8354344367980957
1715093713358626000,3.9386259765625,1.026871919631958,2.2798776626586914,-1.9354526996612549
1715093713368574700,3.94857470703125,0.9687114953994751,2.310603141784668,-1.870286226272583
1715093713378553900,3.958553955078125,0.9846030473709106,2.3830184936523438,-1.660736083984375
1715093713388533200,3.968533203125,1.1102592945098877,2.4712934494018555,-1.2779457569122314
1715093713398482000,3.97848193359375,1.0611034631729126,2.334625244140625,-0.5943410396575928
1715093713408461300,3.98846142578125,1.0957560539245605,2.2387008666992188,0.4420502185821533
1715093713418440400,3.9984404296875,1.4930474758148193,1.9674015045166016,1.9968492984771729
1715093713428389000,4.00838916015625,1.7133264541625977,1.6955556869506836,4.238520622253418
1715093713438368500,4.018368408203125,1.3272204399108887,1.6323509216308594,6.756128311157227
1715093713448347600,4.02834765625,0.3606632947921753,0.9057903289794922,8.252723693847656
1715093713458296300,4.03829638671875,-0.1863924264907837,-0.4622821807861328,9.029891967773438
1715093713468275700,4.048275634765625,-2.0618810653686523,-2.309390068054199,7.862954139709473
1715093713478254800,4.0582548828125,-3.5806055068969727,-4.216396331787109,5.027868270874023
1715093713488234200,4.068234130859375,-2.096961498260498,-5.079433441162109,1.6625640392303467
1715093713498213400,4.07821337890625,0.2799433469772339,-6.0696563720703125,-1.39451003074646
1715093713508162000,4.088162109375,3.4812653064727783,-7.543051719665527,-3.1810214519500732
1715093713518141400,4.098141357421875,8.233284950256348,-7.01694393157959,-3.3317525386810303
1715093713528120600,4.10812060546875,8.273076057434082,-3.219205856323242,-0.5367856025695801
1715093713538100000,4.118099853515625,3.6605422496795654,-0.5169057846069336,3.0056264400482178
1715093713548048600,4.128048583984375,0.4956010580062866,0.22847652435302734,5.592016220092773
1715093713558027800,4.13802783203125,0.4844057559967041,-0.32041168212890625,6.321545600891113
1715093713568007200,4.148007080078125,-1.2808352708816528,-3.030453681945801,4.254638671875
1715093713577955800,4.157955810546875,-5.642536163330078,-6.941619873046875,0.7176632881164551
1715093713587935000,4.16793505859375,-7.333973407745361,-10.737133979797363,-3.1966185569763184
1715093713597914400,4.177914306640625,-4.149805545806885,-13.548446655273438,-7.059859752655029
1715093713607863000,4.187863037109375,-2.2661406993865967,-10.63494873046875,-7.992091178894043
1715093713617842200,4.19784228515625,-3.689098834991455,-1.1998701095581055,-6.6349310874938965
1715093713627821600,4.207821533203125,-2.3198087215423584,2.582516670227051,-4.341634750366211
1715093713637800700,4.21780078125,-0.2107071578502655,3.598048210144043,-2.5517382621765137
1715093713647749600,4.22774951171875,0.3001788258552551,4.094663619995117,-1.8386881351470947
1715093713657728800,4.237728759765625,0.2179873287677765,4.791552543640137,-1.1670033931732178
1715093713667708000,4.2477080078125,-0.4179012179374695,4.996181488037109,-2.376772165298462
1715093713677656800,4.25765673828125,-0.442205548286438,5.133303642272949,-3.786303758621216
1715093713687636000,4.267635986328125,0.12775135040283203,3.6940479278564453,-3.095721483230591
1715093713697615400,4.277615478515625,0.8508631587028503,1.0973176956176758,-3.29756760597229
1715093713707564000,4.28756396484375,1.0174200534820557,-1.16094970703125,-4.461010932922363
1715093713717543200,4.297543212890625,0.3120526075363159,-2.465121269226074,-5.444685935974121
1715093713727522600,4.3075224609375,-1.3462576866149902,-2.9919281005859375,-5.795134544372559
1715093713737471200,4.31747119140625,-2.984868049621582,-3.019285202026367,-6.532931804656982
1715093713747450400,4.327450439453125,-2.462979555130005,-2.353219985961914,-6.7914018630981445
1715093713757429800,4.3374296875,-0.6138511896133423,-0.5932865142822266,-5.260272026062012
1715093713767409000,4.347408935546875,0.7590836882591248,1.5363245010375977,-3.8874659538269043
1715093713777388300,4.35738818359375,2.1060149669647217,3.323606491088867,-3.5122621059417725
1715093713787337000,4.3673369140625,2.9570136070251465,4.554417610168457,-4.059425354003906
1715093713797316000,4.377316162109375,2.8842787742614746,4.698982238769531,-2.8194589614868164
1715093713807295500,4.38729541015625,2.0047125816345215,3.650747299194336,-2.9913265705108643
1715093713817274600,4.397274658203125,0.9019410014152527,2.5471677780151367,-1.6394212245941162
1715093713827223300,4.407223388671875,0.3432762026786804,1.1894025802612305,0.29638588428497314
1715093713837202700,4.41720263671875,-0.4044349789619446,0.07528972625732422,2.000293254852295
1715093713847181800,4.427181884765625,-0.5416590571403503,-0.7222795486450195,2.390414237976074
1715093713857130500,4.437130615234375,-0.437066912651062,-0.979029655456543,2.8804092407226562
1715093713867110000,4.44710986328125,-0.287858784198761,-0.6839923858642578,2.5774781703948975
1715093713877089000,4.457089111328125,0.2025822401046753,0.40632152557373047,2.8093690872192383
1715093713887038000,4.467037841796875,0.6850063800811768,1.2394094467163086,2.8085246086120605
1715093713897017000,4.47701708984375,0.5985420942306519,2.021468162536621,2.844778537750244
1715093713906996200,4.486996337890625,0.4630765914916992,2.377796173095703,2.848738193511963
1715093713916945200,4.496945068359375,0.22949904203414917,2.2910594940185547,2.6471784114837646
1715093713926924300,4.50692431640625,-0.141951322555542,1.9605484008789062,2.5478901863098145
1715093713936903700,4.516903564453125,-0.7347533702850342,1.5890083312988281,3.0818276405334473
1715093713946852400,4.526852294921875,-1.3799443244934082,1.2826480865478516,3.2834725379943848
1715093713956831500,4.53683154296875,-1.8387185335159302,0.8322248458862305,3.2610034942626953
1715093713966811000,4.546810791015625,-2.1908118724823,0.4537019729614258,3.301600456237793
1715093713976759600,4.556759521484375,-2.021883010864258,-0.005396842956542969,3.0819454193115234
1715093713986738700,4.56673876953125,-1.3255338668823242,-0.46501636505126953,3.1722779273986816
1715093713996718000,4.576718017578125,-0.3500255346298218,-0.48792457580566406,2.6296191215515137
1715093714006666800,4.586666748046875,0.9414374828338623,-0.32952213287353516,1.6115491390228271
1715093714016646000,4.59664599609375,2.7917535305023193,0.3773078918457031,0.5872095823287964
1715093714026625300,4.606625244140625,5.896000385284424,1.411489486694336,0.29655539989471436
1715093714036574000,4.616573974609375,8.63843822479248,2.59414005279541,0.38439834117889404
1715093714046553300,4.62655322265625,9.592084884643555,3.3535423278808594,0.5645859241485596
1715093714056532500,4.636532470703125,8.419172286987305,3.5503625869750977,0.9306855201721191
1715093714066511600,4.64651171875,5.239664554595947,2.6613569259643555,1.211747407913208
1715093714076491000,4.656490966796875,2.5866639614105225,0.5382204055786133,1.1007912158966064
1715093714086439700,4.666439697265625,2.419321060180664,-2.045877456665039,1.134684681892395
1715093714096419000,4.676419189453125,3.024739980697632,-4.746486663818359,1.7877699136734009
1715093714106398200,4.686398193359375,4.475609302520752,-6.823508262634277,2.279895305633545
1715093714116377300,4.69637744140625,4.126333236694336,-7.771023750305176,2.1455235481262207
1715093714126326300,4.706326171875,2.429394483566284,-6.939496040344238,2.6121225357055664
1715093714136305400,4.716305419921875,0.7229957580566406,-4.728277206420898,3.615398406982422
1715093714146284800,4.726284912109375,0.3199511766433716,-1.8625659942626953,4.275983810424805
1715093714156233500,4.7362333984375,-0.051056623458862305,0.25951385498046875,4.493647575378418
1715093714166212600,4.746212646484375,-0.4262017011642456,1.614689826965332,3.9884839057922363
1715093714176192000,4.75619189453125,-0.6708287000656128,2.1866531372070312,2.6671619415283203
1715093714186140700,4.766140625,-0.6073243618011475,2.371074676513672,0.8370496034622192
1715093714196119800,4.776119873046875,-0.8092595338821411,2.342898368835449,-1.0476210117340088
1715093714206099200,4.78609912109375,-1.1042735576629639,2.1451759338378906,-3.9660086631774902
1715093714216047900,4.7960478515625,-1.889857530593872,1.560307502746582,-7.160841941833496
1715093714226027000,4.806027099609375,-2.5450680255889893,0.20475006103515625,-8.686318397521973
1715093714236006400,4.81600634765625,-3.450357437133789,-2.171030044555664,-9.145828247070312
1715093714245955000,4.825955078125,-4.09632682800293,-4.926668167114258,-9.328031539916992
1715093714255934200,4.835934326171875,-4.163961410522461,-7.57059383392334,-8.90135383605957
1715093714265913600,4.84591357421875,-4.024853706359863,-9.659642219543457,-6.969442367553711
1715093714275862300,4.8558623046875,-4.333439350128174,-9.479825019836426,-3.1273670196533203
1715093714285841700,4.865841552734375,-5.440700531005859,-6.677623748779297,1.6946402788162231
1715093714295820800,4.87582080078125,-6.608875274658203,-2.4122304916381836,4.619602203369141
1715093714305769500,4.88576953125,-7.072861671447754,-1.7926502227783203,5.12473201751709
1715093714315748900,4.895748779296875,-6.650336265563965,-0.006165504455566406,7.491955757141113
1715093714325728000,4.90572802734375,-5.382662773132324,2.185213088989258,7.584224700927734
1715093714335707400,4.915707275390625,-3.720655918121338,2.5584402084350586,6.628207206726074
1715093714345656000,4.925656005859375,-2.668081283569336,2.1144351959228516,4.284307479858398
1715093714355635200,4.93563525390625,-2.376119613647461,1.5162591934204102,2.735309600830078
1715093714365614600,4.945614501953125,-1.6483237743377686,1.2237014770507812,1.5148870944976807
1715093714375593700,4.95559375,-0.7604655027389526,0.6941690444946289,0.16929078102111816
1715093714385573000,4.965572998046875,-0.06853079795837402,0.5582771301269531,-0.7059204578399658
1715093714395521800,4.975521728515625,0.1467902660369873,0.8210353851318359,-1.3896453380584717
1715093714405501000,4.9855009765625,0.37354254722595215,1.6435365676879883,-1.5925776958465576
1715093714415480300,4.995480224609375,0.39528143405914307,2.428670883178711,-1.8204057216644287
1715093714425429000,5.005428955078125,0.23576271533966064,3.057832717895508,-2.393115758895874
1715093714435408100,5.015408203125,-0.33928799629211426,3.393364906311035,-2.759164333343506
1715093714445387500,5.025387451171875,-0.8152413368225098,3.3820858001708984,-3.2228119373321533
1715093714455336200,5.035336181640625,-1.0205062627792358,3.2584590911865234,-3.6868088245391846
1715093714465315300,5.0453154296875,-0.901520848274231,3.2678632736206055,-4.130274772644043
1715093714475294700,5.055294677734375,-0.5360467433929443,3.3919639587402344,-4.4462738037109375
1715093714485243400,5.065243408203125,-0.08029508590698242,3.556730270385742,-4.555469989776611
1715093714495222800,5.075222900390625,0.4821673631668091,3.7234745025634766,-4.613132476806641
1715093714505202000,5.085201904296875,1.2750787734985352,3.723878860473633,-4.412006855010986
1715093714515150600,5.095150634765625,1.8425037860870361,3.54473876953125,-3.9408488273620605
1715093714525130000,5.1051298828125,1.9344192743301392,3.043644905090332,-3.0194594860076904
1715093714535109000,5.115109130859375,1.8145630359649658,2.482105255126953,-1.7757611274719238
1715093714545057800,5.125057861328125,1.5161188840866089,1.834650993347168,-0.15909767150878906
1715093714555037200,5.135037109375,1.23747980594635,1.8175382614135742,1.9786772727966309
1715093714565016300,5.145016357421875,0.76470947265625,1.5311603546142578,3.885042190551758
1715093714574965000,5.154965087890625,-0.026270031929016113,0.1359853744506836,4.903716087341309
1715093714584944400,5.1649443359375,-0.6552466154098511,-1.356602668762207,6.373236656188965
1715093714594923500,5.174923583984375,-1.659459114074707,-3.3364782333374023,6.632251739501953
1715093714604872200,5.1848720703125,-2.7742245197296143,-5.4523773193359375,5.128424167633057
1715093714614851600,5.1948515625,-3.2484030723571777,-6.923196792602539,3.057673215866089
1715093714624830700,5.204830810546875,-4.261676788330078,-8.322800636291504,-0.32393741607666016
1715093714634810000,5.21481005859375,-2.910428047180176,-9.374926567077637,-2.2123138904571533
1715093714644789200,5.224789306640625,4.206049919128418,-8.379396438598633,-2.515629529953003
1715093714654738000,5.234738037109375,6.876295566558838,-3.777604103088379,-1.2535526752471924
1715093714664717300,5.24471728515625,6.609554767608643,0.28257274627685547,-0.21732163429260254
1715093714674696400,5.254696533203125,3.5195868015289307,-0.6549158096313477,0.5511853694915771
1715093714684675800,5.26467578125,0.22907721996307373,-3.6814537048339844,4.260610580444336
1715093714694624500,5.27462451171875,0.7917889356613159,-3.9301576614379883,3.5251073837280273
1715093714704603600,5.284603759765625,-3.9784340858459473,-3.6921072006225586,1.349874496459961
1715093714714583000,5.2945830078125,-7.764573097229004,-6.662383079528809,-0.05058884620666504
1715093714724531700,5.30453173828125,-7.471406936645508,-8.977675437927246,-0.3820016384124756
1715093714734511000,5.314510986328125,-6.291329383850098,-6.210389137268066,-2.6786842346191406
1715093714744490200,5.324490234375,-3.3741517066955566,-1.8786287307739258,-2.8249149322509766
1715093714754439000,5.33443896484375,-1.0390655994415283,0.35622596740722656,-1.3189830780029297
1715093714764418300,5.344418212890625,0.39435839653015137,2.2816162109375,0.3206672668457031
1715093714774397400,5.3543974609375,0.49193572998046875,4.27590274810791,0.3500337600708008
1715093714784346000,5.36434619140625,0.2838549315929413,5.825691223144531,-1.6243114471435547
1715093714794325500,5.374325439453125,0.518000066280365,6.407234191894531,-3.5111093521118164
1715093714804304600,5.3843046875,0.8233246803283691,5.506943702697754,-3.7112646102905273
1715093714814253300,5.39425341796875,0.8929381370544434,2.60237979888916,-3.417074203491211
1715093714824232700,5.404232666015625,0.6728276610374451,-0.3099327087402344,-3.694586992263794
1715093714834211800,5.4142119140625,0.016477346420288086,-2.0290451049804688,-3.3274807929992676
1715093714844160800,5.424160888671875,-1.2102420330047607,-3.6596546173095703,-3.2280449867248535
1715093714854140000,5.434139892578125,-2.1764118671417236,-3.9329166412353516,-3.8058249950408936
1715093714864119000,5.444119140625,-1.8849173784255981,-2.5666189193725586,-4.588311195373535
1715093714874068000,5.45406787109375,-0.35144299268722534,-0.015357017517089844,-3.777250289916992
1715093714884047000,5.464047119140625,1.1419209241867065,2.3773231506347656,-3.7721071243286133
1715093714894026500,5.474026611328125,2.2177019119262695,4.33907413482666,-4.362188339233398
1715093714904005600,5.484005615234375,3.042753219604492,5.660154342651367,-4.900058746337891
1715093714913954300,5.493954345703125,3.4964210987091064,5.890589714050293,-4.651247024536133
1715093714923933700,5.50393359375,2.8734474182128906,5.335783958435059,-3.494757652282715
1715093714933912800,5.513912841796875,1.903373122215271,4.667729377746582,-2.058931350708008
1715093714943892000,5.52389208984375,0.600247859954834,3.4496641159057617,-0.08566367626190186
1715093714953841000,5.5338408203125,0.05539262294769287,1.6245718002319336,1.2411916255950928
1715093714963820000,5.543820068359375,0.3962205648422241,-0.05070972442626953,2.788846254348755
1715093714973799400,5.55379931640625,0.5717802047729492,-1.1165895462036133,3.9092371463775635
1715093714983778600,5.563778564453125,0.20469260215759277,-1.0672130584716797,5.083069324493408
1715093714993727200,5.573727294921875,-0.0025803446769714355,-0.5774021148681641,5.0854902267456055
1715093715003706600,5.58370654296875,-0.09625244140625,0.17739009857177734,4.653931617736816
1715093715013685800,5.593685791015625,-0.23992979526519775,0.802424430847168,3.941843032836914
1715093715023634400,5.603634521484375,-0.4829869270324707,1.0172080993652344,3.391444683074951
1715093715033613800,5.61361376953125,-1.0142430067062378,1.0258283615112305,2.918123245239258
1715093715043593000,5.623593017578125,-1.474771499633789,0.7942104339599609,2.642307758331299
1715093715053541600,5.633541748046875,-1.8048110008239746,0.3541135787963867,2.545408248901367
1715093715063521000,5.64352099609375,-1.4123276472091675,-0.2806825637817383,2.9191761016845703
1715093715073500200,5.653500244140625,0.12844038009643555,-0.2632732391357422,3.1342811584472656
1715093715083449000,5.663448974609375,2.9727706909179688,0.18463611602783203,3.0946927070617676
1715093715093428200,5.67342822265625,5.486440181732178,1.2656278610229492,3.0177628993988037
1715093715103407400,5.683407470703125,7.265191078186035,2.638853073120117,2.644230604171753
1715093715113356300,5.693356201171875,8.271087646484375,3.70455265045166,2.591707468032837
1715093715123335400,5.70333544921875,8.195125579833984,4.224515914916992,1.881685495376587
1715093715133314800,5.713314697265625,6.824141979217529,3.7666025161743164,0.5678106546401978
1715093715143263500,5.723263427734375,4.75593900680542,1.931985855102539,0.2430737018585205
1715093715153242600,5.73324267578125,2.732522487640381,-0.8732814788818359,1.0305265188217163
1715093715163222000,5.743221923828125,0.2302253246307373,-3.708749771118164,2.1962335109710693
1715093715173170700,5.753170654296875,-0.471907377243042,-6.0028886795043945,2.7725019454956055
1715093715183149800,5.76314990234375,0.41106557846069336,-7.3077592849731445,2.306805372238159
1715093715193129200,5.773129150390625,2.5573031902313232,-6.619915008544922,2.4114723205566406
1715093715203108400,5.7831083984375,2.996715545654297,-3.674724578857422,4.549041748046875
1715093715213087700,5.793087646484375,2.0945467948913574,-0.10937023162841797,5.387734413146973
1715093715223036400,5.803036376953125,1.4547704458236694,2.852354049682617,5.090425491333008
1715093715233015600,5.813015625,1.4440054893493652,5.163631439208984,4.399690628051758
1715093715242995000,5.822994873046875,0.943718433380127,6.159853935241699,2.162275791168213
1715093715252974000,5.83297412109375,0.7586556673049927,6.074366569519043,0.43288445472717285
1715093715262922800,5.8429228515625,0.7653266191482544,4.78959846496582,-2.282803535461426
1715093715272902100,5.852902099609375,0.8338684439659119,2.9370899200439453,-5.222242832183838
1715093715282881300,5.86288134765625,0.25219863653182983,0.6231241226196289,-7.209334373474121
1715093715292830200,5.872830322265625,-0.6883392333984375,-2.273782730102539,-8.57787799835205
1715093715302809300,5.882809326171875,-1.9831472635269165,-6.043346405029297,-9.718790054321289
1715093715312788500,5.89278857421875,-2.884542465209961,-10.462332725524902,-10.79665470123291
1715093715322737400,5.9027373046875,-4.315392971038818,-14.676755905151367,-10.4379243850708
1715093715332716500,5.912716552734375,-6.699770450592041,-16.58245849609375,-6.620571136474609
1715093715342695700,5.92269580078125,-8.588360786437988,-14.517358779907227,-0.6284023523330688
1715093715352644600,5.93264453125,-11.453916549682617,-10.121503829956055,4.080918312072754
1715093715362623700,5.942623779296875,-12.217399597167969,-4.350872039794922,8.32798957824707
1715093715372603100,5.95260302734375,-11.176956176757812,1.2001276016235352,12.818493843078613
1715093715382551800,5.9625517578125,-7.406640529632568,3.4995012283325195,12.347126007080078
1715093715392531000,5.972531005859375,-3.3094067573547363,4.976484298706055,11.816378593444824
1715093715402510300,5.98251025390625,-0.9317319393157959,5.294919967651367,9.114568710327148
1715093715412459000,5.992458984375,-1.1706925630569458,4.304203033447266,5.237180709838867
1715093715422438100,6.002438232421875,-1.2399780750274658,2.52925968170166,2.208120822906494
1715093715432417500,6.01241748046875,-0.3520979881286621,1.1502561569213867,-0.3426632881164551
1715093715442366200,6.0223662109375,1.1701045036315918,0.5191431045532227,-2.1566336154937744
1715093715452345300,6.032345458984375,2.573239326477051,0.015069961547851562,-3.7155046463012695
1715093715462324700,6.04232470703125,2.603808641433716,-0.17835617065429688,-4.586941719055176
1715093715472273400,6.0522734375,1.7270115613937378,0.7760133743286133,-4.9476318359375
1715093715482252800,6.062252685546875,0.7438317537307739,2.318465232849121,-4.769597053527832
1715093715492232000,6.07223193359375,-0.0439150333404541,3.483388900756836,-4.553044319152832
1715093715502211000,6.082211181640625,-0.8235524892807007,3.817610740661621,-4.3011064529418945
1715093715512190500,6.0921904296875,-1.1305640935897827,3.6500673294067383,-4.11688232421875
1715093715522139100,6.10213916015625,-1.470557451248169,3.330402374267578,-4.252572536468506
1715093715532118500,6.112118408203125,-1.6311789751052856,3.0004615783691406,-4.454416275024414
1715093715542097700,6.12209765625,-1.2711237668991089,3.0478744506835938,-4.369377613067627
1715093715552076800,6.132076904296875,-0.414037823677063,3.4371566772460938,-4.316812992095947
1715093715562025700,6.142025634765625,0.4922621250152588,3.2592926025390625,-4.174798011779785
1715093715572004900,6.1520048828125,1.3008395433425903,2.661313056945801,-3.0292892456054688
1715093715581984300,6.161984375,1.8463212251663208,2.224933624267578,-1.964017629623413
1715093715591933000,6.171932861328125,2.1271796226501465,1.4275331497192383,-0.6119787693023682
1715093715601912000,6.181912109375,2.336041212081909,1.4901552200317383,1.8182554244995117
1715093715611891500,6.191891357421875,2.3959670066833496,2.5664968490600586,4.902717590332031
1715093715621840100,6.201840087890625,1.8516104221343994,2.565092086791992,6.700278282165527
1715093715631819300,6.2118193359375,0.7712901830673218,0.9631252288818359,7.498054027557373
1715093715641798700,6.221798583984375,-0.34671550989151,-0.9256715774536133,8.35747241973877
1715093715651747300,6.231747314453125,-1.1247692108154297,-3.0267467498779297,7.012662887573242
1715093715661726500,6.2417265625,-1.0472811460494995,-4.2801618576049805,3.482640504837036
1715093715671705900,6.251705810546875,-1.027323603630066,-6.323512077331543,-0.37720394134521484
1715093715681654500,6.261654541015625,0.9110809564590454,-9.75960636138916,-3.957263231277466
1715093715691634000,6.271634033203125,3.6415929794311523,-9.958664894104004,-3.9683897495269775
1715093715701613000,6.281613037109375,2.0451712608337402,-5.643993377685547,-2.5947885513305664
1715093715711561700,6.291561767578125,-2.5875244140625,-3.2747249603271484,-2.0718307495117188
1715093715721541000,6.301541015625,-0.16174030303955078,-5.958249092102051,-1.4197280406951904
1715093715731520300,6.311520263671875,-1.2290306091308594,-7.0796613693237305,-2.75014328956604
1715093715741469000,6.321468994140625,-5.451464653015137,-8.27820873260498,-1.4907803535461426
1715093715751448300,6.3314482421875,-3.202502965927124,-9.920417785644531,2.2672746181488037
1715093715761427500,6.341427490234375,-4.42080545425415,-6.381589889526367,-0.8066327571868896
1715093715771406800,6.35140673828125,-3.9571115970611572,-1.3857765197753906,-2.5830600261688232
1715093715781386000,6.361385986328125,-3.662715196609497,0.6322956085205078,-0.6945164203643799
1715093715791334700,6.371334716796875,-1.520704746246338,1.670135498046875,1.3697733879089355
1715093715801314000,6.38131396484375,0.8299890756607056,3.141725540161133,2.651076078414917
1715093715811293200,6.391293212890625,1.695142149925232,4.450166702270508,2.664734363555908
1715093715821272600,6.4012724609375,0.8882896304130554,5.613851547241211,1.138890027999878
1715093715831221200,6.41122119140625,-0.031099915504455566,5.872241020202637,-1.7888391017913818
1715093715841200400,6.421200439453125,0.550125241279602,4.445362091064453,-2.3796019554138184
1715093715851179800,6.4311796875,1.3055340051651,1.8745927810668945,-3.477095127105713
1715093715861128400,6.44112841796875,1.8945667743682861,-0.5681962966918945,-5.57916784286499
1715093715871107600,6.451107666015625,2.0039143562316895,-2.400742530822754,-6.36622428894043
1715093715881087000,6.4610869140625,0.9442969560623169,-3.777647018432617,-6.730710029602051
1715093715891035600,6.47103564453125,-0.2108302116394043,-3.3324899673461914,-6.232923984527588
1715093715901014800,6.481014892578125,-1.0616469383239746,-0.12868690490722656,-5.234367370605469
1715093715910994200,6.490994140625,-0.6846779584884644,2.4379024505615234,-4.8483171463012695
1715093715920942800,6.50094287109375,-0.08714210987091064,3.8330202102661133,-4.7959747314453125
1715093715930922200,6.510922119140625,1.040514588356018,4.476029396057129,-4.995901107788086
1715093715940901400,6.5209013671875,2.325000524520874,4.265951156616211,-5.249804496765137
1715093715950850000,6.53085009765625,3.381462574005127,3.8054094314575195,-4.705667972564697
1715093715960829400,6.540829345703125,3.3556599617004395,2.920639991760254,-3.865326166152954
1715093715970808600,6.55080859375,2.3899378776550293,2.2073984146118164,-1.9258543252944946
1715093715980757200,6.56075732421875,1.015621542930603,1.7076339721679688,0.4319112300872803
1715093715990736600,6.570736572265625,-0.2827894687652588,0.44083309173583984,1.8072751760482788
1715093716000715800,6.5807158203125,-0.6377190351486206,-0.28725719451904297,2.719005584716797
1715093716010664400,6.59066455078125,-1.0223923921585083,-0.6376285552978516,3.775869369506836
1715093716020643800,6.600643798828125,-1.2612638473510742,-0.5097036361694336,4.130884647369385
1715093716030623000,6.610623046875,-1.0569324493408203,-0.015901565551757812,3.8522567749023438
1715093716040572000,6.620572021484375,-0.5149425268173218,0.6943521499633789,3.443821907043457
1715093716050551000,6.630551025390625,-0.21087050437927246,1.322092056274414,2.927095413208008
1715093716060530200,6.6405302734375,-0.16339969635009766,1.829599380493164,2.6006360054016113
1715093716070509600,6.650509521484375,-0.3633967638015747,2.0495758056640625,2.2653470039367676
1715093716080488700,6.66048876953125,-0.47203683853149414,1.8410100936889648,1.9550753831863403
1715093716090437600,6.670437744140625,-0.11546182632446289,1.421849250793457,1.8017479181289673
1715093716100416800,6.680416748046875,0.3577437400817871,1.007340431213379,1.6874310970306396
1715093716110396000,6.69039599609375,0.7825360298156738,0.5395374298095703,1.5079771280288696
1715093716120375300,6.700375244140625,1.6447057723999023,0.22393417358398438,1.4045486450195312
1715093716130324000,6.710323974609375,3.557251453399658,0.1947469711303711,1.4338418245315552
1715093716140303000,6.72030322265625,6.671283721923828,0.5997133255004883,1.4327362775802612
1715093716150282500,6.730282470703125,8.758975982666016,1.304203987121582,1.333429217338562
1715093716160231200,6.740231201171875,8.434429168701172,2.1594724655151367,0.5728124380111694
1715093716170210600,6.75021044921875,5.864529609680176,2.467789649963379,-0.08178651332855225
1715093716180189700,6.760189697265625,3.4444828033447266,1.804849624633789,0.2073218822479248
1715093716190168800,6.7701689453125,1.9163219928741455,0.014668464660644531,1.1102330684661865
1715093716200117800,6.78011767578125,2.2661187648773193,-2.1785268783569336,1.7855690717697144
1715093716210097000,6.790096923828125,3.34189772605896,-3.969557762145996,1.9807078838348389
1715093716220076300,6.800076171875,4.091386795043945,-4.304203987121582,2.13138484954834
1715093716230025000,6.81002490234375,5.416652679443359,-3.2444839477539062,3.053252935409546
1715093716240004000,6.820004150390625,4.791482925415039,-1.770212173461914,4.411396503448486
1715093716249983500,6.8299833984375,2.881303071975708,-0.3015718460083008,4.9779558181762695
1715093716259932200,6.83993212890625,1.9336028099060059,1.2111568450927734,4.469653606414795
1715093716269911300,6.849911376953125,1.2144849300384521,2.4286317825317383,3.344207763671875
1715093716279890700,6.859890625,0.562089204788208,3.217041015625,2.150057554244995
1715093716289839400,6.86983935546875,-0.1401045322418213,3.2518463134765625,0.6318056583404541
1715093716299818500,6.879818603515625,-0.4506934881210327,2.0097599029541016,-1.4356555938720703
1715093716309798000,6.8897978515625,-1.0095199346542358,0.3470611572265625,-3.3435802459716797
1715093716319746600,6.89974658203125,-1.8226548433303833,-1.2745771408081055,-5.135602951049805
1715093716329726000,6.909725830078125,-2.63855242729187,-3.042257308959961,-7.530910968780518
1715093716339705000,6.919705078125,-3.2816720008850098,-5.677797317504883,-9.539647102355957
1715093716349684200,6.929684326171875,-3.5646166801452637,-9.220420837402344,-10.357831954956055
1715093716359663600,6.93966357421875,-3.983177900314331,-12.459760665893555,-10.053268432617188
1715093716369612300,6.9496123046875,-4.747647285461426,-14.543230056762695,-7.813132286071777
1715093716379591700,6.959591796875,-6.065828323364258,-13.176420211791992,-2.7107903957366943
1715093716389570800,6.96957080078125,-7.334878444671631,-8.8375883102417,3.1831328868865967
1715093716399519500,6.97951953125,-8.329366683959961,-2.6050539016723633,7.837445259094238
1715093716409499000,6.989498779296875,-8.328690528869629,-0.02766895294189453,8.967044830322266
1715093716419478000,6.99947802734375,-8.074196815490723,1.1735992431640625,10.762577056884766
1715093716429457400,7.00945751953125,-6.289536476135254,1.99420166015625,10.242951393127441
1715093716439406000,7.019406005859375,-3.013333320617676,3.278336524963379,9.06641674041748
1715093716449385200,7.02938525390625,-2.3384203910827637,3.228816032409668,6.029881954193115
1715093716459364600,7.039364501953125,-2.6408796310424805,2.400541305541992,3.456057548522949
1715093716469313300,7.049313232421875,-1.2542980909347534,1.573190689086914,1.5616044998168945
1715093716479292400,7.05929248046875,0.45744502544403076,0.9028825759887695,-0.8539204597473145
1715093716489271800,7.069271728515625,1.8347231149673462,0.6189985275268555,-2.807478904724121
1715093716499220500,7.079220458984375,2.8051719665527344,0.6569814682006836,-3.8427863121032715
1715093716509199600,7.08919970703125,2.976516008377075,1.5556373596191406,-4.458712577819824
1715093716519179000,7.099178955078125,2.777207851409912,2.9064998626708984,-4.704516887664795
1715093716529127700,7.109127685546875,1.6326099634170532,3.8875694274902344,-4.700234413146973
1715093716539106800,7.11910693359375,0.47808706760406494,4.281928062438965,-4.530147552490234
1715093716549086200,7.129086181640625,-0.35148584842681885,4.255409240722656,-4.027585029602051
1715093716559035000,7.139034912109375,-1.168190836906433,3.880171775817871,-3.672600269317627
1715093716569014300,7.14901416015625,-1.7857011556625366,3.512775421142578,-3.5381054878234863
1715093716578993400,7.158993408203125,-1.6481084823608398,3.2067813873291016,-3.3437626361846924
1715093716588942000,7.168942138671875,-0.6804652214050293,3.2588653564453125,-2.8424291610717773
1715093716598921500,7.17892138671875,0.776564359664917,3.5849218368530273,-2.8164379596710205
1715093716608900600,7.188900634765625,1.6615190505981445,3.698513984680176,-2.807398557662964
1715093716618880000,7.1988798828125,1.8771493434906006,3.502483367919922,-1.937467098236084
1715093716628828700,7.20882861328125,1.7779805660247803,2.990239143371582,-0.5684187412261963
1715093716638807800,7.218807861328125,2.023193359375,3.61405086517334,2.0714216232299805
1715093716648787200,7.228787109375,1.945729374885559,5.326948165893555,4.861792087554932
1715093716658766300,7.238766357421875,1.1341978311538696,4.4717512130737305,5.427574157714844
1715093716668715000,7.248715087890625,0.5521619319915771,1.8109874725341797,6.705341339111328
1715093716678694400,7.2586943359375,0.5492962598800659,-1.3126792907714844,8.007299423217773
1715093716688673500,7.268673583984375,0.16764456033706665,-4.65946102142334,6.107632637023926
1715093716698653000,7.27865283203125,0.063060462474823,-7.4699554443359375,1.340118408203125
1715093716708601600,7.2886015625,0.06862175464630127,-11.369131088256836,-4.566488265991211
1715093716718580700,7.298580810546875,2.9282970428466797,-13.808581352233887,-6.84095573425293
1715093716728560000,7.30856005859375,2.844430923461914,-9.765121459960938,-5.63839054107666
1715093716738508800,7.3185087890625,-0.0013478994369506836,-0.6843528747558594,-4.1960039138793945
1715093716748488000,7.328488037109375,0.517829418182373,4.046647071838379,0.3060767650604248
1715093716758467300,7.33846728515625,-0.45482444763183594,2.2088623046875,2.1057469844818115
1715093716768416000,7.348416015625,-1.857450246810913,-2.0418529510498047,3.931878089904785
1715093716778395400,7.3583955078125,-0.98993319272995,-10.334577560424805,6.368120193481445
1715093716788374500,7.36837451171875,-6.530187606811523,-17.23769760131836,9.025931358337402
1715093716798323200,7.3783232421875,-11.221579551696777,-14.139077186584473,2.0810468196868896
1715093716808302600,7.388302490234375,-9.02618408203125,-6.76999568939209,-6.877559661865234
1715093716818281700,7.39828173828125,-4.07625675201416,-1.0332107543945312,-7.59194278717041
1715093716828230400,7.40823046875,0.28702470660209656,1.9758148193359375,-3.4181172847747803
1715093716838209800,7.418209716796875,2.936037302017212,2.7054710388183594,-1.4611847400665283
1715093716848189000,7.42818896484375,2.9515771865844727,3.77707576751709,-1.244278907775879
1715093716858137600,7.4381376953125,1.066612720489502,5.218531608581543,-1.9674410820007324
1715093716868117000,7.448116943359375,0.6469936966896057,5.863350868225098,-3.4988908767700195
1715093716878096100,7.45809619140625,1.7688688039779663,5.187722206115723,-4.303933143615723
1715093716888044800,7.468044921875,2.524554491043091,3.117814064025879,-4.218258857727051
1715093716898024200,7.478024169921875,2.77698016166687,0.7827415466308594,-4.6711225509643555
1715093716908003300,7.48800341796875,1.8361294269561768,-1.1849479675292969,-3.888667583465576
1715093716917982700,7.497982666015625,0.028892457485198975,-2.9282608032226562,-2.9877359867095947
1715093716927961900,7.5079619140625,-1.8535199165344238,-3.7960853576660156,-3.2095770835876465
1715093716937910500,7.51791064453125,-2.4312424659729004,-2.606572151184082,-3.969987154006958
1715093716947890000,7.527889892578125,-1.6475751399993896,-0.3762083053588867,-4.545165061950684
1715093716957869000,7.537869140625,-0.38189542293548584,1.601059913635254,-4.413987159729004
1715093716967848400,7.547848388671875,0.7394958734512329,2.965646743774414,-4.44135046005249
1715093716977797000,7.557797119140625,2.128325939178467,3.759373664855957,-4.532426834106445
1715093716987776300,7.5677763671875,2.77841854095459,4.234633445739746,-4.409114360809326
1715093716997755600,7.577755615234375,2.2938642501831055,3.7442474365234375,-3.9900736808776855
1715093717007704300,7.587704345703125,1.1643270254135132,2.8305912017822266,-2.7385315895080566
1715093717017683700,7.59768359375,0.22993803024291992,2.053731918334961,-1.2257168292999268
1715093717027662800,7.607662841796875,-0.21253323554992676,1.1420793533325195,-0.15884912014007568
1715093717037611500,7.617611572265625,-0.33135151863098145,0.22352313995361328,0.7412056922912598
1715093717047591000,7.6275908203125,-0.0901024341583252,-0.9392938613891602,2.0237951278686523
1715093717057570000,7.637570068359375,0.1623547077178955,-1.046194076538086,2.558575391769409
1715093717067518700,7.647518798828125,0.38142096996307373,-0.30578041076660156,2.835385799407959
1715093717077498000,7.657498046875,0.6621696949005127,0.3951072692871094,3.408687114715576
1715093717087477200,7.667477294921875,0.8295683860778809,0.8671102523803711,3.10947585105896
1715093717097426000,7.677426025390625,0.8636264801025391,1.392618179321289,2.806731700897217
1715093717107405300,7.6874052734375,0.8475437164306641,1.2878808975219727,2.46026873588562
1715093717117384400,7.697384521484375,1.1968796253204346,0.9768905639648438,1.9039970636367798
1715093717127333400,7.70733349609375,1.9787201881408691,0.4923095703125,2.1810474395751953
1715093717137312500,7.7173125,2.5323429107666016,0.05402660369873047,2.191671133041382
1715093717147291600,7.727291748046875,4.007304668426514,-0.08133220672607422,2.44144868850708
1715093717157240600,7.737240478515625,6.016327857971191,0.20403289794921875,2.7390377521514893
1715093717167219700,7.7472197265625,8.168930053710938,1.1602401733398438,3.0243091583251953
1715093717177199000,7.75719921875,9.037273406982422,2.2508697509765625,3.1426267623901367
1715093717187147800,7.767147705078125,7.270688056945801,3.202177047729492,2.1057605743408203
1715093717197127000,7.777126953125,4.42970085144043,3.3609580993652344,0.7488213777542114
1715093717207106300,7.787106201171875,2.642831325531006,2.1950178146362305,0.7488315105438232
1715093717217085400,7.79708544921875,1.5513298511505127,-0.3118162155151367,1.7637290954589844
1715093717227064600,7.807064697265625,1.8830995559692383,-2.839920997619629,2.7809014320373535
1715093717237013500,7.817013427734375,2.4568464756011963,-4.548084259033203,2.4442644119262695
1715093717246992600,7.82699267578125,4.241556167602539,-4.790885925292969,1.891926884651184
1715093717256972000,7.836971923828125,5.3436479568481445,-4.196051597595215,2.6147308349609375
1715093717266951200,7.846951171875,4.644881725311279,-2.5835514068603516,3.5529255867004395
1715093717276899800,7.85689990234375,2.5430617332458496,-0.5366792678833008,3.865504741668701
1715093717286879200,7.866879150390625,1.7401654720306396,1.9214048385620117,3.6022887229919434
1715093717296858400,7.8768583984375,0.07738327980041504,3.826807975769043,3.507880926132202
1715093717306807000,7.88680712890625,-1.006094217300415,4.905582427978516,2.416250228881836
1715093717316786400,7.896786376953125,-1.33292555809021,4.711114883422852,-0.13959574699401855
1715093717326765600,7.906765625,-1.4986178874969482,3.3369550704956055,-2.6027698516845703
1715093717336714200,7.91671435546875,-1.5163034200668335,1.4712705612182617,-4.600584983825684
1715093717346693600,7.926693603515625,-2.7917659282684326,-1.3177928924560547,-6.791146278381348
1715093717356672800,7.9366728515625,-3.422856330871582,-4.913211822509766,-9.56556510925293
1715093717366621700,7.94662158203125,-3.7623939514160156,-8.485485076904297,-10.409524917602539
1715093717376600800,7.956600830078125,-4.01595401763916,-12.350922584533691,-11.238424301147461
1715093717386580000,7.966580078125,-4.7815117835998535,-15.80932903289795,-10.763019561767578
1715093717396529000,7.97652880859375,-5.402024745941162,-16.78695297241211,-6.917623043060303
1715093717406508000,7.986508056640625,-6.544326305389404,-13.255372047424316,-0.8813673257827759
1715093717416487400,7.9964873046875,-8.342988967895508,-7.934328079223633,4.017520904541016
1715093717426436000,8.00643603515625,-9.615779876708984,-1.5903091430664062,8.181960105895996
1715093717436415200,8.016415283203125,-8.561033248901367,1.2432613372802734,9.296195030212402
1715093717446394600,8.02639453125,-6.486273765563965,2.998332977294922,10.781583786010742
1715093717456343300,8.03634326171875,-4.526403427124023,3.693295478820801,9.500384330749512
1715093717466322400,8.046322509765625,-2.4168238639831543,4.665918350219727,7.131678581237793
1715093717476301800,8.0563017578125,-2.2204556465148926,4.491246223449707,5.011219501495361
1715093717486281000,8.066281005859375,-2.3103551864624023,3.240123748779297,2.7031948566436768
1715093717496260400,8.07626025390625,-1.0372443199157715,2.221978187561035,0.7515921592712402
1715093717506209000,8.086208984375,0.3492162227630615,1.5139551162719727,-1.4814269542694092
1715093717516188200,8.096188232421875,1.429603934288025,1.3573293685913086,-3.0440149307250977
1715093717526167600,8.10616748046875,2.6466665267944336,1.5329856872558594,-4.158538341522217
1715093717536146700,8.116146728515625,2.8281726837158203,2.556364059448242,-4.6267900466918945
1715093717546095400,8.126095458984375,1.9817168712615967,3.623220443725586,-4.870338439941406
1715093717556074800,8.13607470703125,1.0941057205200195,4.347414970397949,-5.011598587036133
1715093717566054000,8.146053955078125,0.3220553398132324,4.631070137023926,-4.714284896850586
1715093717576002800,8.1560029296875,-0.3091083765029907,4.431646347045898,-4.23553991317749
1715093717585982000,8.16598193359375,-0.8719321489334106,3.9976272583007812,-3.6717538833618164
1715093717595961000,8.175961181640625,-1.3631913661956787,3.398758888244629,-3.4304087162017822
1715093717605910000,8.185909912109375,-1.1518548727035522,2.880457878112793,-3.2323153018951416
1715093717615889200,8.19588916015625,-0.18974876403808594,2.823775291442871,-2.824962854385376
1715093717625868300,8.205868408203125,0.8840450048446655,2.424881935119629,-2.9030325412750244
1715093717635847700,8.21584765625,1.5567560195922852,1.7744340896606445,-2.3343327045440674
1715093717645796400,8.22579638671875,1.9298834800720215,0.9532356262207031,-1.510523796081543
1715093717655775700,8.235775634765625,2.05781888961792,0.1201791763305664,-0.06382608413696289
1715093717665755000,8.2457548828125,1.9636684656143188,0.5207157135009766,2.841536521911621
1715093717675703600,8.25570361328125,1.2756268978118896,1.6438512802124023,6.0124006271362305
1715093717685683000,8.265682861328125,0.22366058826446533,1.4310979843139648,7.443569183349609
1715093717695662000,8.275662109375,-0.21745020151138306,0.018752098083496094,8.531285285949707
1715093717705610800,8.28561083984375,-0.7971691489219666,-2.178877830505371,8.806276321411133
1715093717715590100,8.295590087890625,-1.4291152954101562,-4.118679046630859,6.611661911010742
1715093717725569300,8.3055693359375,0.7154408693313599,-5.342981338500977,1.929980993270874
1715093717735518000,8.31551806640625,1.1688543558120728,-7.32015323638916,-2.540419578552246
1715093717745497300,8.325497314453125,2.490070343017578,-8.585676193237305,-5.371248245239258
1715093717755476500,8.3354765625,2.741560935974121,-5.724674224853516,-5.6121320724487305
1715093717765456000,8.345455810546875,1.7203141450881958,-0.6808938980102539,-4.572347640991211
1715093717775404500,8.355404541015625,0.13654720783233643,1.8063859939575195,-0.4636809825897217
1715093717785383700,8.3653837890625,-2.5824522972106934,0.00095367431640625,-0.029307842254638672
1715093717795363000,8.375363037109375,-4.233706474304199,-5.373453140258789,2.5968751907348633
1715093717805342200,8.38534228515625,-5.613101959228516,-11.813942909240723,8.908174514770508
1715093717815321600,8.395321533203125,-7.417945384979248,-15.01945686340332,5.8296051025390625
1715093717825270300,8.405270263671875,-7.250965595245361,-12.86433219909668,-1.2607481479644775
1715093717835249400,8.41524951171875,-5.017094612121582,-5.665270805358887,-5.900115489959717
1715093717845228800,8.425228759765625,-1.4164214134216309,0.6550817489624023,-5.414808750152588
1715093717855177500,8.435177490234375,2.0498499870300293,3.4361724853515625,-2.762085199356079
1715093717865156900,8.445156982421874,4.023377895355225,5.071982383728027,-0.7353112697601318
1715093717875136000,8.455135986328125,3.3889050483703613,6.0482635498046875,-0.9084489345550537
1715093717885084700,8.465084716796875,2.3828625679016113,6.847916603088379,-2.317504644393921
1715093717895064000,8.47506396484375,2.10520601272583,6.5106201171875,-4.053308486938477
1715093717905043200,8.485043212890625,1.4191179275512695,4.866786003112793,-5.354453086853027
1715093717914991900,8.494991943359375,0.9462583661079407,2.450005531311035,-6.551316738128662
1715093717924971300,8.50497119140625,0.8857769966125488,-0.011930465698242188,-6.148867607116699
1715093717934950400,8.514950439453125,1.0256779193878174,-2.1711769104003906,-4.8947343826293945
1715093717944899000,8.524899169921875,0.6562259197235107,-3.755950927734375,-3.452315092086792
1715093717954878500,8.53487841796875,-1.0090296268463135,-3.455777168273926,-3.481628179550171
1715093717964857600,8.544857666015625,-1.2157580852508545,-0.7426023483276367,-3.6100645065307617
1715093717974806500,8.554806640625,-0.18624573945999146,1.5751018524169922,-3.279447317123413
1715093717984785700,8.56478564453125,1.0118447542190552,3.019378662109375,-2.9869484901428223
1715093717994764800,8.574764892578125,1.7618907690048218,3.735382080078125,-3.1601221561431885
1715093718004713700,8.584713623046875,2.224686861038208,4.052994728088379,-2.8581206798553467
1715093718014692900,8.59469287109375,1.9403557777404785,3.5039806365966797,-2.0756587982177734
1715093718024672000,8.604672119140625,1.2720590829849243,2.7784671783447266,-0.7466458082199097
1715093718034621000,8.614620849609375,0.36335015296936035,2.0461063385009766,0.740564227104187
1715093718044600000,8.62460009765625,-0.45633625984191895,1.440821647644043,1.7035821676254272
1715093718054579500,8.634579345703125,-0.7784498929977417,0.9525308609008789,2.663217544555664
1715093718064558600,8.64455859375,-0.5963150262832642,0.21133804321289062,3.5091207027435303
1715093718074537700,8.654537841796875,-0.3514977693557739,-0.48038291931152344,3.4073638916015625
1715093718084486700,8.664486572265625,0.26736295223236084,-0.6445369720458984,2.8103506565093994
1715093718094465800,8.6744658203125,0.8134450912475586,-0.27089500427246094,2.5048255920410156
1715093718104445200,8.684445068359375,1.244165062904358,0.12380599975585938,1.7949576377868652
1715093718114424300,8.69442431640625,1.182755470275879,0.5709934234619141,1.625232458114624
1715093718124373000,8.704373046875,0.9159927368164062,0.8414459228515625,1.6698176860809326
1715093718134352400,8.714352294921875,0.6615893840789795,1.0440378189086914,1.1820088624954224
1715093718144331500,8.72433154296875,0.3367307186126709,1.132441520690918,1.5083853006362915
1715093718154280200,8.7342802734375,0.1999194622039795,0.7733297348022461,1.7547788619995117
1715093718164259600,8.744259521484375,1.0495336055755615,0.3376626968383789,1.7383451461791992
1715093718174238700,8.75423876953125,3.354560613632202,0.017953872680664062,1.2714817523956299
1715093718184187400,8.7641875,6.78502082824707,0.2700080871582031,0.22541582584381104
1715093718194166800,8.774166748046875,9.586039543151855,0.9890546798706055,-0.45140647888183594
1715093718204146000,8.78414599609375,9.358834266662598,2.1090402603149414,-0.19544100761413574
1715093718214094800,8.7940947265625,6.592654228210449,2.9952402114868164,0.4690350294113159
1715093718224074000,8.804073974609375,4.15311336517334,3.2567577362060547,1.1150082349777222
1715093718234053000,8.81405322265625,2.850276470184326,1.9989728927612305,2.096768856048584
1715093718244002000,8.824001953125,2.6205053329467773,-0.7759103775024414,2.941960334777832
1715093718253981200,8.833981201171875,2.9656496047973633,-3.6801395416259766,2.32140851020813
1715093718263960600,8.843960693359374,3.347797155380249,-5.485411643981934,1.6174105405807495
1715093718273909200,8.8539091796875,3.716865062713623,-4.971920013427734,2.9318020343780518
1715093718283888400,8.863888427734375,2.9142043590545654,-3.8759336471557617,4.348018646240234
1715093718293867800,8.87386767578125,1.8809781074523926,-2.5648622512817383,4.89150857925415
1715093718303816400,8.88381640625,-0.2373027801513672,-0.9331884384155273,4.558236598968506
1715093718313795600,8.893795654296875,-1.7423627376556396,0.8156576156616211,3.6902732849121094
1715093718323775000,8.90377490234375,-2.3136980533599854,1.7134037017822266,1.437289834022522
1715093718333723600,8.9137236328125,-2.1081619262695312,1.5667448043823242,-1.2428942918777466
1715093718343702800,8.923702880859375,-2.1066837310791016,0.9811210632324219,-3.676339626312256
1715093718353682200,8.93368212890625,-3.251214027404785,-0.108001708984375,-6.6303324699401855
1715093718363661300,8.943661376953125,-4.510124683380127,-1.7858943939208984,-9.202187538146973
1715093718373640700,8.953640625,-4.889049053192139,-4.319122314453125,-10.813136100769043
1715093718383589400,8.96358935546875,-4.046336650848389,-7.119868278503418,-12.186724662780762
1715093718393568500,8.973568603515625,-3.6356019973754883,-9.808135986328125,-11.874248504638672
1715093718403548000,8.9835478515625,-3.834601640701294,-11.574645042419434,-8.826310157775879
1715093718413527000,8.993527099609375,-3.548429489135742,-10.545018196105957,-2.756990909576416
1715093718423475700,9.003475830078125,-4.874561309814453,-7.228200912475586,2.976203441619873
1715093718433455000,9.013455078125,-6.866083145141602,-2.3939647674560547,6.661794662475586
1715093718443434200,9.023434326171875,-8.56467342376709,-0.26387691497802734,8.190215110778809
1715093718453383200,9.033383056640625,-8.964766502380371,1.0607929229736328,11.445518493652344
1715093718463362300,9.0433623046875,-7.490888595581055,2.86934757232666,11.957376480102539
1715093718473341400,9.053341552734375,-5.2297139167785645,3.846989631652832,8.47719955444336
1715093718483290400,9.063290283203125,-3.3553009033203125,4.560601234436035,6.805273532867432
1715093718493269500,9.07326953125,-2.771305561065674,3.9235496520996094,3.616349458694458
1715093718503249000,9.083248779296875,-1.2366060018539429,2.9376726150512695,1.1797049045562744
1715093718513197600,9.093197509765625,0.6436361074447632,2.051030158996582,-0.9606728553771973
1715093718523176700,9.1031767578125,1.5644201040267944,1.250223159790039,-2.75197434425354
1715093718533156000,9.113156005859375,1.6705141067504883,0.7083101272583008,-3.9592864513397217
1715093718543104800,9.123104736328125,1.673107385635376,0.7375221252441406,-5.017489433288574
1715093718553084000,9.133083984375,1.2958245277404785,1.5877037048339844,-5.314659118652344
1715093718563063300,9.143063232421875,0.7201286554336548,2.6950836181640625,-4.905966758728027
1715093718573012000,9.153011962890625,0.03053879737854004,3.494381904602051,-4.40985631942749
1715093718582991000,9.1629912109375,-0.4578205347061157,3.7900571823120117,-3.8281335830688477
1715093718592970500,9.172970458984375,-0.9233863353729248,3.6279144287109375,-3.2217423915863037
1715093718602919200,9.182919189453125,-1.3639508485794067,3.2325286865234375,-3.009092330932617
1715093718612898600,9.192898681640624,-1.5153900384902954,2.8779783248901367,-3.1071372032165527
1715093718622877700,9.202877685546875,-0.8942297697067261,2.726409912109375,-3.261873245239258
1715093718632856800,9.21285693359375,-0.0902550220489502,2.785402297973633,-3.3146133422851562
1715093718642836200,9.222836181640625,0.7274070978164673,2.6590042114257812,-3.0615897178649902
1715093718652785000,9.232784912109375,1.340367078781128,2.484577178955078,-2.30389404296875
1715093718662764300,9.242764404296874,1.819948434829712,2.3926162719726562,-1.2985124588012695
1715093718672743400,9.252743408203125,2.113046169281006,2.1786727905273438,0.13644099235534668
1715093718682722600,9.26272265625,2.112966537475586,2.7173709869384766,3.1438519954681396
1715093718692671500,9.27267138671875,1.8212690353393555,3.5647239685058594,6.383537292480469
1715093718702650600,9.282650634765625,1.2123363018035889,2.66854190826416,7.732026100158691
1715093718712629800,9.292629638671874,0.5504390001296997,0.6629953384399414,9.206850051879883
1715093718722578700,9.30257861328125,0.28421735763549805,-1.9625368118286133,10.265571594238281
1715093718732557800,9.312557861328125,-0.020591259002685547,-4.63331413269043,8.828166961669922
1715093718742537200,9.322537109375,-1.834368348121643,-6.862984657287598,5.482121467590332
1715093718752486000,9.33248583984375,-4.097357273101807,-9.095636367797852,1.1281380653381348
1715093718762465000,9.342465087890625,-1.1103169918060303,-10.921823501586914,-3.33738112449646
1715093718772444400,9.3524443359375,4.797939300537109,-10.9649076461792,-4.5116987228393555
1715093718782393000,9.36239306640625,4.22985315322876,-4.679685592651367,-1.5052707195281982
1715093718792372200,9.372372314453125,0.17584407329559326,1.267970085144043,0.7740514278411865
1715093718802351600,9.3823515625,0.41259825229644775,-0.41958141326904297,1.665832281112671
1715093718812300300,9.39230029296875,0.3277580738067627,-2.769148826599121,2.2066030502319336
1715093718822279400,9.402279541015625,-3.716994285583496,-3.0468740463256836,0.7596354484558105
1715093718832258800,9.4122587890625,-4.1679182052612305,-6.495138168334961,-0.2618286609649658
1715093718842207500,9.42220751953125,-7.271379470825195,-10.92372989654541,0.25460171699523926
1715093718852187000,9.432186767578125,-7.000660419464111,-10.24001407623291,-4.3622307777404785
1715093718862166000,9.442166015625,-3.9790396690368652,-4.776612281799316,-5.964345455169678
1715093718872114700,9.45211474609375,-0.7319884896278381,-0.39510345458984375,-3.7608871459960938
1715093718882094000,9.462093994140625,1.5979969501495361,2.315831184387207,-0.8566193580627441
1715093718892073200,9.4720732421875,2.5939228534698486,4.230596542358398,0.4647791385650635
1715093718902022000,9.48202197265625,3.0232057571411133,5.588799476623535,0.14964079856872559
1715093718912001300,9.492001220703125,1.7863709926605225,5.810477256774902,-1.9333641529083252
1715093718921980400,9.50198046875,0.9650659561157227,5.136473655700684,-3.01531720161438
1715093718931959800,9.511959716796875,0.7407556772232056,3.3655242919921875,-4.083198070526123
1715093718941939000,9.52193896484375,0.8858078718185425,1.2275714874267578,-5.245626926422119
1715093718951887600,9.5318876953125,1.127307653427124,-0.6850652694702148,-5.174631595611572
1715093718961867000,9.541866943359375,1.2205814123153687,-1.7824592590332031,-3.8871188163757324
1715093718971846100,9.55184619140625,0.22470909357070923,-2.3051538467407227,-3.3542308807373047
1715093718981825500,9.561825439453125,-0.9687886834144592,-1.703577995300293,-4.188125133514404
1715093718991774200,9.571774169921875,-0.5460352897644043,0.2165212631225586,-4.109613418579102
1715093719001753300,9.58175341796875,0.563427209854126,2.007699966430664,-3.817100763320923
1715093719011732700,9.591732666015625,1.756426453590393,2.9814977645874023,-4.243271827697754
1715093719021681400,9.601681396484375,3.0758986473083496,3.9679574966430664,-3.906975746154785
1715093719031660500,9.61166064453125,3.1598944664001465,4.48126220703125,-3.4309449195861816
1715093719041640000,9.621639892578125,2.279069423675537,4.412654876708984,-2.7006709575653076
1715093719051588600,9.631588623046875,1.4953818321228027,3.890573501586914,-0.8354505300521851
1715093719061568000,9.641568115234374,0.8298581838607788,3.126920700073242,1.5534192323684692
1715093719071547100,9.651547119140625,0.3664206266403198,1.937495231628418,2.8921899795532227
1715093719081495800,9.661495849609375,0.11628067493438721,0.522801399230957,3.485896587371826
1715093719091475200,9.67147509765625,0.24543428421020508,-0.6092081069946289,3.8602757453918457
1715093719101454300,9.681454345703125,0.3229832649230957,-1.0509672164916992,3.930692672729492
1715093719111403000,9.691403076171875,0.06706273555755615,-0.7554244995117188,3.633732795715332
1715093719121382400,9.70138232421875,-0.4004707336425781,-0.2772054672241211,3.1730356216430664
1715093719131361500,9.711361572265625,-0.8268272876739502,0.23387908935546875,2.7817063331604004
1715093719141341000,9.7213408203125,-1.1066211462020874,0.44208812713623047,2.27685546875
1715093719151289600,9.73128955078125,-1.1420902013778687,0.3444194793701172,1.9270665645599365
1715093719161268700,9.741268798828125,-0.7577775716781616,0.20809364318847656,1.8073217868804932
1715093719171248000,9.751248046875,0.35779452323913574,-0.17410755157470703,2.3962671756744385
1715093719181196800,9.76119677734375,1.502056360244751,-0.5382022857666016,2.7430479526519775
1715093719191176000,9.771176025390625,2.5630598068237305,-0.5995616912841797,3.316554069519043
1715093719201155300,9.7811552734375,4.3445234298706055,-0.2801628112792969,2.8505096435546875
1715093719211134500,9.791134521484375,6.972449779510498,0.7619447708129883,2.3678503036499023
1715093719221113900,9.80111376953125,8.72021484375,2.205449104309082,1.7852376699447632
1715093719231062500,9.8110625,8.568925857543945,3.7006120681762695,0.6600807905197144
1715093719241041700,9.821041748046875,6.382699966430664,4.930039405822754,-0.14233529567718506
1715093719251021000,9.83102099609375,3.511319637298584,4.851396560668945,-0.4589693546295166
1715093719261000200,9.841000244140625,1.802297592163086,2.8206520080566406,0.31219708919525146
1715093719270948900,9.850948974609375,1.9402623176574707,-0.2945222854614258,1.7723191976547241
1715093719280928300,9.86092822265625,3.0003786087036133,-3.2112178802490234,1.8528352975845337
1715093719290907400,9.870907470703125,4.7379150390625,-4.430462837219238,1.2387624979019165
1715093719300856300,9.880856201171875,6.015275955200195,-3.519763946533203,2.182049036026001
1715093719310835500,9.89083544921875,5.270565986633301,-2.2923765182495117,3.2200934886932373
1715093719320814600,9.900814697265625,3.0594215393066406,-0.8092107772827148,4.396979331970215
1715093719330763500,9.910763427734375,1.1467490196228027,0.9425668716430664,5.0260772705078125
1715093719340742700,9.92074267578125,-0.4893922805786133,2.2102346420288086,4.8542656898498535
1715093719350722000,9.93072216796875,-1.3037067651748657,2.143660545349121,3.0777406692504883
1715093719360670700,9.940670654296875,-1.6805341243743896,1.3762245178222656,0.38414788246154785
1715093719370649900,9.95064990234375,-1.617682695388794,0.6614370346069336,-2.0914549827575684
1715093719380629200,9.960629150390625,-1.80670964717865,-0.8686704635620117,-5.029079437255859
1715093719390578000,9.970577880859375,-2.542693853378296,-3.1168336868286133,-8.548099517822266
1715093719400557000,9.98055712890625,-3.701629161834717,-6.305368423461914,-11.430741310119629
1715093719410536400,9.990536376953125,-4.367776393890381,-9.77492904663086,-12.714656829833984
1715093719420485000,10.000485107421875,-4.983669281005859,-13.113324165344238,-12.674161911010742
1715093719430464300,10.01046435546875,-5.850727081298828,-14.908306121826172,-11.085593223571777
1715093719440443600,10.020443603515625,-5.367122173309326,-13.567546844482422,-5.327478408813477
1715093719450392300,10.030392333984375,-5.52372932434082,-10.235624313354492,2.2435407638549805
1715093719460371700,10.040371826171874,-7.061936378479004,-6.154487609863281,6.761634826660156
1715093719470350800,10.050350830078125,-8.568023681640625,-0.26665496826171875,9.455828666687012
1715093719480330000,10.060330078125,-9.30036735534668,1.3637676239013672,10.394977569580078
1715093719490279000,10.07027880859375,-8.632169723510742,3.0529870986938477,11.98316764831543
1715093719500258000,10.080258056640625,-5.535166263580322,4.02748966217041,10.893439292907715
1715093719510237200,10.0902373046875,-2.999664306640625,4.252287864685059,7.35528564453125
1715093719520216600,10.100216552734375,-2.7273268699645996,3.791934013366699,4.522630214691162
1715093719530195700,10.11019580078125,-1.6260749101638794,2.819131851196289,2.525390386581421
1715093719540144600,10.12014453125,-0.15101826190948486,1.8162431716918945,0.510124683380127
1715093719550123800,10.130123779296875,1.4839351177215576,1.0601186752319336,-1.5770776271820068
1715093719560103000,10.14010302734375,2.2268195152282715,0.8880329132080078,-2.832218647003174
1715093719570051800,10.1500517578125,2.277845859527588,1.2500944137573242,-3.5427117347717285
1715093719580031000,10.160031005859375,2.007471799850464,2.257418632507324,-3.9231019020080566
1715093719590010400,10.17001025390625,1.370957851409912,3.5354185104370117,-3.9766600131988525
1715093719599959000,10.179958984375,0.612446665763855,4.375494003295898,-4.086606979370117
1715093719609938200,10.189938232421875,-0.033029794692993164,4.6206159591674805,-3.948333978652954
1715093719619917600,10.19991748046875,-0.5146952867507935,4.460002899169922,-3.7282400131225586
1715093719629866200,10.2098662109375,-0.5067065954208374,4.017793655395508,-3.5632078647613525
1715093719639845400,10.219845458984375,-0.21323847770690918,3.8057479858398438,-3.4639151096343994
1715093719649824800,10.22982470703125,0.31193435192108154,3.9323720932006836,-3.3687398433685303
1715093719659773400,10.2397734375,0.6450669765472412,3.922417640686035,-3.725982427597046
1715093719669752600,10.249752685546875,1.0150165557861328,3.6941423416137695,-3.14387583732605
1715093719679732000,10.25973193359375,1.1890649795532227,3.5521936416625977,-2.134688377380371
1715093719689680600,10.2696806640625,1.4784654378890991,3.2750797271728516,-0.9123375415802002
1715093719699660000,10.279659912109375,1.6970045566558838,2.8631277084350586,0.9586324691772461
1715093719709639200,10.28963916015625,2.112973928451538,3.0123672485351562,3.075795888900757
1715093719719587800,10.299587890625,2.2517552375793457,2.879941940307617,4.777403831481934
1715093719729567200,10.309567138671875,1.6985678672790527,1.3031082153320312,5.570606231689453
1715093719739546400,10.31954638671875,0.835412323474884,-0.8400306701660156,6.473523139953613
1715093719749495000,10.3294951171875,-0.3602132201194763,-2.6372365951538086,6.2978081703186035
1715093719759474400,10.339474365234375,-1.1134881973266602,-4.449512481689453,3.9636104106903076
1715093719769453600,10.34945361328125,0.7940965890884399,-5.943035125732422,0.240142822265625
1715093719779433000,10.359432861328125,1.697314977645874,-7.919743537902832,-3.7818100452423096
1715093719789412000,10.369412109375,2.548177719116211,-7.969668388366699,-3.7056467533111572
1715093719799360800,10.37936083984375,2.3676910400390625,-4.303219795227051,-1.643376111984253
1715093719809340200,10.389340087890625,2.413036346435547,-0.12494945526123047,0.4972834587097168
1715093719819319300,10.3993193359375,3.625977039337158,2.1341733932495117,2.962536334991455
1715093719829298700,10.409298583984375,-1.2107903957366943,1.701730728149414,4.57242488861084
1715093719839247400,10.419247314453125,-3.2394349575042725,-1.4974374771118164,6.1740217208862305
1715093719849226500,10.4292265625,-5.87261962890625,-11.15943431854248,5.019565105438232
1715093719859206000,10.439205810546875,-10.854313850402832,-18.336557388305664,3.4386484622955322
1715093719869154600,10.449154541015625,-9.85877799987793,-19.592674255371094,-1.7864768505096436
1715093719879133700,10.4591337890625,-5.56436014175415,-12.653545379638672,-9.39605712890625
1715093719889113000,10.469113037109375,-0.9121805429458618,-2.2318553924560547,-7.645587921142578
1715093719899061800,10.479061767578125,1.6970093250274658,2.8184051513671875,-4.063672065734863
1715093719909041000,10.489041015625,3.2472431659698486,5.105218887329102,-2.5636017322540283
1715093719919020300,10.499020263671875,2.2916433811187744,5.93585205078125,-1.1738224029541016
1715093719928969000,10.508968994140625,1.257470965385437,6.200963020324707,-0.9320290088653564
1715093719938948400,10.5189482421875,0.16993850469589233,6.056151390075684,-2.863415479660034
1715093719948927500,10.528927490234375,0.3132554292678833,5.603812217712402,-4.307034492492676
1715093719958876200,10.538876220703125,1.2866977453231812,3.965852737426758,-3.8191232681274414
1715093719968855600,10.54885546875,2.015946865081787,1.7883272171020508,-3.614422559738159
1715093719978834700,10.558834716796875,2.183413028717041,-0.26430320739746094,-2.877739191055298
1715093719988783400,10.568783447265625,1.2268846035003662,-2.6512928009033203,-2.047546863555908
1715093719998762800,10.5787626953125,-0.6987912654876709,-3.9668617248535156,-1.7845492362976074
1715093720008742000,10.588741943359375,-2.4246973991394043,-3.0315465927124023,-3.7211716175079346
1715093720018690600,10.598690673828125,-2.0658490657806396,-1.1804008483886719,-4.890883445739746
1715093720028670000,10.608669921875,-0.09336626529693604,0.9740200042724609,-4.467493057250977
1715093720038649000,10.618649169921875,1.2038007974624634,2.6114025115966797,-4.64806604385376
1715093720048598000,10.628597900390625,2.5078134536743164,3.783540725708008,-4.8611650466918945
1715093720058577200,10.6385771484375,3.0453500747680664,4.305569648742676,-4.659442901611328
1715093720068556300,10.648556396484375,2.740107536315918,3.9845685958862305,-4.092217922210693
1715093720078535700,10.65853564453125,2.1650099754333496,3.3535032272338867,-2.555727005004883
1715093720088514800,10.668514892578125,1.3967289924621582,2.5737762451171875,-0.7398805618286133
1715093720098463700,10.678463623046875,0.8773727416992188,1.5013427734375,0.7648612260818481
1715093720108443000,10.68844287109375,0.24459338188171387,0.18935680389404297,1.5624563694000244
1715093720118422000,10.698422119140625,0.15149104595184326,-0.8952617645263672,2.3804712295532227
1715093720128401400,10.7084013671875,0.2809638977050781,-1.5509529113769531,3.2319207191467285
1715093720138350000,10.71835009765625,0.1632915735244751,-1.7590808868408203,3.5632247924804688
1715093720148329500,10.72832958984375,0.04588150978088379,-0.9333477020263672,3.6057982444763184
1715093720158308600,10.73830859375,-0.08414340019226074,0.0490570068359375,3.427027702331543
1715093720168257300,10.74825732421875,-0.0687868595123291,0.8455381393432617,3.062582492828369
1715093720178236700,10.758236572265625,0.11745750904083252,1.4780158996582031,3.134639263153076
1715093720188215800,10.7682158203125,0.27312755584716797,1.5536985397338867,3.401583194732666
1715093720198164500,10.77816455078125,0.5064468383789062,1.5650758743286133,3.8852412700653076
1715093720208144000,10.788143798828125,0.5012545585632324,1.3600034713745117,4.76727294921875
1715093720218123000,10.798123046875,1.132237195968628,1.0811691284179688,5.831371307373047
1715093720228071700,10.80807177734375,3.509479284286499,0.9961366653442383,6.090290069580078
1715093720238051000,10.818051025390625,7.1039628982543945,1.5415048599243164,5.454733848571777
1715093720248030200,10.8280302734375,9.687202453613281,2.683077812194824,3.9921042919158936
1715093720257979000,10.837978759765624,9.464881896972656,4.29084587097168,2.329472780227661
1715093720267958300,10.847958251953125,6.244111061096191,5.262775421142578,0.9590150117874146
1715093720277937400,10.8579375,2.028719425201416,4.045066833496094,-1.1030868291854858
1715093720287886300,10.86788623046875,-0.30958080291748047,0.6224555969238281,-1.3570009469985962
1715093720297865500,10.877865478515625,0.7108871936798096,-2.7545289993286133,-0.1408296823501587
1715093720307844600,10.8878447265625,2.50412917137146,-4.156303405761719,0.5850411653518677
1715093720317793500,10.89779345703125,4.378974437713623,-3.818523406982422,1.5693422555923462
1715093720327772700,10.907772705078125,5.53861141204834,-2.983637809753418,2.9472732543945312
1715093720337752000,10.917751953125,4.27242374420166,-1.8800163269042969,4.198453426361084
1715093720347731200,10.927731201171875,3.1334879398345947,-0.3728361129760742,4.817747116088867
1715093720357710300,10.93771044921875,1.7608938217163086,1.5400152206420898,4.388229846954346
1715093720367659300,10.9476591796875,-0.4053802490234375,2.400838851928711,2.735961437225342
1715093720377638400,10.957638427734375,-0.5841217041015625,2.1092910766601562,-0.33198463916778564
1715093720387617800,10.96761767578125,-0.4151933193206787,1.1924247741699219,-3.010763168334961
1715093720397597000,10.977596923828125,-0.27400660514831543,-0.19382667541503906,-5.184412002563477
1715093720407545600,10.987545654296875,-0.5380240678787231,-2.1283416748046875,-7.200693607330322
1715093720417525000,10.99752490234375,-1.7188810110092163,-4.741091728210449,-9.394627571105957
1715093720427504000,11.007504150390625,-2.3720955848693848,-8.355731964111328,-11.026725769042969
1715093720437452800,11.017452880859375,-2.6816484928131104,-11.511080741882324,-10.240097999572754
1715093720447432200,11.02743212890625,-3.7849223613739014,-13.119750022888184,-7.491546630859375
1715093720457411300,11.037411376953125,-4.515274524688721,-13.881857872009277,-3.987354040145874
1715093720467360000,11.047360107421875,-5.386602401733398,-12.436456680297852,1.2650995254516602
1715093720477339400,11.05733935546875,-6.69499397277832,-9.154414176940918,5.8948893547058105
1715093720487318500,11.067318603515625,-8.4713716506958,-4.042662620544434,7.95920467376709
1715093720497267500,11.077267333984375,-9.672967910766602,1.5839605331420898,9.471150398254395
1715093720507246600,11.08724658203125,-8.539011001586914,2.3501787185668945,7.322567939758301
1715093720517225700,11.097225830078125,-6.126649379730225,2.9289770126342773,6.283665180206299
1715093720527174700,11.107174560546875,-2.504272699356079,4.240714073181152,6.678262233734131
1715093720537153800,11.11715380859375,-0.806592583656311,4.458199501037598,5.203404426574707
1715093720547133200,11.12713330078125,-1.8515150547027588,3.0472841262817383,2.677607536315918
1715093720557081900,11.137081787109375,-1.9349623918533325,1.7967872619628906,1.9028213024139404
1715093720567061000,11.14706103515625,-1.0658971071243286,1.4903697967529297,0.6941537857055664
1715093720577040400,11.157040283203125,0.415035605430603,1.6711959838867188,-0.7088289260864258
1715093720586989000,11.166989013671875,1.4071924686431885,2.1154794692993164,-1.6032569408416748
1715093720596968200,11.17696826171875,1.7486920356750488,2.566948890686035,-2.5164577960968018
1715093720606947600,11.186947509765625,1.5929834842681885,3.302968978881836,-3.433990478515625
1715093720616896300,11.196896240234375,0.7032610177993774,3.993650436401367,-4.293733596801758
1715093720626875400,11.20687548828125,-0.2470184564590454,4.374563217163086,-5.212717056274414
1715093720636854800,11.216854736328125,-0.8938225507736206,4.412174224853516,-5.94126033782959
1715093720646834000,11.226833984375,-1.0783575773239136,4.102079391479492,-6.497623443603516
1715093720656813300,11.236813232421875,-1.0116217136383057,3.503140449523926,-6.903715133666992
1715093720666762000,11.246761962890625,-1.1236032247543335,3.041593551635742,-6.8234782218933105
1715093720676741000,11.2567412109375,-0.7344871759414673,2.7591171264648438,-6.371843338012695
1715093720686720500,11.266720458984375,0.06503701210021973,2.7596511840820312,-5.39407205581665
1715093720696699600,11.27669970703125,0.7832225561141968,2.3124237060546875,-5.040912628173828
1715093720706648300,11.2866484375,1.19801926612854,1.7979097366333008,-4.296349048614502
1715093720716627700,11.296627685546875,1.5491714477539062,1.4142227172851562,-2.998171806335449
1715093720726606800,11.30660693359375,1.6518163681030273,0.8619041442871094,-1.2209508419036865
1715093720736555800,11.3165556640625,1.682668924331665,1.4100236892700195,2.1245646476745605
1715093720746535000,11.326534912109375,1.4814000129699707,2.1741838455200195,5.174810409545898
1715093720756514000,11.33651416015625,0.8587902188301086,1.557143211364746,6.63112735748291
1715093720766463000,11.346462890625,0.34465211629867554,0.49553871154785156,8.669364929199219
1715093720776442000,11.356442138671875,0.5523678660392761,-1.4407892227172852,10.572403907775879
1715093720786421500,11.36642138671875,0.12977749109268188,-3.6643590927124023,9.069711685180664
1715093720796370200,11.3763701171875,0.47753673791885376,-4.293420791625977,5.744209289550781
1715093720806349300,11.386349365234375,0.5754519104957581,-5.525424003601074,1.8481764793395996
1715093720816328700,11.39632861328125,-0.9927694797515869,-7.9436845779418945,-2.2681965827941895
1715093720826277400,11.40627734375,2.250554084777832,-8.819304466247559,-3.872969388961792
1715093720836256500,11.416256591796875,3.5644240379333496,-5.534401893615723,-3.4302005767822266
1715093720846236000,11.42623583984375,1.8382470607757568,-0.0758371353149414,-0.39949727058410645
1715093720856184600,11.4361845703125,-0.415096640586853,2.4220705032348633,2.2684409618377686
1715093720866163700,11.446163818359375,-3.68794846534729,0.25916576385498047,1.885401964187622
1715093720876143000,11.45614306640625,-3.556880474090576,-4.8379621505737305,3.466722011566162
1715093720886091800,11.466091796875,-5.094099044799805,-11.386799812316895,6.392677307128906
1715093720896071200,11.4760712890625,-8.614689826965332,-14.919075965881348,4.651689529418945
1715093720906050300,11.48605029296875,-9.028605461120605,-14.826566696166992,-2.535395622253418
1715093720916029400,11.496029541015625,-5.252450942993164,-8.322896003723145,-6.7282867431640625
1715093720925978400,11.505978271484375,-1.0106412172317505,-1.6478385925292969,-5.4195146560668945
1715093720935957500,11.51595751953125,2.627789258956909,0.6528749465942383,-2.67576265335083
1715093720945937000,11.52593701171875,3.9434194564819336,3.222254753112793,-0.601604700088501
1715093720955916000,11.535916015625,3.4553098678588867,4.7522735595703125,0.03255152702331543
1715093720965895200,11.545895263671875,2.3165528774261475,5.014391899108887,-1.7161931991577148
1715093720975844000,11.555843994140625,2.4605958461761475,5.128903388977051,-4.011061668395996
1715093720985823200,11.5658232421875,3.0324394702911377,4.0496368408203125,-5.477154731750488
1715093720995802400,11.57580224609375,3.0817084312438965,2.337630271911621,-6.708252906799316
1715093721005751300,11.585751220703125,2.7185192108154297,0.503514289855957,-7.827335834503174
1715093721015730400,11.59573046875,2.032158374786377,-1.224177360534668,-6.964179992675781
1715093721025709800,11.605709716796875,0.7375777959823608,-1.4932804107666016,-4.673872947692871
1715093721035689000,11.61568896484375,-0.9581156969070435,-0.8773345947265625,-3.1165332794189453
1715093721045637600,11.6256376953125,-1.2271132469177246,0.061476707458496094,-4.252004623413086
1715093721055617000,11.635616943359375,-0.2634361982345581,1.2756595611572266,-4.911317825317383
1715093721065596200,11.64559619140625,1.2610161304473877,2.1878833770751953,-5.285248756408691
1715093721075544800,11.655544921875,2.929703712463379,2.8835220336914062,-5.335299491882324
1715093721085524200,11.665524169921875,4.113188743591309,3.39473819732666,-4.868659973144531
1715093721095503400,11.67550341796875,3.9160094261169434,3.5554685592651367,-3.953526735305786
1715093721105452000,11.6854521484375,3.632143974304199,3.52408504486084,-1.8459137678146362
1715093721115431400,11.695431396484375,3.440460681915283,3.2750635147094727,0.8553099632263184
1715093721125410600,11.70541064453125,3.0921730995178223,2.9431304931640625,3.308108329772949
1715093721135359500,11.715359375,2.263526439666748,2.2758989334106445,4.318457126617432
1715093721145338600,11.725338623046875,0.9591399431228638,1.5890588760375977,5.155762195587158
1715093721155317800,11.73531787109375,-0.32156527042388916,1.0642366409301758,5.708562850952148
1715093721165266700,11.7452666015625,-1.2330918312072754,0.6856727600097656,5.604254245758057
1715093721175245800,11.755245849609375,-1.912854790687561,0.5026264190673828,5.123083591461182
1715093721185225200,11.76522509765625,-1.9410749673843384,0.4870615005493164,4.3290486335754395
1715093721195174000,11.775173828125,-1.6356960535049438,0.46906375885009766,3.7575740814208984
1715093721205153000,11.785153076171875,-1.3959476947784424,0.29563426971435547,3.1854350566864014
1715093721215132400,11.79513232421875,-1.3857229948043823,0.06185722351074219,2.8826189041137695
1715093721225111600,11.805111572265625,-1.1199569702148438,-0.07706546783447266,2.6631531715393066
1715093721235091000,11.815091064453124,-0.39096522331237793,-0.08497810363769531,2.504452705383301
1715093721245039600,11.82503955078125,1.1817502975463867,0.0522918701171875,2.1133832931518555
1715093721255018800,11.835018798828125,2.9835822582244873,0.21312904357910156,1.4904900789260864
1715093721264998100,11.844998046875,5.01106071472168,0.5072832107543945,0.904611349105835
1715093721274977300,11.854977294921875,7.749241828918457,1.150247573852539,0.7179166078567505
1715093721284926000,11.864926025390625,10.593907356262207,2.1214160919189453,0.5836977958679199
1715093721294905300,11.8749052734375,11.316390037536621,2.9809303283691406,0.4513721466064453
1715093721304884500,11.884884521484375,8.582366943359375,3.3070926666259766,-0.08624744415283203
1715093721314833200,11.894833251953125,4.923346519470215,2.0641183853149414,-0.04816710948944092
1715093721324812500,11.9048125,3.66623854637146,-0.2916221618652344,0.5930061340332031
1715093721334791700,11.914791748046875,4.372457504272461,-2.6670446395874023,1.5636457204818726
1715093721344740600,11.92474072265625,3.8966920375823975,-4.544308662414551,0.991547703742981
1715093721354719700,11.9347197265625,3.477416753768921,-5.1886091232299805,0.6582404375076294
1715093721364699000,11.944698974609375,2.8736572265625,-5.03214168548584,1.4901272058486938
1715093721374647800,11.954647705078125,1.0696465969085693,-3.635152816772461,3.6431078910827637
1715093721384627000,11.964626953125,-0.9981341361999512,-2.0993261337280273,4.38863468170166
1715093721394606000,11.974606201171875,-2.803530216217041,-0.7946290969848633,3.9855613708496094
1715093721404555000,11.984554931640625,-3.0644431114196777,0.09547805786132812,2.9134624004364014
1715093721414534100,11.9945341796875,-1.503818392753601,0.2276315689086914,-0.10061073303222656
1715093721424513500,12.004513427734375,-1.0414682626724243,-0.5324935913085938,-2.700491428375244
1715093721434462200,12.014462158203125,-0.833643913269043,-2.274374008178711,-5.3456950187683105
1715093721444441300,12.02444140625,-1.543229341506958,-4.471524238586426,-9.030742645263672
1715093721454420700,12.034420654296875,-3.148963689804077,-6.2581329345703125,-12.737032890319824
1715093721464369400,12.044369384765625,-4.4797043800354,-7.962270736694336,-14.420501708984375
1715093721474348500,12.0543486328125,-4.613988399505615,-9.828667640686035,-13.341193199157715
1715093721484328000,12.064327880859375,-4.075412750244141,-9.96961784362793,-9.478785514831543
1715093721494307000,12.07430712890625,-3.321625232696533,-9.454570770263672,-2.971682548522949
1715093721504286500,12.084286376953125,-4.040205001831055,-7.641597747802734,4.3034586906433105
1715093721514235100,12.094235107421875,-6.275715351104736,-5.200240135192871,7.947615146636963
1715093721524214300,12.10421435546875,-9.563386917114258,-1.4591541290283203,10.479351997375488
1715093721534193700,12.114193603515625,-10.533411026000977,0.5107936859130859,11.809883117675781
1715093721544172800,12.1241728515625,-8.680906295776367,3.1437511444091797,13.151573181152344
1715093721554121500,12.13412158203125,-6.420223712921143,4.777324676513672,10.048243522644043
1715093721564100900,12.144100830078125,-2.8386356830596924,6.260927200317383,7.043466091156006
1715093721574080000,12.154080078125,-1.0759258270263672,5.263515472412109,4.598745822906494
1715093721584029000,12.16402880859375,-0.3789863586425781,4.4030914306640625,2.3297863006591797
1715093721594008000,12.174008056640625,0.788013219833374,3.429471015930176,0.3907127380371094
1715093721603987200,12.1839873046875,2.0093679428100586,2.3397769927978516,-1.863149642944336
1715093721613936000,12.19393603515625,2.3772826194763184,2.4274139404296875,-4.200435638427734
1715093721623915300,12.203915283203125,1.8497883081436157,2.652655601501465,-5.493890762329102
1715093721633894700,12.213894775390624,1.8528242111206055,2.716437339782715,-6.549195766448975
1715093721643843300,12.22384326171875,1.5621849298477173,3.169536590576172,-7.217539310455322
1715093721653822500,12.233822509765625,1.0160061120986938,3.834080696105957,-7.360841274261475
1715093721663801900,12.2438017578125,0.12525177001953125,4.049768447875977,-6.9485626220703125
1715093721673750500,12.25375048828125,-0.6017413139343262,3.8272829055786133,-5.817048072814941
1715093721683729700,12.263729736328125,-1.3192522525787354,3.4284849166870117,-4.593883991241455
1715093721693709000,12.273708984375,-2.0218558311462402,2.738518714904785,-3.870337724685669
1715093721703657700,12.28365771484375,-2.2016024589538574,2.0347537994384766,-3.0511202812194824
1715093721713636900,12.293636962890625,-2.1028192043304443,1.6637001037597656,-2.1356561183929443
1715093721723616300,12.3036162109375,-0.8366861343383789,1.820791244506836,-2.2164101600646973
1715093721733565000,12.31356494140625,0.22187566757202148,1.5403375625610352,-2.2313313484191895
1715093721743544300,12.32354443359375,1.1519088745117188,1.2739009857177734,-1.0777583122253418
1715093721753523500,12.3335234375,1.751803994178772,0.8566751480102539,-0.37186431884765625
1715093721763472100,12.34347216796875,2.072139263153076,0.8247461318969727,1.1775307655334473
1715093721773451500,12.353451416015625,2.400144577026367,2.2611074447631836,4.979861259460449
1715093721783430700,12.3634306640625,2.2095947265625,2.759505271911621,7.053787708282471
1715093721793409800,12.373409912109375,1.857616901397705,1.6312532424926758,8.16878890991211
1715093721803389200,12.38338916015625,1.4511282444000244,-0.38947200775146484,10.313575744628906
1715093721813337900,12.393337890625,1.366267442703247,-3.1236371994018555,11.258126258850098
1715093721823317200,12.403317138671875,-0.8206137418746948,-5.296645164489746,8.361193656921387
1715093721833296400,12.41329638671875,-2.9222145080566406,-6.566904067993164,3.3668599128723145
1715093721843275500,12.423275634765625,-3.684644937515259,-8.972843170166016,-1.2724974155426025
1715093721853224400,12.433224365234375,0.7975724935531616,-9.65510368347168,-3.9931955337524414
1715093721863203600,12.44320361328125,3.7333984375,-6.57778263092041,-4.467467308044434
1715093721873183000,12.453182861328125,2.281367540359497,-1.044734001159668,-2.240485668182373
1715093721883131600,12.463131591796875,0.7872059345245361,0.03386497497558594,-0.24814510345458984
1715093721893110800,12.47311083984375,-0.6408042907714844,-3.0151844024658203,-3.1835532188415527
1715093721903090200,12.483090087890625,-3.817589282989502,-7.627351760864258,-1.3741121292114258
1715093721913038800,12.493038818359375,-6.062811374664307,-11.627265930175781,5.2314534187316895
1715093721923018000,12.50301806640625,-7.133014678955078,-11.550655364990234,1.7372150421142578
1715093721932997400,12.512997314453125,-6.24395751953125,-7.790543556213379,-5.166741371154785
1715093721942946000,12.522946044921875,-2.6569440364837646,-2.828693389892578,-5.442795753479004
1715093721952925200,12.53292529296875,-1.0944840908050537,0.36083412170410156,-3.010110855102539
1715093721962904600,12.542904541015625,0.7012544870376587,2.157271385192871,-0.6180093288421631
1715093721972853200,12.552853271484375,2.1161015033721924,3.8886337280273438,1.5196917057037354
1715093721982832600,12.56283251953125,1.8620063066482544,5.177609443664551,2.161977529525757
1715093721992811800,12.572811767578125,0.8084456920623779,5.659656524658203,0.34566807746887207
1715093722002760400,12.582760498046875,0.8924225568771362,5.303158760070801,-1.3034124374389648
1715093722012739800,12.59273974609375,0.9832147359848022,3.6294031143188477,-3.4406399726867676
1715093722022719000,12.602718994140625,0.7178734540939331,1.3861198425292969,-6.546510696411133
1715093722032667600,12.612667724609375,0.7771456241607666,-0.7961063385009766,-8.467329978942871
1715093722042647000,12.62264697265625,0.8976818323135376,-2.5254411697387695,-8.601186752319336
1715093722052626200,12.632626220703125,0.3636401295661926,-3.435051918029785,-7.555841445922852
1715093722062605600,12.64260546875,-0.23385828733444214,-2.437331199645996,-6.411555767059326
1715093722072554200,12.65255419921875,0.3145838975906372,0.5092506408691406,-5.202567100524902
1715093722082533400,12.662533447265625,1.0272858142852783,3.0162038803100586,-4.501314640045166
1715093722092512800,12.6725126953125,1.9274245500564575,4.114729881286621,-4.408982276916504
1715093722102492000,12.682491943359375,2.7775301933288574,4.675193786621094,-4.107969284057617
1715093722112471300,12.69247119140625,3.1639363765716553,4.719017028808594,-3.567185401916504
1715093722122420000,12.702419921875,3.0972328186035156,3.880154609680176,-1.7678476572036743
1715093722132399000,12.712399169921875,3.0732150077819824,3.0001277923583984,1.0976513624191284
1715093722142378500,12.72237841796875,2.4186153411865234,2.4653425216674805,3.268543243408203
1715093722152327200,12.7323271484375,1.2556384801864624,1.6173095703125,4.102626323699951
1715093722162306300,12.742306396484375,0.7829350233078003,0.4271869659423828,4.5484819412231445
1715093722172285700,12.75228564453125,0.3912198543548584,-0.39962196350097656,5.224694728851318
1715093722182234400,12.762234375,-0.16691160202026367,-0.48570823669433594,5.162092208862305
1715093722192213500,12.772213623046875,-0.3399466276168823,-0.23112106323242188,4.911649703979492
1715093722202193000,12.78219287109375,-0.44131457805633545,-0.18154335021972656,4.318887233734131
1715093722212141600,12.7921416015625,-0.7607297897338867,-0.08910274505615234,3.5809335708618164
1715093722222121000,12.802120849609375,-0.9459983110427856,0.08504772186279297,2.504599094390869
1715093722232100000,12.81210009765625,-0.8257218599319458,0.43000030517578125,2.233142614364624
1715093722242048800,12.822048828125,-0.3863372802734375,0.4580574035644531,2.095630645751953
