time,seconds_elapsed,z,y,x
1713358417404831700,0.067831787109375,10.77532958984375,4.575531005859375,-3.1850433349609375
1713358417414841300,0.07784130859375,9.472885131835938,4.16851806640625,-3.33587646484375
1713358417424851200,0.087851318359375,7.5766754150390625,4.3145599365234375,-2.97674560546875
1713358417434860800,0.09786083984375,6.4202880859375,4.42230224609375,-3.7285308837890625
1713358417444870700,0.10787060546875,6.0803070068359375,4.6976318359375,-4.7317047119140625
1713358417454868000,0.117867919921875,6.3867645263671875,4.067962646484375,-3.8123321533203125
1713358417464877600,0.127877685546875,6.8105316162109375,4.723968505859375,-3.790771484375
1713358417474887400,0.137887451171875,7.48809814453125,4.3887786865234375,-3.8650054931640625
1713358417484866600,0.147866455078125,7.6868133544921875,3.804595947265625,-3.7859954833984375
1713358417494846000,0.157845947265625,7.9022979736328125,4.3576507568359375,-3.7237396240234375
1713358417504825000,0.1678251953125,8.39788818359375,4.553985595703125,-3.402923583984375
1713358417514804500,0.177804443359375,8.407470703125,4.5467987060546875,-3.4436187744140625
1713358417524783600,0.18778369140625,8.244659423828125,4.4773712158203125,-3.3813629150390625
1713358417534763000,0.197762939453125,8.172836303710938,4.4629974365234375,-3.5992431640625
1713358417544742100,0.2077421875,8.156082153320312,4.5420074462890625,-3.5753021240234375
1713358417554721500,0.217721435546875,8.194381713867188,4.407928466796875,-3.8769683837890625
1713358417564700700,0.22770068359375,7.8496246337890625,4.0823211669921875,-4.1403350830078125
1713358417574679800,0.2376796875,8.6923828125,4.8748016357421875,-3.9176788330078125
1713358417584659200,0.2476591796875,9.195159912109375,5.0208587646484375,-4.080474853515625
1713358417594638300,0.257638427734375,8.436203002929688,4.4414520263671875,-3.826690673828125
1713358417604617700,0.26761767578125,7.7873687744140625,4.6377716064453125,-3.419677734375
1713358417614566400,0.27756640625,7.8304595947265625,5.061553955078125,-3.8817596435546875
1713358417624545500,0.287545654296875,7.5862579345703125,4.6353912353515625,-2.315948486328125
1713358417634525000,0.29752490234375,6.6980133056640625,4.00091552734375,-3.012664794921875
1713358417644473600,0.3074736328125,7.60540771484375,5.22674560546875,-4.3199005126953125
1713358417654452700,0.31745263671875,8.464935302734375,6.4477996826171875,-4.523406982421875
1713358417664432000,0.32743212890625,8.764205932617188,6.1221771240234375,-3.266448974609375
1713358417674380800,0.337380859375,7.9836883544921875,4.628204345703125,-2.845062255859375
1713358417684360200,0.347360107421875,7.5599212646484375,4.6377716064453125,-3.8290863037109375
1713358417694339300,0.35733935546875,7.2630462646484375,3.8333282470703125,-4.300750732421875
1713358417704288000,0.3672880859375,8.098617553710938,3.9913482666015625,-3.6614990234375
1713358417714267400,0.377267333984375,9.348388671875,4.2499237060546875,-3.350250244140625
1713358417724246500,0.38724658203125,9.93975830078125,3.9338836669921875,-3.24969482421875
1713358417734195200,0.3971953125,9.9493408203125,3.921905517578125,-3.0366058349609375
1713358417744174600,0.407174560546875,10.00201416015625,4.417510986328125,-2.39495849609375
1713358417754153700,0.41715380859375,9.82244873046875,4.3408966064453125,-2.5673370361328125
1713358417764102400,0.427102294921875,9.039535522460938,4.290618896484375,-2.63916015625
1713358417774081800,0.437081787109375,8.14410400390625,4.31695556640625,-2.63677978515625
1713358417784061000,0.44706103515625,7.2247314453125,4.3241424560546875,-2.7828216552734375
1713358417794009900,0.457009765625,6.5974578857421875,4.2666778564453125,-2.7780303955078125
1713358417803989000,0.466989013671875,6.341278076171875,4.479766845703125,-2.2249755859375
1713358417813968100,0.476968017578125,6.2095947265625,4.4821624755859375,-2.3446807861328125
1713358417823958300,0.486958251953125,7.0260162353515625,4.71917724609375,-2.071746826171875
1713358417833907200,0.4969072265625,8.045944213867188,4.09429931640625,-2.2225799560546875
1713358417843886300,0.50688623046875,10.00201416015625,4.4677886962890625,-2.378204345703125
1713358417853865700,0.51686572265625,11.563034057617188,4.66650390625,-1.8897857666015625
1713358417863844900,0.526844970703125,11.15362548828125,4.7718505859375,-0.8243560791015625
1713358417873793500,0.53679345703125,9.90863037109375,4.8676300048828125,-0.0893402099609375
1713358417883773000,0.54677294921875,7.193603515625,2.842132568359375,2.798065185546875
1713358417893752000,0.556751953125,5.57513427734375,1.0081634521484375,3.04705810546875
1713358417903700700,0.56670068359375,4.1098785400390625,1.0440826416015625,1.77813720703125
1713358417913680100,0.57668017578125,3.3772430419921875,1.2547760009765625,0.8419952392578125
1713358417923659300,0.5866591796875,3.786651611328125,1.7886810302734375,0.736663818359375
1713358417933612800,0.59661279296875,4.172119140625,2.7535400390625,1.4333648681640625
1713358417943592000,0.606592041015625,5.867218017578125,3.8069915771484375,0.039947509765625
1713358417953540900,0.616540771484375,7.188812255859375,3.773468017578125,-0.7764739990234375
1713358417963520000,0.62652001953125,6.87518310546875,3.23956298828125,-0.592132568359375
1713358417973499400,0.63649951171875,8.160858154296875,3.306610107421875,0.241058349609375
1713358417983448000,0.646447998046875,9.578231811523438,3.862060546875,2.2521820068359375
1713358417993427200,0.65642724609375,12.554229736328125,5.10943603515625,4.4333038330078125
1713358418003406600,0.666406494140625,16.74407958984375,5.69122314453125,4.51470947265625
1713358418013355300,0.676355224609375,13.823150634765625,3.5699615478515625,0.906646728515625
1713358418023334400,0.68633447265625,12.85589599609375,1.6258697509765625,-1.88739013671875
1713358418033313800,0.696313720703125,12.245376586914062,0.0504913330078125,-4.1139984130859375
1713358418043262500,0.706262451171875,12.151992797851562,-1.5057373046875,-5.95513916015625
1713358418053241600,0.71624169921875,13.22698974609375,-2.7315673828125,-6.7188873291015625
1713358418063221000,0.726220947265625,14.510284423828125,-4.1273956298828125,-6.2855377197265625
1713358418073169700,0.736169677734375,15.173477172851562,-5.9182586669921875,-5.6031951904296875
1713358418083148800,0.746148681640625,15.005889892578125,-7.565460205078125,-6.0628814697265625
1713358418093128200,0.756128173828125,16.349029541015625,-9.0474853515625,-7.17138671875
1713358418103076900,0.766076904296875,18.410446166992188,-10.036285400390625,-6.606353759765625
1713358418113056300,0.77605615234375,20.30426025390625,-9.890243530273438,-4.1307525634765625
1713358418123035400,0.786035400390625,16.10003662109375,-11.219024658203125,0.16204833984375
1713358418133014500,0.7960146484375,11.754562377929688,-12.423309326171875,2.4724578857421875
1713358418142963500,0.80596337890625,9.183197021484375,-10.857498168945312,2.56103515625
1713358418152942600,0.815942626953125,7.2845916748046875,-9.57659912109375,-0.0773773193359375
1713358418162922000,0.825921875,5.5009002685546875,-9.042694091796875,-0.7381744384765625
1713358418172870700,0.83587060546875,1.121917724609375,-7.76898193359375,0.5547027587890625
1713358418182849800,0.845849853515625,-1.46142578125,-9.06903076171875,1.37591552734375
1713358418192829200,0.8558291015625,-2.3616485595703125,-5.8224945068359375,4.4596405029296875
1713358418202777900,0.86577783203125,-4.782196044921875,-2.4370880126953125,10.880889892578125
1713358418212757000,0.875757080078125,-5.756622314453125,-0.69171142578125,14.749923706054688
1713358418222736400,0.885736328125,-7.7605743408203125,4.158935546875,25.703399658203125
1713358418232685000,0.89568505859375,-9.869873046875,9.7996826171875,40.38224792480469
1713358418242664200,0.905664306640625,-13.583282470703125,12.722991943359375,44.18902587890625
1713358418252643600,0.9156435546875,-6.7933197021484375,6.203582763671875,25.842254638671875
1713358418262592300,0.92559228515625,-0.3170013427734375,-4.1273956298828125,4.18670654296875
1713358418272551400,0.935551513671875,5.7906036376953125,-6.231903076171875,-0.4293212890625
1713358418282530600,0.945530517578125,10.471267700195312,-4.5511627197265625,-0.297637939453125
1713358418292479500,0.9554794921875,16.811111450195312,-1.8553009033203125,0.739044189453125
1713358418302458600,0.965458740234375,17.74725341796875,-0.521728515625,6.3414764404296875
1713358418312438000,0.97543798828125,15.013076782226562,1.9921875,13.682098388671875
1713358418322386700,0.98538671875,21.048858642578125,4.417510986328125,9.669418334960938
1713358418332365800,0.99536572265625,17.074478149414062,0.9554901123046875,7.749267578125
1713358418342345200,1.00534521484375,14.907730102539062,1.3409576416015625,10.5792236328125
1713358418352294000,1.0152939453125,10.430572509765625,-1.3118133544921875,8.651885986328125
1713358418362273000,1.02527294921875,9.561477661132812,-2.1042938232421875,3.2170562744140625
1713358418372252400,1.03525244140625,14.450439453125,-0.32061767578125,3.1907196044921875
1713358418382201000,1.045201171875,8.010025024414062,-1.287872314453125,7.4404144287109375
1713358418392180200,1.05518017578125,4.334930419921875,-0.69171142578125,10.9072265625
1713358418402159600,1.06515966796875,4.5863189697265625,-0.4091949462890625,10.813858032226562
1713358418412138800,1.075138671875,1.1721954345703125,1.182952880859375,16.215164184570312
1713358418422087700,1.085087646484375,0.468292236328125,-0.58636474609375,14.639785766601562
1713358418432066800,1.09506689453125,0.4275970458984375,-7.745025634765625,-10.5208740234375
1713358418442046000,1.1050458984375,1.1003570556640625,-3.55517578125,-6.4651031494140625
1713358418451995000,1.114994873046875,4.344512939453125,-2.2623138427734375,3.90179443359375
1713358418461974000,1.12497412109375,8.189590454101562,3.1892852783203125,15.906326293945312
1713358418471953400,1.134953369140625,1.081207275390625,0.0241546630859375,4.4596405029296875
1713358418481902000,1.144902099609375,-1.6529693603515625,-3.4091339111328125,-4.185821533203125
1713358418491881200,1.154881103515625,5.117828369140625,0.68255615234375,6.063751220703125
1713358418501860600,1.164860595703125,9.566268920898438,-0.7731170654296875,10.540908813476562
1713358418511809300,1.174809326171875,10.839981079101562,-0.9478912353515625,10.021377563476562
1713358418521788400,1.184788330078125,8.0794677734375,-1.077178955078125,9.822647094726562
1713358418531767800,1.194767822265625,3.81298828125,0.371307373046875,8.41485595703125
1713358418541716500,1.204716552734375,2.6158905029296875,0.13189697265625,7.5984344482421875
1713358418551695600,1.214695556640625,1.3852691650390625,2.8181915283203125,11.474655151367188
1713358418561675000,1.224675048828125,-1.222015380859375,3.866851806640625,12.2384033203125
1713358418571623700,1.234623779296875,-5.5243988037109375,2.6027069091796875,11.041305541992188
1713358418581603000,1.24460302734375,-5.5674896240234375,-1.024505615234375,12.066024780273438
1713358418591582200,1.254582275390625,-0.4965667724609375,-7.91741943359375,8.216140747070312
1713358418601531000,1.26453076171875,3.93988037109375,-6.1744384765625,13.962234497070312
1713358418611510300,1.27451025390625,2.23760986328125,-4.4123077392578125,18.192779541015625
1713358418621489400,1.284489501953125,5.951019287109375,-8.446533203125,11.987014770507812
1713358418631438000,1.29443798828125,0.5449066162109375,-1.3429412841796875,14.376419067382812
1713358418641417500,1.30441748046875,-4.4326324462890625,0.498199462890625,18.475296020507812
1713358418651396600,1.314396728515625,-6.5443267822265625,-7.0124053955078125,17.457763671875
1713358418661345300,1.32434521484375,-4.561920166015625,-16.146286010742188,16.837661743164062
1713358418671324700,1.33432470703125,3.130645751953125,-17.206924438476562,9.848983764648438
1713358418681303800,1.3443037109375,8.558303833007812,-14.6810302734375,4.7613067626953125
1713358418691252700,1.354252685546875,12.278900146484375,-14.0250244140625,5.2305755615234375
1713358418701237500,1.364237548828125,6.9422149658203125,-9.827987670898438,4.1436004638671875
1713358418711216600,1.374216552734375,-8.019149780273438,-7.16802978515625,3.4875946044921875
1713358418721196000,1.384196044921875,-15.845794677734375,-12.27008056640625,2.6591949462890625
1713358418731144700,1.394144775390625,-16.456314086914062,-19.912368774414062,-2.5074920654296875
1713358418741123800,1.404123779296875,-10.813186645507812,-26.426986694335938,-7.0349273681640625
1713358418751103200,1.414103271484375,-7.492431640625,-30.944854736328125,-8.921554565429688
1713358418761052000,1.424052001953125,1.6366729736328125,-26.340805053710938,0.9353790283203125
1713358418771031300,1.43403125,3.5568084716796875,-24.839630126953125,14.86962890625
1713358418781010400,1.444010498046875,-1.2890472412109375,-22.7303466796875,22.830352783203125
1713358418790974500,1.453974365234375,-5.9481658935546875,-19.167770385742188,24.053787231445312
1713358418800953900,1.463953857421875,-7.8611297607421875,-18.4830322265625,18.978073120117188
1713358418810933000,1.47393310546875,-7.0207672119140625,-21.291427612304688,9.920822143554688
1713358418820881700,1.483881591796875,0.3126678466796875,-23.187637329101562,1.562652587890625
1713358418830861000,1.493861083984375,5.359649658203125,-21.995315551757812,-0.95843505859375
1713358418840840200,1.503840087890625,7.35162353515625,-21.712799072265625,-2.7469024658203125
1713358418850788900,1.513788818359375,6.90869140625,-23.180450439453125,0.41583251953125
1713358418860768300,1.523768310546875,5.2303619384765625,-19.007354736328125,7.5122528076171875
1713358418870747400,1.533747314453125,-3.55157470703125,-9.97882080078125,16.461776733398438
1713358418880696000,1.543696044921875,1.8497467041015625,-15.097625732421875,7.8929290771484375
1713358418890675500,1.553675537109375,12.657180786132812,-17.558868408203125,7.7301177978515625
1713358418900654600,1.563654541015625,13.265304565429688,-19.44549560546875,5.3287353515625
1713358418910603500,1.573603515625,6.599853515625,-22.325714111328125,7.435638427734375
1713358418920582700,1.583582763671875,-2.766265869140625,-14.738494873046875,10.856948852539062
1713358418930531300,1.59353125,13.17193603515625,-13.931655883789062,3.6072998046875
1713358418940510700,1.6035107421875,1.55047607421875,-12.643569946289062,12.207275390625
1713358418950489900,1.61348974609375,0.0900115966796875,-7.7522125244140625,15.516067504882812
1713358418960438500,1.6234384765625,-3.5300140380859375,-7.5199737548828125,12.896804809570312
1713358418970418000,1.63341796875,-8.124496459960938,-9.100143432617188,7.69659423828125
1713358418980397000,1.64339697265625,10.054672241210938,-13.201416015625,-2.4548187255859375
1713358418990376400,1.65337646484375,15.795974731445312,-14.973129272460938,2.1612091064453125
1713358419000325000,1.6633251953125,5.33331298828125,-12.856658935546875,5.13958740234375
1713358419010288000,1.6732880859375,7.16009521484375,-11.482376098632812,6.4875335693359375
1713358419020267300,1.683267333984375,10.155242919921875,-9.863906860351562,11.556060791015625
1713358419030246700,1.69324658203125,-4.470947265625,-7.141693115234375,10.658233642578125
1713358419040195300,1.7031953125,-1.760711669921875,-3.6198272705078125,6.8801727294921875
1713358419050174500,1.713174560546875,-1.243560791015625,-5.609405517578125,-0.254547119140625
1713358419060153900,1.72315380859375,-7.889862060546875,-3.275054931640625,0.70074462890625
1713358419070102500,1.7331025390625,-7.7917022705078125,0.232452392578125,3.3774566650390625
1713358419080081700,1.74308154296875,-0.5205078125,-1.72601318359375,0.494842529296875
1713358419090067000,1.75306689453125,4.7443389892578125,-5.4705352783203125,-1.6671142578125
1713358419100015600,1.763015625,7.4689483642578125,-7.670806884765625,-2.631988525390625
1713358419109994800,1.772994873046875,11.953277587890625,-6.79931640625,-1.8466796875
1713358419119943700,1.782943603515625,6.046783447265625,-4.4817352294921875,-1.2194061279296875
1713358419129922800,1.7929228515625,6.0803070068359375,-0.612701416015625,0.463714599609375
1713358419139902200,1.802902099609375,0.2791595458984375,-1.034088134765625,-0.3742523193359375
1713358419149851000,1.812850830078125,-7.8970489501953125,0.2420196533203125,1.2059173583984375
1713358419159830000,1.822830078125,-3.4917144775390625,0.412017822265625,2.00079345703125
1713358419169809400,1.832809326171875,-2.0551910400390625,-1.8648681640625,2.915374755859375
1713358419179758000,1.842758056640625,-0.56121826171875,-2.5376434326171875,1.4429473876953125
1713358419189737200,1.8527373046875,-1.5572052001953125,-1.8672637939453125,1.1316986083984375
1713358419199716600,1.862716552734375,-3.621002197265625,-2.1569671630859375,1.1101531982421875
1713358419209665300,1.872665283203125,-2.1916656494140625,-4.0076904296875,0.430206298828125
1713358419219644400,1.88264453125,1.227264404296875,-3.42828369140625,0.6193389892578125
1713358419229623800,1.892623779296875,1.840179443359375,-5.3819580078125,0.4182281494140625
1713358419239572500,1.902572509765625,2.6829376220703125,-6.593414306640625,1.5028076171875
1713358419249551600,1.912551513671875,1.6175079345703125,-7.7665863037109375,3.4181671142578125
1713358419259531000,1.922531005859375,3.638214111328125,-7.618133544921875,6.2816314697265625
1713358419269510100,1.93251025390625,5.2662811279296875,-8.185562133789062,7.3757781982421875
1713358419279459000,1.942458984375,5.36444091796875,-8.566238403320312,6.7676544189453125
1713358419289438200,1.952438232421875,5.5727386474609375,-8.903823852539062,4.5769500732421875
1713358419299417300,1.962417236328125,4.2056427001953125,-10.467239379882812,2.07501220703125
1713358419309366300,1.9723662109375,4.1481781005859375,-9.272537231445312,2.249786376953125
1713358419319345400,1.982345458984375,2.0436859130859375,-9.033111572265625,4.3135986328125
1713358419329324800,1.99232470703125,-0.3385467529296875,-10.026702880859375,5.02227783203125
1713358419339273500,2.0022734375,0.5927886962890625,-11.211837768554688,2.8650970458984375
1713358419349252600,2.012252685546875,0.6382904052734375,-9.93572998046875,3.442108154296875
1713358419359232000,2.02223193359375,0.3892822265625,-10.079376220703125,1.55548095703125
1713358419369180700,2.0321806640625,2.4722442626953125,-13.598861694335938,0.5858154296875
1713358419379159800,2.042159912109375,2.5895538330078125,-13.4432373046875,-3.572906494140625
1713358419389139200,2.05213916015625,1.6486358642578125,-11.973190307617188,-4.1259613037109375
1713358419399087900,2.062087890625,-2.4191131591796875,-11.5111083984375,-4.808319091796875
1713358419409067000,2.07206689453125,-3.108642578125,-17.865325927734375,0.2075347900390625
1713358419419046400,2.08204638671875,-0.8126068115234375,-17.362548828125,1.6536407470703125
1713358419428995000,2.0919951171875,-0.6378326416015625,-14.388946533203125,1.191558837890625
1713358419438974500,2.101974365234375,0.1546478271484375,-11.487167358398438,-1.0733642578125
1713358419448953600,2.11195361328125,0.9303741455078125,-9.459274291992188,-1.164337158203125
1713358419458902300,2.12190234375,1.356536865234375,-9.013961791992188,5.6280059814453125
1713358419468881700,2.131881591796875,1.2368316650390625,-8.87030029296875,10.34698486328125
1713358419478860800,2.14186083984375,1.1410675048828125,-9.0283203125,13.610275268554688
1713358419488809500,2.1518095703125,-0.7335968017578125,-9.825592041015625,13.718017578125
1713358419498788900,2.161788818359375,-1.698455810546875,-11.518295288085938,9.506622314453125
1713358419508768000,2.17176806640625,-1.581146240234375,-12.753707885742188,5.364654541015625
1713358419518716700,2.181716552734375,-0.769500732421875,-13.048187255859375,2.43414306640625
1713358419528696000,2.191696044921875,-1.2411651611328125,-13.914886474609375,1.1532440185546875
1713358419538675200,2.20167529296875,-0.9993438720703125,-13.65631103515625,0.1213531494140625
1713358419548624100,2.2116240234375,-0.314605712890625,-11.3507080078125,-0.2832794189453125
1713358419558603300,2.221603271484375,-2.342498779296875,-12.327529907226562,0.3535919189453125
1713358419568582400,2.23158251953125,-4.43023681640625,-12.93804931640625,1.361541748046875
1713358419578561800,2.241561767578125,-4.8133087158203125,-12.669906616210938,1.7254638671875
1713358419588510500,2.251510498046875,-3.4965057373046875,-10.756942749023438,-2.009490966796875
1713358419598489900,2.26148974609375,-1.6745147705078125,-9.887847900390625,-0.4628448486328125
1713358419608469000,2.271468994140625,0.0924072265625,-10.175140380859375,-0.66156005859375
1713358419618417700,2.281417724609375,0.6670074462890625,-8.525543212890625,-0.233001708984375
1713358419628397000,2.29139697265625,-0.7431640625,-7.2446441650390625,0.578643798828125
1713358419638376200,2.301376220703125,-1.8061981201171875,-5.1593017578125,2.4509124755859375
1713358419648324900,2.311324951171875,-1.7152099609375,-4.953399658203125,1.2490234375
1713358419658304300,2.32130419921875,-0.2068634033203125,-6.064300537109375,-0.0582122802734375
1713358419668283400,2.331283447265625,0.5544891357421875,-6.9549407958984375,-0.2952423095703125
1713358419678232000,2.341232177734375,-0.6593780517578125,-6.80889892578125,-1.2816619873046875
1713358419688211500,2.35121142578125,-1.3513031005859375,-6.6197509765625,-2.114837646484375
1713358419698190600,2.361190673828125,-0.36248779296875,-6.3109130859375,-2.25848388671875
1713358419708139300,2.37113916015625,0.341400146484375,-7.4888458251953125,-2.7253570556640625
1713358419718118700,2.38111865234375,-0.3074188232421875,-8.4896240234375,-3.197021484375
1713358419728097800,2.391097900390625,-1.6649322509765625,-9.066635131835938,-2.7516937255859375
1713358419738046700,2.401046630859375,-3.1014556884765625,-9.804046630859375,-1.4444580078125
1713358419748025900,2.41102587890625,-3.0847015380859375,-10.436111450195312,-1.365447998046875
1713358419758005000,2.4210048828125,-0.261932373046875,-10.689895629882812,-2.052581787109375
1713358419767954000,2.430953857421875,0.0636749267578125,-10.642013549804688,-1.798797607421875
1713358419777933000,2.44093310546875,-0.103912353515625,-9.435333251953125,-0.254547119140625
1713358419787912400,2.450912353515625,-1.540435791015625,12.813980102539062,16.722747802734375
1713358419797861000,2.460861083984375,0.0421295166015625,6.4741363525390625,6.0086822509765625
1713358419807840300,2.47084033203125,-1.7583160400390625,0.1462554931640625,2.4724578857421875
1713358419817819600,2.480819580078125,1.440338134765625,-5.276611328125,-1.554595947265625
1713358419827768300,2.490768310546875,0.350982666015625,-10.828765869140625,-3.118011474609375
1713358419837747500,2.50074755859375,-2.4837493896484375,-25.840408325195312,-10.336532592773438
1713358419847726800,2.510726806640625,-0.7599334716796875,-38.32377624511719,-6.7572021484375
1713358419857706000,2.5207060546875,-4.1142120361328125,-31.229751586914062,4.519500732421875
1713358419867654700,2.530654541015625,-2.2850341796875,-14.360214233398438,3.3391571044921875
1713358419877634000,2.540634033203125,-0.7288055419921875,-10.100921630859375,-1.5426177978515625
1713358419887613200,2.55061328125,-2.1820831298828125,-10.81439208984375,0.4541473388671875
1713358419897562000,2.56056201171875,-2.2132110595703125,-10.788070678710938,0.377532958984375
1713358419907541200,2.570541259765625,-1.6314239501953125,-9.885452270507812,-0.9129486083984375
1713358419917520400,2.580520263671875,-0.5659942626953125,-9.24859619140625,-0.66156005859375
1713358419927469300,2.59046923828125,-0.822174072265625,-11.23577880859375,-0.5442352294921875
1713358419937448400,2.600448486328125,-0.376861572265625,-10.345138549804688,0.8156585693359375
1713358419947427800,2.610427734375,-0.09674072265625,-10.776092529296875,0.2697906494140625
1713358419957376500,2.62037646484375,-1.0615997314453125,-13.946014404296875,-0.4795989990234375
1713358419967355600,2.630355712890625,-1.2100372314453125,-13.239730834960938,0.123748779296875
1713358419977335000,2.6403349609375,-1.0472412109375,-11.71221923828125,-0.3000335693359375
1713358419987283700,2.65028369140625,-1.5691680908203125,-10.527099609375,-0.551422119140625
1713358419997262800,2.660262939453125,-1.899566650390625,-10.05303955078125,-0.8243560791015625
1713358420007242200,2.6702421875,-3.0487823486328125,-8.07781982421875,0.0950164794921875
1713358420017191000,2.68019091796875,-3.3193359375,-5.5232086181640625,1.5028076171875
1713358420027170000,2.690170166015625,-1.7104339599609375,-6.7753753662109375,1.7494049072265625
1713358420037149400,2.7001494140625,0.5999755859375,-8.195144653320312,0.442169189453125
1713358420047098000,2.71009814453125,0.741241455078125,-8.444137573242188,-0.043853759765625
1713358420057077500,2.720077392578125,0.087615966796875,-9.605331420898438,-0.60888671875
1713358420067056600,2.730056640625,-0.4223480224609375,-10.32598876953125,-1.0494232177734375
1713358420077000400,2.74000048828125,-0.862884521484375,-10.0626220703125,-1.0398406982421875
1713358420086979600,2.7499794921875,-1.0185089111328125,-10.177536010742188,-1.1356048583984375
1713358420096959000,2.759958984375,-1.1525726318359375,-10.11529541015625,-1.10687255859375
1713358420106907600,2.76990771484375,-1.1454010009765625,-9.835174560546875,-0.98956298828125
1713358420116887000,2.779886962890625,-1.0448455810546875,-9.61968994140625,-0.932098388671875
1713358420126866200,2.7898662109375,-0.980194091796875,-9.60772705078125,-0.9297027587890625
1713358420136845300,2.79984521484375,-0.9394989013671875,-9.710678100585938,-0.92730712890625
1713358420146794200,2.809794189453125,-0.853302001953125,-9.962066650390625,-0.963226318359375
1713358420156773400,2.8197734375,-0.6713409423828125,-10.122482299804688,-1.0111083984375
1713358420166752800,2.829752685546875,-0.472625732421875,-10.22064208984375,-1.0087127685546875
1713358420176701400,2.839701416015625,-0.5755767822265625,-10.349929809570312,-0.774078369140625
1713358420186680600,2.8496806640625,-0.589935302734375,-10.371475219726562,-0.6543731689453125
1713358420196660000,2.859659912109375,-0.5588226318359375,-10.2852783203125,-0.6400146484375
1713358420206608600,2.869608642578125,-0.6258544921875,-10.088958740234375,-0.695068359375
1713358420216587800,2.879587890625,-0.874847412109375,-9.775314331054688,-0.826751708984375
1713358420226567200,2.889567138671875,-1.1358184814453125,-9.5550537109375,-0.889007568359375
1713358420236515800,2.899515869140625,-1.1310272216796875,-9.509552001953125,-0.8746337890625
1713358420246495000,2.909494873046875,-1.054412841796875,-9.564620971679688,-0.7238006591796875
1713358420256474400,2.919474365234375,-1.032867431640625,-9.624481201171875,-0.551422119140625
1713358420266423000,2.929423095703125,-1.0520172119140625,-9.531112670898438,-0.27130126953125
1713358420276402400,2.93940234375,-1.0927276611328125,-9.387451171875,0.114166259765625
1713358420286381600,2.949381591796875,-1.1094818115234375,-9.30126953125,0.3511962890625
1713358420296330200,2.959330322265625,-1.1956787109375,-9.255767822265625,0.4373779296875
1713358420306309600,2.9693095703125,-1.2244110107421875,-9.2701416015625,0.516387939453125
1713358420316288800,2.979288818359375,-1.255523681640625,-9.30126953125,0.537933349609375
1713358420326237400,2.989237548828125,-1.29144287109375,-9.35394287109375,0.691162109375
1713358420336216800,2.999216796875,-1.296234130859375,-9.42816162109375,0.84918212890625
1713358420346196000,3.009196044921875,-1.26031494140625,-9.423370361328125,1.064666748046875
1713358420356144600,3.01914453125,-1.2315826416015625,-9.389846801757812,1.2011260986328125
1713358420366124000,3.0291240234375,-1.1884918212890625,-9.3563232421875,1.4214019775390625
1713358420376072700,3.03907275390625,-1.233978271484375,-9.40899658203125,1.5075836181640625
1713358420386052000,3.049052001953125,-1.3513031005859375,-9.4808349609375,1.541107177734375
1713358420396031200,3.05903125,-1.3034210205078125,-9.495193481445312,1.62969970703125
1713358420406010400,3.06901025390625,-1.3776397705078125,-9.432937622070312,1.677581787109375
1713358420415989800,3.07898974609375,-1.0831451416015625,-9.361114501953125,1.7757415771484375
1713358420425938400,3.0889384765625,-0.4893798828125,-9.145645141601562,2.268951416015625
1713358420435917600,3.09891748046875,0.7819366455078125,-8.736236572265625,3.042266845703125
1713358420445897000,3.10889697265625,0.482666015625,-8.908615112304688,2.5945587158203125
1713358420455845600,3.118845703125,-0.99456787109375,-9.234222412109375,0.9210052490234375
1713358420465825000,3.128824951171875,-1.6098785400390625,-9.466461181640625,-0.3838348388671875
1713358420475804200,3.13880419921875,-1.79901123046875,-9.586166381835938,0.2147216796875
1713358420485752800,3.1487529296875,-1.856475830078125,-9.559844970703125,0.2434539794921875
1713358420495732200,3.158732177734375,-1.4638214111328125,-9.509552001953125,0.0543060302734375
1713358420505711400,3.16871142578125,-1.38720703125,-9.7154541015625,-0.0390625
1713358420515660000,3.178659912109375,-1.4590301513671875,-9.808837890625,-0.01751708984375
1713358420525639400,3.188639404296875,-1.57635498046875,-9.818405151367188,-0.1444091796875
1713358420535618600,3.19861865234375,-1.4901580810546875,-9.748977661132812,-0.235382080078125
1713358420545567200,3.208567138671875,-1.4326934814453125,-9.638839721679688,-0.175537109375
1713358420555546600,3.218546630859375,-1.21722412109375,-9.40899658203125,-0.127655029296875
1713358420565525800,3.22852587890625,-0.9610443115234375,-9.171981811523438,0.0160064697265625
1713358420575474700,3.238474609375,-0.81500244140625,-9.104934692382812,0.27935791015625
1713358420585453800,3.248453857421875,-0.7718963623046875,-9.212677001953125,0.4493560791015625
1713358420595433000,3.258432861328125,-0.7766876220703125,-9.468856811523438,0.4182281494140625
1713358420605382000,3.2683818359375,-0.7000732421875,-9.574203491210938,0.2865447998046875
1713358420615361000,3.278361083984375,-0.587554931640625,-9.476043701171875,0.8132781982421875
1713358420625340400,3.28834033203125,-0.419952392578125,-9.40899658203125,1.5458984375
1713358420635289000,3.2982890625,-0.5109405517578125,-9.547866821289062,2.259368896484375
1713358420645268200,3.308268310546875,-0.64739990234375,-9.954879760742188,2.6041412353515625
1713358420655247600,3.31824755859375,-0.9107666015625,-10.311614990234375,2.987213134765625
1713358420665196300,3.3281962890625,-1.382415771484375,-10.680328369140625,3.28887939453125
1713358420675175400,3.338175537109375,-1.8516845703125,-11.147186279296875,3.200286865234375
1713358420685154800,3.34815478515625,-2.036041259765625,-11.494354248046875,2.417388916015625
1713358420695103500,3.358103515625,-2.1126556396484375,-11.496749877929688,1.1676177978515625
1713358420705082600,3.36808251953125,-1.7750701904296875,-11.283660888671875,0.41583251953125
1713358420715062000,3.37806201171875,-1.1334228515625,-10.972412109375,0.2003631591796875
1713358420725041200,3.388041259765625,-0.503753662109375,-10.483993530273438,0.0207977294921875
1713358420734990000,3.397989990234375,-0.135040283203125,-10.024307250976562,0.20513916015625
1713358420744969200,3.40796923828125,0.0062103271484375,-9.612503051757812,0.4996337890625
1713358420754948400,3.4179482421875,-0.0153350830078125,-9.346755981445312,0.7725677490234375
1713358420764897300,3.427897216796875,-0.0368804931640625,-9.236618041992188,1.07183837890625
1713358420774876400,3.43787646484375,0.061279296875,-9.26055908203125,1.519561767578125
1713358420784855800,3.447855712890625,0.1666259765625,-9.373092651367188,1.8236236572265625
1713358420794804500,3.457804443359375,-0.070404052734375,-9.547866821289062,2.0103759765625
1713358420804783600,3.46778369140625,-0.2068634033203125,-9.658004760742188,1.9912261962890625
1713358420814763000,3.477762939453125,-0.3720703125,-9.720245361328125,1.878692626953125
1713358420824711700,3.487711669921875,-0.4750213623046875,-9.677154541015625,1.7446136474609375
1713358420834690800,3.49769091796875,-0.7647247314453125,-9.65081787109375,1.667999267578125
1713358420844670200,3.507670166015625,-0.42474365234375,-9.37548828125,1.3208465576171875
1713358420854619000,3.517618896484375,-0.367279052734375,-9.136062622070312,1.2154998779296875
1713358420864598000,3.527597900390625,-0.2260284423828125,-8.906219482421875,1.107757568359375
1713358420874577400,3.537577392578125,0.087615966796875,-8.623703002929688,1.043121337890625
1713358420884526000,3.547526123046875,0.10198974609375,-8.374710083007812,1.0933990478515625
1713358420894505200,3.557505126953125,0.15704345703125,-8.190353393554688,0.9880523681640625
1713358420904484600,3.567484619140625,0.202545166015625,-8.1304931640625,1.05029296875
1713358420914433300,3.577433349609375,0.2073211669921875,-8.14007568359375,1.2537994384765625
1713358420924412700,3.58741259765625,0.2791595458984375,-8.106552124023438,1.213104248046875
1713358420934361300,3.597361328125,0.425201416015625,-8.037124633789062,1.234649658203125
1713358420944340500,3.607340576171875,0.5257568359375,-8.1304931640625,1.35675048828125
1713358420954320000,3.61731982421875,0.7125091552734375,-8.250213623046875,1.5602569580078125
1713358420964268500,3.6272685546875,0.741241455078125,-8.3292236328125,1.9074249267578125
1713358420974247700,3.63724755859375,0.7196807861328125,-8.432174682617188,2.1995086669921875
1713358420984227000,3.64722705078125,0.64306640625,-8.525543212890625,2.491607666015625
1713358420994206200,3.657206298828125,0.542510986328125,-8.621307373046875,2.83636474609375
1713358421004185600,3.667185546875,0.4443511962890625,-8.70989990234375,3.188323974609375
1713358421014134300,3.67713427734375,0.341400146484375,-8.800872802734375,3.58575439453125
1713358421024113400,3.687113525390625,0.29351806640625,-9.088180541992188,3.9209442138671875
1713358421034092800,3.6970927734375,0.34619140625,-9.698699951171875,4.1699371337890625
1713358421044041500,3.70704150390625,0.26239013671875,-10.472030639648438,4.30401611328125
1713358421054020600,3.7170205078125,-0.017730712890625,-11.128036499023438,4.26092529296875
1713358421064000000,3.727,-0.3912200927734375,-11.60687255859375,4.00714111328125
1713358421073948700,3.73694873046875,-0.67852783203125,-11.877426147460938,3.5785675048828125
1713358421083928000,3.746927978515625,-0.4702301025390625,-11.91094970703125,3.2912750244140625
1713358421093907200,3.7569072265625,0.056488037109375,-11.841506958007812,3.00396728515625
1713358421103855900,3.76685595703125,0.446746826171875,-11.800811767578125,3.020721435546875
1713358421113835300,3.776835205078125,0.8346099853515625,-11.503936767578125,3.7198333740234375
1713358421123814400,3.786814453125,0.9926300048828125,-11.147186279296875,4.7349700927734375
1713358421133763000,3.79676318359375,0.56884765625,-11.084945678710938,5.5106964111328125
1713358421143742500,3.806742431640625,-0.103912353515625,-11.9324951171875,5.8865814208984375
1713358421153721600,3.8167216796875,-0.1110992431640625,-13.572525024414062,5.3957672119140625
1713358421163670300,3.826670166015625,0.51617431640625,-15.279586791992188,4.1699371337890625
1713358421173649700,3.836649658203125,0.5113983154296875,-16.084030151367188,1.73504638671875
1713358421183628800,3.84662890625,-1.1884918212890625,-14.537384033203125,-1.7581024169921875
1713358421193577700,3.85657763671875,-1.633819580078125,-11.293243408203125,-3.594451904296875
1713358421203556900,3.866556884765625,-0.69049072265625,-8.7314453125,-2.2991943359375
1713358421213505500,3.876505615234375,-0.113494873046875,-7.448150634765625,-0.9177398681640625
1713358421223485000,3.88648486328125,-1.032867431640625,-7.0219879150390625,-0.6112823486328125
1713358421233464000,3.896464111328125,-1.4063720703125,-7.4122314453125,0.5139923095703125
1713358421243412700,3.906412841796875,-2.131805419921875,-8.348373413085938,1.8451690673828125
1713358421253392100,3.91639208984375,-3.271453857421875,-9.274932861328125,2.2737274169921875
1713358421263371300,3.926371337890625,-3.451019287109375,-9.885452270507812,1.9983978271484375
1713358421273350700,3.9363505859375,-3.3217315673828125,-10.11529541015625,1.1891632080078125
1713358421283299300,3.94629931640625,-3.2163848876953125,-9.804046630859375,0.559478759765625
1713358421293278500,3.956278564453125,-3.1804656982421875,-9.258163452148438,0.305694580078125
1713358421303257900,3.9662578125,-2.7303619384765625,-8.999588012695312,-0.2904510498046875
1713358421313237000,3.976237060546875,-2.1294097900390625,-9.040298461914062,-0.8171844482421875
1713358421323185700,3.986185546875,-1.6266326904296875,-8.958892822265625,-1.2457427978515625
1713358421333165000,3.9961650390625,-1.4111480712890625,-8.82720947265625,-1.712615966796875
1713358421343144200,4.006144287109375,-1.1956787109375,-8.693130493164062,-2.2249755859375
1713358421353092900,4.0160927734375,-0.927520751953125,-8.3411865234375,-2.4188995361328125
1713358421363072300,4.026072265625,-0.7623291015625,-8.041915893554688,-2.177093505859375
1713358421373051400,4.036051513671875,-0.769500732421875,-8.046707153320312,-1.6527557373046875
1713358421383000300,4.046000244140625,-0.937103271484375,-8.36273193359375,-1.111663818359375
1713358421392979500,4.0559794921875,-1.35369873046875,-8.891860961914062,-0.74774169921875
1713358421402958600,4.06595849609375,-1.6362152099609375,-9.473648071289062,-0.76690673828125
1713358421412907500,4.075907470703125,-1.449462890625,-9.940521240234375,-0.972808837890625
1713358421422886700,4.08588671875,-1.1142730712890625,-10.235000610351562,-0.972808837890625
1713358421432866000,4.095865966796875,-0.8509063720703125,-10.218246459960938,-0.56817626953125
1713358421442814700,4.105814697265625,-0.609100341796875,-9.976425170898438,0.0112152099609375
1713358421452793900,4.1157939453125,-0.384033203125,-9.578994750976562,0.5187835693359375
1713358421462773200,4.125773193359375,-0.3960113525390625,-9.109725952148438,0.8874969482421875
1713358421472722000,4.135721923828125,-0.810211181640625,-8.8056640625,1.038330078125
1713358421482701000,4.145701171875,-1.454254150390625,-8.685958862304688,1.045501708984375
1713358421492650000,4.15564990234375,-2.0073089599609375,-8.791305541992188,0.739044189453125
1713358421502629000,4.165629150390625,-2.289825439453125,-9.054656982421875,0.3918914794921875
1713358421512608300,4.175608154296875,-2.3879852294921875,-9.387451171875,0.0854339599609375
1713358421522557200,4.18555712890625,-2.2563018798828125,-9.658004760742188,-0.2569427490234375
1713358421532536300,4.195536376953125,-1.7654876708984375,-9.782501220703125,-0.254547119140625
1713358421542515700,4.205515625,-1.147796630859375,-9.667572021484375,-0.1444091796875
1713358421552494800,4.215494873046875,-0.61627197265625,-9.490402221679688,-0.0199127197265625
1713358421562443500,4.225443603515625,-0.36248779296875,-9.327606201171875,0.2913360595703125
1713358421572423000,4.2354228515625,-0.5396575927734375,-9.203094482421875,0.430206298828125
1713358421582402000,4.245402099609375,-1.1669464111328125,-9.1025390625,0.442169189453125
1713358421592381400,4.25538134765625,-1.7918243408203125,-9.025924682617188,0.34161376953125
1713358421602330000,4.265330078125,-2.0384368896484375,-8.891860961914062,0.3703460693359375
1713358421612309200,4.275309326171875,-2.1820831298828125,-8.841583251953125,0.473297119140625
1713358421622288600,4.28528857421875,-1.8181610107421875,-8.8367919921875,0.58343505859375
1713358421632237300,4.2952373046875,-1.3297576904296875,-8.961288452148438,0.770172119140625
1713358421642216400,4.305216552734375,-1.01611328125,-9.145645141601562,0.8419952392578125
1713358421652195800,4.31519580078125,-0.9251251220703125,-9.339569091796875,0.7510223388671875
1713358421662144500,4.32514453125,-0.9562530517578125,-9.437728881835938,0.8084869384765625
1713358421672123600,4.33512353515625,-0.7623291015625,-9.531112670898438,0.643280029296875
1713358421682103000,4.34510302734375,-0.582763671875,-9.674758911132812,0.4373779296875
1713358421692051700,4.3550517578125,-0.5109405517578125,-9.772918701171875,0.5092010498046875
1713358421702030800,4.36503076171875,-0.2523651123046875,-9.969253540039062,0.5499114990234375
1713358421712010200,4.37501025390625,-0.0440673828125,-10.081771850585938,1.138885498046875
1713358421721959000,4.384958984375,0.1259307861328125,-10.14642333984375,1.6057586669921875
1713358421731938300,4.394938232421875,0.4180145263671875,-10.065017700195312,1.8595428466796875
1713358421741917400,4.40491748046875,0.7196807861328125,-9.954879760742188,1.7972869873046875
1713358421751866000,4.4148662109375,0.975860595703125,-9.69390869140625,1.7230682373046875
1713358421761845500,4.424845458984375,1.1458587646484375,-9.298873901367188,1.7398223876953125
1713358421771794200,4.434794189453125,1.275146484375,-8.877487182617188,2.03192138671875
1713358421781773300,4.444773193359375,1.0357208251953125,-8.738632202148438,2.343170166015625
1713358421791752700,4.454752685546875,0.7077178955078125,-8.88946533203125,2.6376495361328125
1713358421801701400,4.464701416015625,0.3390045166015625,-9.308441162109375,2.6256866455078125
1713358421811680500,4.474680419921875,-0.0057525634765625,-9.909393310546875,2.1923370361328125
1713358421821660000,4.484659912109375,-0.235595703125,-10.536666870117188,1.8427734375
1713358421831639000,4.49463916015625,-0.0201263427734375,-10.797637939453125,1.138885498046875
1713358421841588000,4.504587890625,0.0157928466796875,-10.783279418945312,0.897064208984375
1713358421851567000,4.514567138671875,-0.070404052734375,-10.488784790039062,0.8036956787109375
1713358421861546200,4.524546142578125,-0.7862701416015625,-10.110504150390625,0.9521331787109375
1713358421871525600,4.534525634765625,-1.9761810302734375,-10.218246459960938,1.1316986083984375
1713358421881474300,4.544474365234375,-3.1230010986328125,-10.246978759765625,1.2107086181640625
1713358421891453700,4.55445361328125,-4.0136566162109375,-10.117691040039062,1.25140380859375
1713358421901432800,4.564432861328125,-3.9561920166015625,-9.942916870117188,0.9569244384765625
1713358421911381500,4.574381591796875,-2.8740081787109375,-9.557449340820312,-0.0151214599609375
1713358421921361000,4.58436083984375,-1.772674560546875,-9.08099365234375,-1.173919677734375
1713358421931340000,4.594340087890625,-1.4159393310546875,-8.786514282226562,-2.390167236328125
1713358421941288700,4.604288818359375,-1.401580810546875,-8.772140502929688,-3.54656982421875
1713358421951268000,4.61426806640625,-1.69366455078125,-8.8367919921875,-4.3917236328125
1713358421961247200,4.624247314453125,-2.045623779296875,-9.097763061523438,-4.9495697021484375
1713358421971196000,4.63419580078125,-2.3018035888671875,-9.74658203125,-4.9495697021484375
1713358421981175300,4.64417529296875,-2.3616485595703125,-10.69708251953125,-4.77239990234375
1713358421991154400,4.654154541015625,-2.316162109375,-11.59490966796875,-4.5712890625
1713358422001103400,4.664103271484375,-2.711212158203125,-12.016281127929688,-4.724517822265625
1713358422011082500,4.67408251953125,-2.9410552978515625,-12.126419067382812,-3.6854400634765625
1713358422021061600,4.6840615234375,-2.90753173828125,-12.255706787109375,-1.89697265625
1713358422031010600,4.694010498046875,-2.912322998046875,-12.538223266601562,-0.1683502197265625
1713358422040989700,4.70398974609375,-3.410308837890625,-12.564559936523438,1.0215606689453125
1713358422050938400,4.7139384765625,-4.265045166015625,-12.5885009765625,1.35675048828125
1713358422060917800,4.723917724609375,-5.2945556640625,-12.70343017578125,1.86431884765625
1713358422070897000,4.73389697265625,-5.9745025634765625,-12.705825805664062,2.34796142578125
1713358422080845600,4.743845458984375,-6.4461517333984375,-12.09051513671875,2.6328582763671875
1713358422090825000,4.753824951171875,-5.76141357421875,-11.4249267578125,2.5514678955078125
1713358422100804000,4.76380419921875,-3.7550811767578125,-10.953262329101562,1.9169921875
1713358422110753000,4.7737529296875,-1.69366455078125,-10.38104248046875,1.6009674072265625
1713358422120732200,4.783732177734375,0.4395599365234375,-9.844741821289062,1.203521728515625
1713358422130711300,4.793711181640625,1.682159423828125,-9.160003662109375,0.9042510986328125
1713358422140690700,4.803690673828125,1.7061004638671875,-8.946914672851562,1.19873046875
1713358422150669800,4.813669921875,0.990234375,-8.527938842773438,1.01678466796875
1713358422160618500,4.823618408203125,0.9926300048828125,-8.120925903320312,0.5403289794921875
1713358422170598000,4.833597900390625,1.1362762451171875,-7.8000946044921875,0.3823089599609375
1713358422180577000,4.843576904296875,1.2368316650390625,-7.510406494140625,0.1811981201171875
1713358422190526000,4.85352587890625,1.002197265625,-7.330841064453125,-0.2042694091796875
1713358422200505000,4.863505126953125,0.705322265625,-7.24224853515625,-0.51312255859375
1713358422210484200,4.873484130859375,0.6239166259765625,-7.1225433349609375,-0.5849456787109375
1713358422220433200,4.88343310546875,0.520965576171875,-7.172821044921875,-0.4317169189453125
1713358422230412300,4.893412353515625,0.1690216064453125,-7.4744873046875,-0.40777587890625
1713358422240391700,4.9033916015625,-0.2427825927734375,-7.6947479248046875,-0.486785888671875
1713358422250340400,4.91334033203125,-0.4798126220703125,-7.76898193359375,-0.520294189453125
1713358422260319500,4.923319580078125,-0.482208251953125,-7.8479766845703125,-0.5753631591796875
1713358422270299000,4.933298828125,-0.3002471923828125,-7.802490234375,-0.5155181884765625
1713358422280247600,4.94324755859375,0.003814697265625,-7.7139129638671875,-0.4628448486328125
1713358422290226700,4.953226806640625,0.1426849365234375,-7.6779937744140625,-0.381439208984375
1713358422300175600,4.963175537109375,0.3318328857421875,-7.7043304443359375,-0.40777587890625
1713358422310154800,4.97315478515625,0.90643310546875,-7.8216400146484375,-0.4628448486328125
1713358422320134000,4.9831337890625,0.841796875,-7.986846923828125,-0.086944580078125
1713358422330082800,4.993082763671875,1.059661865234375,-8.2550048828125,0.5092010498046875
1713358422340062000,5.00306201171875,1.121917724609375,-8.654830932617188,1.19873046875
1713358422350041300,5.013041259765625,1.248809814453125,-8.97564697265625,2.027130126953125
1713358422359990000,5.022989990234375,1.375701904296875,-9.246200561523438,2.934539794921875
1713358422369969200,5.03296923828125,1.3517608642578125,-9.473648071289062,3.7509613037109375
1713358422379948500,5.042948486328125,1.1626129150390625,-9.708282470703125,4.34710693359375
1713358422389897200,5.052897216796875,0.880096435546875,-9.899810791015625,4.90496826171875
1713358422399876400,5.06287646484375,0.7484130859375,-10.163177490234375,5.2209930419921875
1713358422409855700,5.072855712890625,0.7723541259765625,-10.618072509765625,5.3287353515625
1713358422419835000,5.0828349609375,0.6239166259765625,-11.171142578125,4.8834075927734375
1713358422429783600,5.092783447265625,0.4850616455078125,-11.779266357421875,3.643218994140625
1713358422439763000,5.102762939453125,0.403656005859375,-12.219802856445312,2.350341796875
1713358422449742000,5.1127421875,0.6861724853515625,-12.248519897460938,1.05987548828125
1713358422459721500,5.122721435546875,1.02374267578125,-12.260498046875,-0.0390625
1713358422469670100,5.132670166015625,1.641448974609375,-12.210220336914062,-0.38861083984375
1713358422479649300,5.142649169921875,2.8696746826171875,-11.733779907226562,0.22430419921875
1713358422489628700,5.152628662109375,3.954254150390625,-10.862289428710938,1.277740478515625
1713358422499577300,5.162577392578125,4.1793060302734375,-10.510330200195312,3.1069183349609375
1713358422509556700,5.172556640625,3.52569580078125,-10.847915649414062,5.470001220703125
1713358422519535900,5.182535888671875,2.8409423828125,-12.301193237304688,7.2273406982421875
1713358422529484500,5.192484619140625,1.76116943359375,-13.91009521484375,7.320709228515625
1713358422539464000,5.2024638671875,-1.1669464111328125,-15.202972412109375,3.8515167236328125
1713358422549443000,5.212443115234375,-4.9449920654296875,-16.263595581054688,-1.4420623779296875
1713358422559391700,5.222391845703125,-7.26019287109375,-16.704132080078125,-5.1219482421875
1713358422569371100,5.23237109375,-7.0686492919921875,-15.380142211914062,-5.6462860107421875
1713358422579319800,5.24231982421875,-5.56988525390625,-11.96600341796875,-3.690216064453125
1713358422589299000,5.252298828125,-4.243499755859375,-10.045867919921875,-1.999908447265625
1713358422599278300,5.2622783203125,-2.6154327392578125,-9.658004760742188,-0.572967529296875
1713358422609227000,5.27222705078125,-1.57635498046875,-9.504776000976562,1.3902740478515625
1713358422619206100,5.2822060546875,-0.7982330322265625,-8.90142822265625,2.845947265625
1713358422629185500,5.292185546875,-0.5013580322265625,-8.0443115234375,2.1444549560546875
1713358422639134200,5.30213427734375,-0.388824462890625,-6.9956512451171875,0.609771728515625
1713358422649113600,5.312113525390625,0.0804290771484375,-6.55511474609375,-0.5226898193359375
1713358422659092700,5.3220927734375,0.6981353759765625,-7.079437255859375,-1.7317657470703125
1713358422669041400,5.33204150390625,0.583221435546875,-8.623703002929688,-3.2401123046875
1713358422679020800,5.342020751953125,-0.0464630126953125,-10.26373291015625,-5.179412841796875
1713358422689000000,5.352,-1.0831451416015625,-10.661163330078125,-6.1131591796875
1713358422698979300,5.361979248046875,-1.84210205078125,-9.995574951171875,-5.5936126708984375
1713358422708928000,5.371927978515625,-2.1653289794921875,-9.033111572265625,-4.291168212890625
1713358422718907100,5.3819072265625,-2.141387939453125,-8.187957763671875,-2.526641845703125
1713358422728886500,5.391886474609375,-1.4829864501953125,-7.5989837646484375,-1.1236419677734375
1713358422738835200,5.401835205078125,-0.534881591796875,-7.4290008544921875,-1.027862548828125
1713358422748814300,5.411814453125,0.3916778564453125,-7.7043304443359375,-1.152374267578125
1713358422758793700,5.421793701171875,0.9136199951171875,-8.14007568359375,-0.91534423828125
1713358422768742400,5.431742431640625,1.25360107421875,-8.185562133789062,-0.75732421875
1713358422778721500,5.441721435546875,1.260772705078125,-8.0562744140625,-0.5226898193359375
1713358422788701000,5.451700927734375,0.669403076171875,-8.149658203125,-0.1300506591796875
1713358422798649600,5.461649658203125,-0.5707855224609375,-8.369918823242188,0.1692352294921875
1713358422808629000,5.47162890625,-1.8804168701171875,-8.6260986328125,0.4230194091796875
1713358422818608000,5.481608154296875,-2.8572540283203125,-9.0474853515625,0.791717529296875
1713358422828556800,5.491556884765625,-3.034423828125,-9.538284301757812,1.1747894287109375
1713358422838536200,5.5015361328125,-2.69683837890625,-10.017135620117188,1.186767578125
1713358422848515300,5.511515380859375,-2.407135009765625,-10.366683959960938,0.9784698486328125
1713358422858464000,5.521464111328125,-2.174896240234375,-10.304428100585938,0.5403289794921875
1713358422868443400,5.531443359375,-1.6793060302734375,-9.765731811523438,0.358367919921875
1713358422878422500,5.541422607421875,-0.96343994140625,-9.0283203125,0.284149169921875
1713358422888371200,5.55137109375,-0.4534759521484375,-8.307662963867188,0.1500701904296875
1713358422898350600,5.5613505859375,-0.441497802734375,-7.701934814453125,0.188385009765625
1713358422908329700,5.571329833984375,-0.7455596923828125,-7.431396484375,0.3272552490234375
1713358422918278700,5.581278564453125,-0.9969635009765625,-7.4290008544921875,0.2434539794921875
1713358422928257800,5.5912578125,-1.3584747314453125,-7.6109619140625,0.3918914794921875
1713358422938237000,5.60123681640625,-1.7056427001953125,-8.082611083984375,0.7510223388671875
1713358422948185900,5.611185791015625,-2.00970458984375,-8.8367919921875,1.0407257080078125
1713358422958165000,5.6211650390625,-2.184478759765625,-9.739395141601562,1.330413818359375
1713358422968144400,5.631144287109375,-2.1389923095703125,-10.179931640625,1.5028076171875
1713358422978093000,5.641093017578125,-1.9282989501953125,-10.335556030273438,1.404632568359375
1713358422988072200,5.651072265625,-1.4303131103515625,-10.318801879882812,1.4597015380859375
1713358422998051600,5.661051513671875,-1.075958251953125,-10.182327270507812,1.287322998046875
1713358423008030700,5.67103076171875,-0.5923309326171875,-10.151199340820312,0.980865478515625
1713358423017979400,5.6809794921875,-0.218841552734375,-10.15838623046875,0.9425506591796875
1713358423027958800,5.690958740234375,0.3749237060546875,-10.266128540039062,0.664825439453125
1713358423037938000,5.70093798828125,1.028533935546875,-10.287673950195312,0.6768035888671875
1713358423047886600,5.710886474609375,1.7180633544921875,-10.1368408203125,0.4804840087890625
1713358423057866000,5.720865966796875,1.9167938232421875,-9.868682861328125,0.7246856689453125
1713358423067845000,5.73084521484375,1.8138427734375,-9.476043701171875,0.8515777587890625
1713358423077793800,5.740793701171875,1.4163970947265625,-9.3563232421875,1.2537994384765625
1713358423087773200,5.750773193359375,0.8968505859375,-9.380279541015625,1.921783447265625
1713358423097752300,5.76075244140625,0.8729095458984375,-9.586166381835938,1.837982177734375
1713358423107701200,5.770701171875,0.9447479248046875,-9.643630981445312,1.603363037109375
1713358423117680400,5.780680419921875,0.62152099609375,-9.89263916015625,1.3232421875
1713358423127659500,5.790659423828125,0.7029266357421875,-9.871078491210938,1.002410888671875
1713358423137608400,5.8006083984375,-0.0249176025390625,-10.038681030273438,0.77496337890625
1713358423147587600,5.810587646484375,-1.3297576904296875,-10.426544189453125,0.7079315185546875
1713358423157567000,5.82056689453125,-2.6250152587890625,-10.835952758789062,0.6600494384765625
1713358423167515600,5.830515625,-3.589874267578125,-11.089736938476562,0.91143798828125
1713358423177494800,5.840494873046875,-4.0399932861328125,-11.381820678710938,1.038330078125
1713358423187474200,5.85047412109375,-3.53240966796875,-11.56378173828125,0.652862548828125
1713358423197422800,5.8604228515625,-2.3401031494140625,-11.283660888671875,-0.235382080078125
1713358423207402000,5.870402099609375,-1.6122589111328125,-10.879043579101562,-1.6838836669921875
1713358423217381400,5.88038134765625,-1.3943939208984375,-10.6444091796875,-3.4699554443359375
1713358423227330000,5.890330078125,-1.5045318603515625,-10.515121459960938,-5.040557861328125
1713358423237309200,5.90030908203125,-1.84210205078125,-10.450485229492188,-6.383697509765625
1713358423247288600,5.91028857421875,-2.29461669921875,-10.251754760742188,-7.324615478515625
1713358423257237200,5.9202373046875,-3.008087158203125,-10.012344360351562,-7.9710540771484375
1713358423267216600,5.930216552734375,-3.683258056640625,-9.847137451171875,-7.9638671875
1713358423277195800,5.94019580078125,-4.0830841064453125,-9.9261474609375,-8.052459716796875
1713358423287175000,5.9501748046875,-4.0950469970703125,-10.304428100585938,-6.3693389892578125
1713358423297123800,5.960123779296875,-3.5228424072265625,-11.094528198242188,-3.2377166748046875
1713358423307103000,5.97010302734375,-2.9218902587890625,-11.977981567382812,-0.213836669921875
1713358423317082400,5.980082275390625,-2.390380859375,-12.54541015625,2.43414306640625
1713358423327031000,5.990031005859375,-2.225189208984375,-12.9356689453125,4.0214996337890625
1713358423337010200,6.00001025390625,-3.367218017578125,-12.952423095703125,4.3806304931640625
1713358423346989600,6.009989501953125,-5.1820220947265625,-13.218185424804688,3.87066650390625
1713358423356938200,6.019938232421875,-5.6800079345703125,-12.878204345703125,5.2353668212890625
1713358423366917400,6.02991748046875,-6.501220703125,-11.281265258789062,4.9624176025390625
1713358423376896800,6.039896728515625,-6.4174346923828125,-10.385833740234375,2.872283935546875
1713358423386845400,6.049845458984375,-4.784576416015625,-9.849533081054688,1.2274627685546875
1713358423396824600,6.059824462890625,-2.289825439453125,-9.519134521484375,0.3440093994140625
1713358423406804000,6.069803955078125,0.8178558349609375,-9.430557250976562,-0.4365081787109375
1713358423416752600,6.079752685546875,3.4083709716796875,-9.250991821289062,-1.7174072265625
1713358423426732000,6.08973193359375,3.7890472412109375,-8.992416381835938,-1.85626220703125
1713358423436711200,6.099711181640625,3.2216339111328125,-8.614120483398438,-1.777252197265625
1713358423446659800,6.109659912109375,2.17535400390625,-8.10894775390625,-1.152374267578125
1713358423456639200,6.11963916015625,1.1578216552734375,-7.8144683837890625,-0.5155181884765625
1713358423466618400,6.129618408203125,0.688568115234375,-7.66363525390625,-0.1156768798828125
1713358423476567000,6.139567138671875,0.5233612060546875,-7.5080108642578125,-0.233001708984375
1713358423486546400,6.14954638671875,0.616729736328125,-7.3188629150390625,-0.5370635986328125
1713358423496495000,6.1594951171875,0.310272216796875,-7.172821044921875,0.1524658203125
1713358423506474200,6.16947412109375,0.1474761962890625,-7.141693115234375,0.8300323486328125
1713358423516453600,6.17945361328125,-0.060821533203125,-7.256622314453125,0.885101318359375
1713358423526402300,6.18940234375,-0.3409423828125,-7.443359375,0.91143798828125
1713358423536381400,6.19938134765625,-0.6665496826171875,-7.6660308837890625,0.7606048583984375
1713358423546360800,6.20936083984375,-0.747955322265625,-7.7474212646484375,0.736663818359375
1713358423556340000,6.219340087890625,-0.5588226318359375,-7.7306671142578125,0.695953369140625
1713358423566319400,6.2293193359375,-0.13983154296875,-7.6109619140625,0.56427001953125
1713358423576268000,6.23926806640625,0.319854736328125,-7.5606842041015625,0.3128814697265625
1713358423586247200,6.2492470703125,0.7196807861328125,-7.52716064453125,0.188385009765625
1713358423596226600,6.2592265625,1.0189666748046875,-7.575042724609375,0.2003631591796875
1713358423606175200,6.26917529296875,1.260772705078125,-7.742645263671875,0.4349822998046875
1713358423616154600,6.279154541015625,1.4379425048828125,-7.96051025390625,0.791717529296875
1713358423626133800,6.2891337890625,1.555267333984375,-8.123321533203125,1.4118194580078125
1713358423636082400,6.29908251953125,1.7013092041015625,-8.250213623046875,2.2138824462890625
1713358423646061800,6.309061767578125,1.7587738037109375,-8.42498779296875,3.0183258056640625
1713358423656041000,6.319041015625,1.703704833984375,-8.757781982421875,3.8586883544921875
1713358423665989600,6.32898974609375,1.6222991943359375,-9.243804931640625,4.5697784423828125
1713358423675969000,6.338968994140625,1.493011474609375,-9.705886840820312,5.1204376220703125
1713358423685948200,6.3489482421875,0.9351654052734375,-10.218246459960938,5.27606201171875
1713358423695896800,6.358896728515625,0.087615966796875,-10.831161499023438,4.8139801025390625
1713358423705876200,6.368876220703125,-0.85809326171875,-11.515899658203125,3.5929412841796875
1713358423715855400,6.37885546875,-1.6050872802734375,-12.07135009765625,2.0510711669921875
1713358423725804300,6.38880419921875,-1.698455810546875,-12.351470947265625,1.16522216796875
1713358423735783400,6.398783447265625,-0.9706268310546875,-12.349075317382812,0.468505859375
1713358423745762600,6.408762451171875,0.04931640625,-12.011505126953125,0.1381072998046875
1713358423755711500,6.41871142578125,0.7292633056640625,-11.630828857421875,0.578643798828125
1713358423765690600,6.428690673828125,1.196136474609375,-11.630828857421875,2.6855316162109375
1713358423775639300,6.438639404296875,2.3884429931640625,-12.487945556640625,5.249725341796875
1713358423785618700,6.44861865234375,3.066009521484375,-14.453582763671875,6.221771240234375
1713358423795597800,6.458597900390625,0.8441925048828125,-17.314651489257812,4.30401611328125
1713358423805546500,6.46854638671875,-2.0432281494140625,-19.141433715820312,1.4692840576171875
1713358423815526000,6.47852587890625,-2.9578094482421875,-18.638656616210938,-1.7221832275390625
1713358423825505000,6.488505126953125,-1.36566162109375,-16.249237060546875,-4.3151092529296875
1713358423835484400,6.498484375,0.8729095458984375,-12.382598876953125,-6.0485076904296875
1713358423845433000,6.50843310546875,1.418792724609375,-7.754608154296875,-5.74444580078125
1713358423855412200,6.518412109375,0.595184326171875,-5.4106903076171875,-1.60247802734375
1713358423865391600,6.5283916015625,-0.309814453125,-5.6548919677734375,0.70074462890625
1713358423875370800,6.538370849609375,-1.4853668212890625,-7.584625244140625,2.1588134765625
1713358423885319400,6.5483193359375,-2.680084228515625,-10.46484375,3.8993988037109375
1713358423895298800,6.558298828125,-2.9913330078125,-12.744125366210938,4.138824462890625
1713358423905278000,6.56827783203125,-3.9154815673828125,-13.266067504882812,2.6999053955078125
1713358423915227000,6.578226806640625,-4.964141845703125,-12.47119140625,1.6129302978515625
1713358423925206000,6.5882060546875,-4.2147674560546875,-11.18310546875,0.241058349609375
1713358423935185200,6.59818505859375,-2.0121002197265625,-9.626876831054688,-1.4564361572265625
1713358423945134000,6.608134033203125,-0.5444488525390625,-8.386672973632812,-2.526641845703125
1713358423955113200,6.61811328125,0.23126220703125,-7.733062744140625,-3.7021942138671875
1713358423965092600,6.628092529296875,0.6071624755859375,-7.57025146484375,-4.8059234619140625
1713358423975041300,6.638041259765625,0.995025634765625,-7.5343475341796875,-5.3709564208984375
1713358423985020400,6.6480205078125,1.208099365234375,-7.615753173828125,-5.6175537109375
1713358423994999800,6.657999755859375,1.2990875244140625,-7.828826904296875,-5.13153076171875
1713358424004948500,6.667948486328125,0.9830474853515625,-8.211898803710938,-3.5968475341796875
1713358424014927600,6.677927734375,0.26239013671875,-8.374710083007812,-1.7150115966796875
1713358424024907000,6.687906982421875,-0.556427001953125,-8.427383422851562,-0.5226898193359375
1713358424034855700,6.697855712890625,-0.9873809814453125,-8.664413452148438,0.2003631591796875
1713358424044834800,6.707834716796875,-1.3584747314453125,-9.052261352539062,0.73187255859375
1713358424054814200,6.717814208984375,-1.7774658203125,-9.447311401367188,0.7941131591796875
1713358424064763000,6.727762939453125,-1.93548583984375,-9.720245361328125,0.2434539794921875
1713358424074742300,6.7377421875,-1.4805908203125,-9.636459350585938,-0.4628448486328125
1713358424084691000,6.74769091796875,-0.577972412109375,-9.298873901367188,-0.88421630859375
1713358424094670000,6.757670166015625,0.1115570068359375,-8.750595092773438,-1.1236419677734375
1713358424104649500,6.7676494140625,0.2647857666015625,-8.31005859375,-1.1475830078125
1713358424114628600,6.777628662109375,-0.0249176025390625,-8.032333374023438,-0.6328277587890625
1713358424124577300,6.787577392578125,-0.4869842529296875,-7.9078369140625,-0.0366668701171875
1713358424134556700,6.797556640625,-0.958648681640625,-8.03472900390625,0.2123260498046875
1713358424144535800,6.807535888671875,-1.4303131103515625,-8.252609252929688,0.245849609375
1713358424154515200,6.81751513671875,-1.75592041015625,-8.621307373046875,0.377532958984375
1713358424164463900,6.8274638671875,-1.8325347900390625,-9.0283203125,0.473297119140625
1713358424174443000,6.837443115234375,-1.5667724609375,-9.286895751953125,0.5451202392578125
1713358424184422400,6.84742236328125,-1.2100372314453125,-9.511947631835938,0.4924468994140625
1713358424194371000,6.85737109375,-0.9035797119140625,-9.543075561523438,0.4804840087890625
1713358424204350200,6.86735009765625,-0.8604888916015625,-9.42816162109375,0.5139923095703125
1713358424214329600,6.87732958984375,-1.03765869140625,-9.18634033203125,0.705535888671875
1713358424224278300,6.8872783203125,-1.3153839111328125,-9.033111572265625,0.8036956787109375
1713358424234257700,6.897257568359375,-1.6529693603515625,-8.966079711914062,0.9784698486328125
1713358424244236800,6.90723681640625,-1.856475830078125,-9.066635131835938,1.0526885986328125
1713358424254185500,6.917185546875,-1.9378814697265625,-9.294082641601562,1.16522216796875
1713358424264164900,6.927164794921875,-1.7535247802734375,-9.76812744140625,1.038330078125
1713358424274144000,6.93714404296875,-1.2363739013671875,-10.160781860351562,1.1747894287109375
1713358424284092700,6.9470927734375,-0.6067047119140625,-10.440902709960938,1.19873046875
1713358424294072000,6.957072021484375,-0.39361572265625,-10.5701904296875,1.38787841796875
1713358424304051200,6.96705126953125,-0.4606475830078125,-10.59173583984375,1.509979248046875
1713358424314000000,6.976999755859375,-0.537261962890625,-10.584548950195312,1.5913848876953125
1713358424323979300,6.986979248046875,-0.534881591796875,-10.349929809570312,1.61053466796875
1713358424333958400,6.99695849609375,-0.3409423828125,-9.737014770507812,1.92657470703125
1713358424343907000,7.006906982421875,0.1067657470703125,-8.978042602539062,1.921783447265625
1713358424353886500,7.016886474609375,0.5880126953125,-8.31005859375,1.9289703369140625
1713358424363835100,7.026835205078125,1.2152862548828125,-7.871917724609375,1.8403778076171875
1713358424373814500,7.036814453125,1.4163970947265625,-7.802490234375,1.8403778076171875
1713358424383793700,7.046793701171875,1.7013092041015625,-7.89825439453125,1.6009674072265625
1713358424393742300,7.056742431640625,1.212890625,-8.082611083984375,1.646453857421875
1713358424403721700,7.0667216796875,0.4658966064453125,-8.733840942382812,1.7134857177734375
1713358424413700900,7.076700927734375,-0.0847625732421875,-9.844741821289062,1.70391845703125
1713358424423680300,7.08668017578125,0.0636749267578125,-10.601318359375,1.6488494873046875
1713358424433629000,7.09662890625,-0.1374359130859375,-11.039459228515625,1.826019287109375
1713358424443608000,7.106608154296875,0.0062103271484375,-11.386611938476562,2.2976837158203125
1713358424453587500,7.11658740234375,-0.4846038818359375,-11.803207397460938,2.556243896484375
1713358424463566600,7.126566650390625,-2.1916656494140625,-11.829544067382812,2.8148193359375
1713358424473515300,7.136515380859375,-4.3368682861328125,-11.968399047851562,2.2833099365234375
1713358424483494700,7.14649462890625,-5.237091064453125,-12.205429077148438,1.2537994384765625
1713358424493473800,7.156473876953125,-4.8659820556640625,-12.025863647460938,-0.70465087890625
1713358424503422500,7.16642236328125,-3.74310302734375,-11.3507080078125,-2.6559295654296875
1713358424513401900,7.17640185546875,-2.534027099609375,-10.598922729492188,-4.1522979736328125
1713358424523381000,7.186381103515625,-2.194061279296875,-10.134445190429688,-5.813873291015625
1713358424533330000,7.196329833984375,-2.385589599609375,-9.880661010742188,-7.271942138671875
1713358424543309000,7.20630908203125,-2.574737548828125,-9.404220581054688,-8.059646606445312
1713358424553288200,7.2162880859375,-2.44305419921875,-8.405838012695312,-8.062042236328125
1713358424563237000,7.226237060546875,-2.5890960693359375,-7.531951904296875,-7.398834228515625
1713358424573216300,7.23621630859375,-3.1589202880859375,-7.1153564453125,-6.17779541015625
1713358424583195600,7.246195556640625,-3.405517578125,-7.237457275390625,-4.080474853515625
1713358424593144300,7.256144287109375,-3.1541290283203125,-7.912628173828125,-2.1818695068359375
1713358424603123500,7.26612353515625,-2.811767578125,-9.145645141601562,-1.365447998046875
1713358424613102800,7.276102783203125,-2.162933349609375,-10.761734008789062,-0.7022552490234375
1713358424623051500,7.286051513671875,-1.686492919921875,-12.509490966796875,-0.288055419921875
1713358424633030700,7.29603076171875,-1.9282989501953125,-13.78082275390625,0.3392181396484375
1713358424642979600,7.3059794921875,-3.4079132080078125,-14.005874633789062,1.160430908203125
1713358424652958700,7.315958740234375,-5.5172119140625,-13.40252685546875,1.064666748046875
1713358424662937900,7.325937744140625,-6.8795166015625,-12.68426513671875,0.631317138671875
1713358424672886800,7.33588671875,-7.032745361328125,-12.150360107421875,0.557098388671875
1713358424682866000,7.345865966796875,-7.00640869140625,-11.254928588867188,0.2434539794921875
1713358424692845300,7.35584521484375,-6.2378692626953125,-10.584548950195312,0.135711669921875
1713358424702824400,7.365824462890625,-4.286590576171875,-10.105712890625,0.0279693603515625
1713358424712773000,7.375773193359375,-1.5907135009765625,-9.478439331054688,0.250640869140625
1713358424722752500,7.38575244140625,0.7029266357421875,-9.004379272460938,0.1811981201171875
1713358424732731600,7.395731689453125,2.2447967529296875,-8.69073486328125,0.0854339599609375
1713358424742710800,7.405710693359375,2.83856201171875,-8.463287353515625,0.2386627197265625
1713358424752659700,7.41565966796875,2.53448486328125,-8.073043823242188,0.6815948486328125
1713358424762638800,7.425638916015625,2.0293121337890625,-7.6995391845703125,1.011993408203125
1713358424772618200,7.4356181640625,1.208099365234375,-7.6085662841796875,0.643280029296875
1713358424782567000,7.44556689453125,0.6239166259765625,-7.6732025146484375,0.0662841796875
1713358424792546000,7.455546142578125,0.34619140625,-7.6420745849609375,-0.5107269287109375
1713358424802525400,7.465525390625,0.2432403564453125,-7.575042724609375,-0.76690673828125
1713358424812474000,7.47547412109375,0.061279296875,-7.733062744140625,-0.541839599609375
1713358424822453200,7.485453369140625,0.12353515625,-8.051483154296875,-0.3790435791015625
1713358424832432600,7.4954326171875,0.0948028564453125,-8.278945922851562,-0.5059356689453125
1713358424842381300,7.50538134765625,-0.082366943359375,-8.441741943359375,-0.6974639892578125
1713358424852360400,7.5153603515625,-0.53009033203125,-8.4034423828125,-0.6855010986328125
1713358424862339800,7.52533984375,-0.8197784423828125,-8.20233154296875,-0.5442352294921875
1713358424872288500,7.53528857421875,-0.7982330322265625,-8.005996704101562,-0.371856689453125
1713358424882268000,7.545267822265625,-0.6138763427734375,-7.7665863037109375,-0.254547119140625
1713358424892247000,7.5552470703125,-0.3696746826171875,-7.5247650146484375,-0.1851043701171875
1713358424902195700,7.56519580078125,0.5856170654296875,-7.30450439453125,-0.3383331298828125
1713358424912175000,7.575175048828125,0.7986907958984375,-7.268585205078125,-0.2904510498046875
1713358424922123800,7.585123779296875,1.0357208251953125,-7.2446441650390625,0.0782470703125
1713358424932103000,7.59510302734375,1.2200775146484375,-7.3547821044921875,0.5115966796875
1713358424942082300,7.605082275390625,1.4331512451171875,-7.6229248046875,1.086212158203125
1713358424952031000,7.615031005859375,1.734832763671875,-8.020370483398438,1.9600982666015625
1713358424962010000,7.625010009765625,2.115509033203125,-8.532730102539062,3.166778564453125
1713358424971989500,7.634989501953125,2.496185302734375,-9.018753051757812,4.658355712890625
1713358424981968600,7.64496875,2.6733551025390625,-9.4185791015625,6.02545166015625
1713358424991917600,7.65491748046875,2.1562042236328125,-9.933334350585938,6.65032958984375
1713358425001896700,7.664896728515625,1.248809814453125,-10.179931640625,6.528228759765625
1713358425011875800,7.674875732421875,-0.0153350830078125,-10.797637939453125,5.1826934814453125
1713358425021855200,7.684855224609375,-1.1238555908203125,-11.73138427734375,3.537872314453125
1713358425031804000,7.694803955078125,-1.2842559814453125,-12.274856567382812,2.276123046875
1713358425041783300,7.704783203125,-0.166168212890625,-12.317962646484375,0.9473419189453125
1713358425051762400,7.714762451171875,0.5257568359375,-12.6627197265625,-0.9488677978515625
1713358425061711000,7.724711181640625,0.6598358154296875,-12.875808715820312,-1.300811767578125
1713358425071690500,7.7346904296875,1.4379425048828125,-12.564559936523438,-0.635223388671875
1713358425081669600,7.744669677734375,3.1138916015625,-11.5733642578125,1.572235107421875
1713358425091618300,7.754618408203125,4.7802581787109375,-10.723419189453125,4.320770263671875
1713358425101597700,7.76459765625,5.1872711181640625,-10.754547119140625,6.35345458984375
1713358425111576800,7.774576904296875,3.01812744140625,-12.772857666015625,6.9208831787109375
1713358425121525500,7.784525390625,0.1426849365234375,-15.643508911132812,6.9903106689453125
1713358425131505000,7.7945048828125,-0.661773681640625,-17.132705688476562,3.99755859375
1713358425141484000,7.804484130859375,-1.708038330078125,-17.520553588867188,-0.592132568359375
1713358425151432700,7.8144326171875,-2.9290771484375,-17.472671508789062,-5.3326416015625
1713358425161412000,7.824412109375,-3.9250640869140625,-15.025802612304688,-8.854522705078125
1713358425171391200,7.83439111328125,-4.18603515625,-9.674758911132812,-7.5736236572265625
1713358425181340200,7.844340087890625,-3.1852569580078125,-6.5694732666015625,-2.9839324951171875
1713358425191319300,7.8543193359375,-2.2395477294921875,-6.591033935546875,-0.63043212890625
1713358425201268000,7.86426806640625,-1.085540771484375,-7.93896484375,0.53314208984375
1713358425211247400,7.874247314453125,-1.028076171875,-8.9541015625,1.8810882568359375
1713358425221226500,7.8842265625,-1.3465118408203125,-9.71307373046875,2.3671112060546875
1713358425231175200,7.894175048828125,-1.5787506103515625,-10.31640625,1.7063140869140625
1713358425241154600,7.904154541015625,-1.8444976806640625,-10.46484375,0.05670166015625
1713358425251133700,7.9141337890625,-1.846893310546875,-10.2421875,-1.3941802978515625
1713358425261082400,7.924082275390625,-1.2076416015625,-9.94769287109375,-2.9216766357421875
1713358425271061800,7.934061767578125,-0.8461151123046875,-9.950088500976562,-4.3989105224609375
1713358425281041000,7.944041015625,-1.265106201171875,-10.057830810546875,-5.3206787109375
1713358425291020300,7.954020263671875,-1.528472900390625,-9.698699951171875,-5.4140472412109375
1713358425300999400,7.96399951171875,-1.1262359619140625,-9.00677490234375,-4.7843780517578125
1713358425310948000,7.973947998046875,-0.3912200927734375,-8.31964111328125,-3.8123321533203125
1713358425320927500,7.983927490234375,0.1115570068359375,-7.7522125244140625,-2.483551025390625
1713358425330914800,7.993914794921875,0.27197265625,-7.4122314453125,-1.3822174072265625
1713358425340863500,8.003863525390624,0.0900115966796875,-7.39068603515625,-0.572967529296875
1713358425350842600,8.013842529296875,-0.3529205322265625,-7.6851806640625,-0.1779327392578125
1713358425360822000,8.023822021484374,-0.6713409423828125,-8.16162109375,-0.3431243896484375
1713358425370770700,8.033770751953124,-0.8461151123046875,-8.652435302734375,-0.5777587890625
1713358425380749800,8.043749755859375,-0.8724517822265625,-9.104934692382812,-0.740570068359375
1713358425390729200,8.053729248046874,-0.6689453125,-9.464065551757812,-0.805206298828125
1713358425400678000,8.063677978515624,-0.5851593017578125,-9.432937622070312,-0.9488677978515625
1713358425410657000,8.073656982421875,-0.7982330322265625,-9.114517211914062,-0.604095458984375
1713358425420636400,8.083636474609374,-0.9251251220703125,-8.745803833007812,-0.2066650390625
1713358425430585000,8.093585205078124,-1.308197021484375,-8.444137573242188,0.18359375
1713358425440564500,8.103564453125,-1.5907135009765625,-8.427383422851562,0.542724609375
1713358425450513200,8.11351318359375,-1.803802490234375,-8.515960693359375,0.4804840087890625
1713358425460492300,8.1234921875,-1.8229522705078125,-8.808059692382812,0.430206298828125
1713358425470471700,8.1334716796875,-1.8014068603515625,-9.030715942382812,0.451751708984375
1713358425480420400,8.14342041015625,-1.4590301513671875,-9.15521240234375,0.4613189697265625
1713358425490399500,8.1533994140625,-1.0352630615234375,-9.30126953125,0.59539794921875
1713358425500379000,8.16337890625,-0.6378326416015625,-9.253372192382812,0.473297119140625
1713358425510327600,8.17332763671875,-0.4008026123046875,-9.114517211914062,0.53076171875
1713358425520306700,8.183306640625,-0.515716552734375,-8.896636962890625,0.468505859375
1713358425530286000,8.1932861328125,-0.8126068115234375,-8.772140502929688,0.389495849609375
1713358425540234800,8.20323486328125,-1.2459564208984375,-8.683563232421875,0.4756927490234375
1713358425550214100,8.213214111328124,-1.5643768310546875,-8.750595092773438,0.5403289794921875
1713358425560193300,8.223193359375,-1.720001220703125,-8.820022583007812,0.6289215087890625
1713358425570172400,8.23317236328125,-1.734375,-8.899032592773438,0.8587646484375
1713358425580151800,8.24315185546875,-1.655364990234375,-9.078598022460938,1.1436767578125
1713358425590100500,8.2531005859375,-1.4734039306640625,-9.188735961914062,1.4812469482421875
1713358425600080000,8.263079833984374,-1.301025390625,-9.339569091796875,1.59857177734375
1713358425610059000,8.27305908203125,-1.0615997314453125,-9.294082641601562,1.730255126953125
1713358425620007700,8.283007568359375,-0.5971221923828125,-9.231826782226562,1.6344757080078125
1713358425629987000,8.292987060546874,-0.283477783203125,-9.315628051757812,1.3854827880859375
1713358425639966200,8.30296630859375,0.2288818359375,-9.14324951171875,1.1628265380859375
1713358425649915000,8.312914794921875,0.6143341064453125,-9.016357421875,1.011993408203125
1713358425659894300,8.322894287109374,0.6382904052734375,-9.114517211914062,0.906646728515625
1713358425669873400,8.332873291015625,0.901641845703125,-9.169586181640625,0.7151031494140625
1713358425679822000,8.342822021484375,0.848968505859375,-9.327606201171875,0.92340087890625
1713358425689801500,8.352801513671874,0.39886474609375,-9.78729248046875,1.1436767578125
1713358425699780600,8.362780517578125,0.034942626953125,-10.11529541015625,1.4333648681640625
1713358425709729300,8.372729248046875,-0.1805267333984375,-10.395416259765625,1.2849273681640625
1713358425719708700,8.382708740234374,-0.463043212890625,-10.567794799804688,1.3280181884765625
1713358425729657300,8.3926572265625,0.6717987060546875,-10.826370239257812,0.6983489990234375
1713358425739636700,8.40263671875,1.016571044921875,-10.948471069335938,1.0886077880859375
1713358425749615900,8.412615966796874,1.2559814453125,-10.934112548828125,0.9449462890625
1713358425759564500,8.422564453125,0.4802703857421875,-10.488784790039062,1.2274627685546875
1713358425769544000,8.4325439453125,-1.00653076171875,-9.844741821289062,1.1891632080078125
1713358425779523000,8.442523193359374,-2.39996337890625,-9.698699951171875,0.98565673828125
1713358425789471700,8.4524716796875,-3.5563507080078125,-10.254150390625,0.389495849609375
1713358425799451100,8.462451171875,-3.7670440673828125,-11.029876708984375,-1.0446319580078125
1713358425809430300,8.47243017578125,-3.3935546875,-11.324371337890625,-2.28961181640625
1713358425819379000,8.48237890625,-2.9362640380859375,-11.147186279296875,-3.3646087646484375
1713358425829358300,8.4923583984375,-2.469390869140625,-10.565399169921875,-4.228912353515625
1713358425839337500,8.50233740234375,-2.3137664794921875,-9.880661010742188,-4.9232330322265625
1713358425849316900,8.51231689453125,-2.4047393798828125,-9.284500122070312,-5.5241851806640625
1713358425859265500,8.522265625,-2.648956298828125,-8.834396362304688,-6.1538543701171875
1713358425869244700,8.53224462890625,-3.0368194580078125,-8.444137573242188,-6.213714599609375
1713358425879224000,8.54222412109375,-3.2068023681640625,-8.31964111328125,-5.8354339599609375
1713358425889203200,8.552203125,-3.0439910888671875,-8.527938842773438,-4.76043701171875
1713358425899152100,8.562152099609374,-3.125396728515625,-9.416183471679688,-3.790771484375
1713358425909131300,8.57213134765625,-2.5507965087890625,-10.692291259765625,-3.00787353515625
1713358425919110400,8.5821103515625,-1.7774658203125,-11.934890747070312,-2.09808349609375
1713358425929059300,8.592059326171874,-1.1358184814453125,-13.07452392578125,-0.9823760986328125
1713358425939038500,8.60203857421875,-1.1789093017578125,-13.74969482421875,0.13092041015625
1713358425949017900,8.612017822265624,-2.3089752197265625,-13.699417114257812,0.8515777587890625
1713358425958966500,8.621966552734374,-4.2794036865234375,-13.3067626953125,0.9090423583984375
1713358425968945700,8.631945556640625,-6.2282867431640625,-13.194229125976562,0.8348236083984375
1713358425978925000,8.641925048828124,-7.181182861328125,-12.906936645507812,1.7398223876953125
1713358425988873700,8.651873779296874,-7.4181976318359375,-11.999526977539062,2.290496826171875
1713358425998852900,8.661852783203125,-6.5084075927734375,-11.530258178710938,1.4812469482421875
1713358426008801800,8.6718017578125,-4.645721435546875,-11.319580078125,0.8156585693359375
1713358426018781000,8.681781005859374,-1.9163360595703125,-10.979598999023438,0.231475830078125
1713358426028760000,8.691760009765625,0.1690216064453125,-10.546249389648438,-0.4173431396484375
1713358426038709000,8.701708984375,2.29986572265625,-10.036285400390625,-0.149200439453125
1713358426048688000,8.711688232421874,2.508148193359375,-9.741790771484375,0.547515869140625
1713358426058667300,8.721667236328125,1.7851104736328125,-9.126480102539062,0.47808837890625
1713358426068616200,8.7316162109375,1.14825439453125,-8.278945922851562,0.652862548828125
1713358426078595300,8.74159521484375,0.631103515625,-7.5558929443359375,0.7965087890625
1713358426088574700,8.75157470703125,0.36773681640625,-7.1656341552734375,0.949737548828125
1713358426098523400,8.7615234375,0.056488037109375,-7.072265625,0.6408843994140625
1713358426108502500,8.77150244140625,-0.051239013671875,-6.8160858154296875,0.3631591796875
1713358426118482000,8.78148193359375,-0.1254730224609375,-6.564697265625,0.0327606201171875
1713358426128461000,8.7914609375,-0.2116546630859375,-6.5048370361328125,-0.1994781494140625
1713358426138409700,8.80140966796875,-0.1302490234375,-6.646087646484375,-0.582550048828125
1713358426148389000,8.81138916015625,0.0924072265625,-6.88311767578125,-1.080535888671875
1713358426158368300,8.8213681640625,0.298309326171875,-7.0698699951171875,-1.564178466796875
1713358426168347600,8.83134765625,0.2791595458984375,-7.28533935546875,-1.7174072265625
1713358426178296300,8.84129638671875,-0.0847625732421875,-7.5606842041015625,-1.5809326171875
1713358426188275500,8.851275390625,-0.0249176025390625,-7.7785491943359375,-1.554595947265625
1713358426198254800,8.8612548828125,0.28155517578125,-7.6827850341796875,-1.2672882080078125
1713358426208203500,8.87120361328125,0.4515380859375,-7.5558929443359375,-0.8387298583984375
1713358426218182700,8.8811826171875,0.5066070556640625,-7.5487060546875,-0.561004638671875
1713358426228162000,8.891162109375,0.710113525390625,-7.5822296142578125,-0.1563873291015625
1713358426238110700,8.90111083984375,0.89447021484375,-7.7258758544921875,0.4254150390625
1713358426248090000,8.911090087890624,1.2464141845703125,-7.9485321044921875,1.0048065185546875
1713358426258038800,8.921038818359374,1.6175079345703125,-8.231048583984375,1.6799774169921875
1713358426268018000,8.931017822265625,2.0293121337890625,-8.527938842773438,2.628082275390625
1713358426277997300,8.940997314453124,2.3142242431640625,-8.841583251953125,3.853912353515625
1713358426287946000,8.950946044921874,2.2926788330078125,-9.157608032226562,4.8953857421875
1713358426297925000,8.960925048828125,1.8808746337890625,-9.552658081054688,5.2736663818359375
1713358426307904500,8.970904541015624,1.3062591552734375,-9.96685791015625,5.1204376220703125
1713358426317853200,8.980853271484374,0.5377197265625,-10.57977294921875,4.6966705322265625
1713358426327832300,8.990832275390625,-0.0464630126953125,-11.48956298828125,3.9832000732421875
1713358426337811700,9.000811767578124,0.5975799560546875,-11.920516967773438,2.9656524658203125
1713358426347760400,9.010760498046874,1.361328125,-12.368240356445312,1.4788665771484375
1713358426357739800,9.02073974609375,1.4523162841796875,-13.050582885742188,0.6193389892578125
1713358426367719000,9.030718994140624,1.406829833984375,-13.536605834960938,0.63848876953125
1713358426377667600,9.04066748046875,1.5959625244140625,-13.139175415039062,1.847564697265625
1713358426387647000,9.05064697265625,2.412384033203125,-12.550201416015625,3.9257354736328125
1713358426397626000,9.060626220703124,3.453857421875,-12.856658935546875,5.5154876708984375
1713358426407605500,9.07060546875,2.7164459228515625,-14.07769775390625,6.31036376953125
1713358426417554200,9.08055419921875,-0.1278533935546875,-15.801528930664062,6.422882080078125
1713358426427533300,9.090533203125,-1.86126708984375,-17.0465087890625,3.58575439453125
1713358426437512700,9.1005126953125,-2.088714599609375,-16.967498779296875,-0.1515960693359375
1713358426447491800,9.110491943359374,-1.53326416015625,-16.261215209960938,-3.3526458740234375
1713358426457440500,9.1204404296875,-0.3337554931640625,-14.992279052734375,-7.2360382080078125
1713358426467420000,9.130419921875,-1.449462890625,-11.104095458984375,-8.574386596679688
1713358426477399000,9.14039892578125,-2.7255706787109375,-7.0962066650390625,-5.2344818115234375
1713358426487347700,9.15034765625,-2.9314727783203125,-5.6333465576171875,-1.8227386474609375
1713358426497327000,9.1603271484375,-2.4406585693359375,-6.52398681640625,0.3296356201171875
1713358426507306200,9.17030615234375,-1.7008514404296875,-8.104156494140625,2.249786376953125
1713358426517255000,9.1802548828125,-1.17413330078125,-9.902206420898438,3.169158935546875
1713358426527234300,9.190234375,-1.2411651611328125,-10.804824829101562,2.86749267578125
1713358426537183000,9.200182861328125,-2.364044189453125,-10.668350219726562,1.6871490478515625
1713358426547162400,9.210162353515624,-3.0009002685546875,-10.112899780273438,-0.4915618896484375
1713358426557141500,9.2201416015625,-2.0719451904296875,-9.483230590820312,-2.009490966796875
1713358426567090200,9.230090087890625,-1.1837005615234375,-9.071426391601562,-3.14434814453125
1713358426577069600,9.240069580078124,-0.7431640625,-9.03790283203125,-4.3151092529296875
1713358426587048700,9.250048583984375,-0.4031982421875,-9.279708862304688,-5.813873291015625
1713358426596997400,9.259997314453125,-0.3337554931640625,-9.126480102539062,-6.278350830078125
1713358426606976800,9.269976806640624,0.003814697265625,-8.463287353515625,-6.2975006103515625
1713358426616956000,9.279955810546875,0.36773681640625,-7.745025634765625,-5.337432861328125
1713358426626904600,9.289904541015625,0.509002685546875,-7.215911865234375,-3.742889404296875
1713358426636884000,9.299884033203124,0.298309326171875,-6.9214324951171875,-2.3446807861328125
1713358426646863000,9.309863037109375,0.1857757568359375,-7.12493896484375,-1.501922607421875
1713358426656812000,9.31981201171875,-0.144622802734375,-7.7306671142578125,-1.1475830078125
1713358426666791200,9.329791259765624,-0.805419921875,-8.492019653320312,-1.0853271484375
1713358426676770300,9.339770263671875,-1.26031494140625,-9.258163452148438,-0.9775848388671875
1713358426686719200,9.34971923828125,-1.0711822509765625,-9.837570190429688,-1.185882568359375
1713358426696698400,9.359698486328124,-0.7599334716796875,-10.036285400390625,-1.13800048828125
1713358426706677800,9.369677734375,-0.6881103515625,-9.902206420898438,-1.058990478515625
1713358426716657000,9.379656982421874,-0.927520751953125,-9.7034912109375,-0.7884521484375
1713358426726636000,9.389635986328125,-1.16455078125,-9.420974731445312,-0.4293212890625
1713358426736585000,9.3995849609375,-1.301025390625,-9.289291381835938,0.0160064697265625
1713358426746564000,9.409564208984374,-1.3441162109375,-9.24859619140625,0.293731689453125
1713358426756512800,9.4195126953125,-1.391998291015625,-9.150436401367188,0.27935791015625
1713358426766492200,9.4294921875,-1.4518585205078125,-9.253372192382812,0.5139923095703125
1713358426776471300,9.43947119140625,-1.3417205810546875,-9.215072631835938,0.442169189453125
1713358426786420000,9.449419921875,-1.2148284912109375,-8.999588012695312,0.525970458984375
1713358426796399400,9.4593994140625,-0.99456787109375,-8.628494262695312,0.6600494384765625
1713358426806378500,9.46937841796875,-0.7910614013671875,-8.09698486328125,0.865936279296875
1713358426816327400,9.479327392578124,-0.769500732421875,-7.53912353515625,1.1484527587890625
1713358426826306600,9.489306640625,-0.841339111328125,-7.120147705078125,1.3376007080078125
1713358426836285700,9.49928564453125,-0.9706268310546875,-6.9549407958984375,1.5075836181640625
1713358426846234600,9.509234619140624,-0.9969635009765625,-7.0531005859375,1.4070281982421875
1713358426856213800,9.5192138671875,-0.9706268310546875,-7.5774383544921875,1.0670623779296875
1713358426866193200,9.529193115234374,-1.222015380859375,-8.463287353515625,0.537933349609375
1713358426876141800,9.539141845703124,-1.5667724609375,-9.382659912109375,0.09979248046875
1713358426886121000,9.549120849609375,-1.9498443603515625,-10.404983520507812,-0.0989227294921875
1713358426896100400,9.559100341796874,-2.0599822998046875,-11.365066528320312,-0.22821044921875
1713358426906049000,9.569049072265624,-1.9977264404296875,-12.162338256835938,-0.13482666015625
1713358426916028200,9.579028076171875,-1.6529693603515625,-12.317962646484375,0.2865447998046875
1713358426926007600,9.589007568359374,-1.063995361328125,-12.047409057617188,0.7845458984375
1713358426935956200,9.598956298828124,-0.3912200927734375,-11.561386108398438,1.2322540283203125
1713358426945935400,9.608935302734375,0.5018157958984375,-10.804824829101562,1.3998565673828125
1713358426955914800,9.618914794921874,0.9303741455078125,-9.902206420898438,1.7661590576171875
1713358426965863400,9.628863525390624,1.270355224609375,-8.946914672851562,2.06304931640625
1713358426975842600,9.638842529296875,1.3373870849609375,-8.264572143554688,2.070220947265625
1713358426985822000,9.648822021484374,1.08599853515625,-7.9365692138671875,2.2042999267578125
1713358426995801000,9.658801025390625,0.4922332763671875,-8.27655029296875,2.3192291259765625
1713358427005750000,9.66875,0.00860595703125,-9.162399291992188,2.1564178466796875
1713358427015729200,9.678729248046874,-0.1326446533203125,-10.397811889648438,1.4692840576171875
1713358427025708300,9.688708251953125,0.078033447265625,-11.061004638671875,0.691162109375
1713358427035657200,9.6986572265625,0.8106689453125,-11.374649047851562,0.051910400390625
1713358427045636400,9.70863623046875,1.3804931640625,-11.578155517578125,-0.0294952392578125
1713358427055615700,9.71861572265625,1.809051513671875,-11.513504028320312,-0.22821044921875
1713358427065564400,9.728564453125,1.260772705078125,-11.281265258789062,-0.000762939453125
1713358427075543600,9.73854345703125,0.1115570068359375,-10.807220458984375,0.4445648193359375
1713358427085523000,9.74852294921875,-1.1621551513671875,-10.244583129882812,0.779754638671875
1713358427095471600,9.7584716796875,-2.4717864990234375,-9.792068481445312,0.959320068359375
1713358427105450800,9.76845068359375,-3.2642669677734375,-9.959671020507812,0.2745819091796875
1713358427115430100,9.77843017578125,-3.410308837890625,-10.431320190429688,-1.2840423583984375
1713358427125378800,9.78837890625,-3.2427215576171875,-10.141632080078125,-2.5410003662109375
1713358427135358000,9.79835791015625,-3.13018798828125,-9.241409301757812,-3.5705108642578125
1713358427145337300,9.80833740234375,-3.1756744384765625,-8.539901733398438,-4.3414459228515625
1713358427155286000,9.8182861328125,-3.134979248046875,-7.9150238037109375,-4.9735107421875
1713358427165265400,9.828265380859374,-3.04638671875,-7.4888458251953125,-5.5984039306640625
1713358427175244500,9.83824462890625,-2.97216796875,-7.3284454345703125,-6.0078125
1713358427185193200,9.848193115234375,-2.7997894287109375,-7.5151824951171875,-5.7516326904296875
1713358427195172600,9.858172607421874,-2.4502410888671875,-8.16162109375,-5.3326416015625
1713358427205151700,9.86815185546875,-2.2970123291015625,-9.32281494140625,-4.3797454833984375
1713358427215100400,9.878100341796875,-2.02166748046875,-10.874252319335938,-3.5178375244140625
1713358427225079800,9.888079833984374,-1.581146240234375,-12.490341186523438,-2.4619903564453125
1713358427235059000,9.898058837890625,-0.896392822265625,-13.850250244140625,-1.248138427734375
1713358427245007600,9.908007568359375,-0.69049072265625,-14.69061279296875,-0.0414581298828125
1713358427254987000,9.917987060546874,-2.3616485595703125,-14.793563842773438,0.77496337890625
1713358427264966100,9.927966064453125,-5.6153717041015625,-14.139938354492188,0.9042510986328125
1713358427274915000,9.9379150390625,-7.889862060546875,-13.474349975585938,0.7414398193359375
1713358427284894200,9.947894287109374,-8.086181640625,-12.940444946289062,0.885101318359375
1713358427294873300,9.957873291015625,-7.88507080078125,-11.99713134765625,1.191558837890625
1713358427304852700,9.967852783203124,-6.855560302734375,-11.496749877929688,1.0838165283203125
1713358427314801400,9.977801513671874,-4.9138641357421875,-11.228591918945312,0.3392181396484375
1713358427324780500,9.987780517578125,-2.12701416015625,-10.84552001953125,-0.074981689453125
1713358427334760000,9.997760009765624,0.985443115234375,-10.361892700195312,-0.5777587890625
1713358427344708600,10.00770849609375,2.49139404296875,-9.796859741210938,-1.0135040283203125
1713358427354688000,10.01768798828125,3.32696533203125,-9.279708862304688,-0.2114410400390625
1713358427364667100,10.027667236328124,2.7906646728515625,-8.724258422851562,-0.2784881591796875
1713358427374615800,10.03761572265625,2.23760986328125,-8.07781982421875,0.1692352294921875
1713358427384595200,10.04759521484375,1.33978271484375,-7.6875762939453125,0.2602081298828125
1713358427394574300,10.05757421875,0.446746826171875,-7.6779937744140625,-0.053436279296875
1713358427404523000,10.06752294921875,0.0277557373046875,-7.4720916748046875,-0.1300506591796875
1713358427414502400,10.07750244140625,-0.0680084228515625,-7.3236541748046875,-0.1420135498046875
1713358427424481500,10.0874814453125,-0.2858734130859375,-7.510406494140625,-0.1779327392578125
1713358427434430200,10.09743017578125,-0.2379913330078125,-7.6779937744140625,-0.3670654296875
1713358427444409600,10.10740966796875,-0.1302490234375,-7.78094482421875,-0.752532958984375
1713358427454388700,10.117388671875,-0.1374359130859375,-7.742645263671875,-1.068572998046875
1713358427464337700,10.127337646484374,-0.78387451171875,-7.785736083984375,-1.226593017578125
1713358427474316800,10.13731689453125,-1.075958251953125,-7.6995391845703125,-1.0709686279296875
1713358427484296000,10.1472958984375,-1.08074951171875,-7.728271484375,-0.647186279296875
1713358427494244900,10.157244873046874,-0.656982421875,-7.5678558349609375,-0.4484710693359375
1713358427504224000,10.16722412109375,0.3078765869140625,-7.3763275146484375,-0.4532623291015625
1713358427514203400,10.177203369140624,1.006988525390625,-7.2135162353515625,-0.3574981689453125
1713358427524152000,10.187152099609374,1.301483154296875,-7.1967620849609375,-0.07977294921875
1713358427534131200,10.197131103515625,1.5049896240234375,-7.259002685546875,0.3751373291015625
1713358427544110600,10.207110595703124,1.7922821044921875,-7.3499908447265625,0.9617156982421875
1713358427554059300,10.217059326171874,2.1442413330078125,-7.565460205078125,1.6273040771484375
1713358427564038400,10.227038330078125,2.4243621826171875,-7.81207275390625,2.40301513671875
1713358427574017800,10.237017822265624,2.67095947265625,-8.039520263671875,3.4085845947265625
1713358427583997000,10.246996826171875,2.7308197021484375,-8.353164672851562,4.6128692626953125
1713358427593945600,10.256945556640625,2.5009765625,-8.822418212890625,5.7860260009765625
1713358427603925000,10.266925048828124,1.9120025634765625,-9.310836791992188,6.35345458984375
1713358427613904100,10.276904052734375,1.1458587646484375,-9.899810791015625,6.094879150390625
1713358427623853000,10.28685302734375,0.4635009765625,-10.630050659179688,5.13720703125
1713358427633832200,10.296832275390624,-0.21405029296875,-11.628433227539062,3.7725067138671875
1713358427643811300,10.306811279296875,-0.5205078125,-12.41851806640625,2.4269561767578125
1713358427653760300,10.31676025390625,-0.1853179931640625,-12.918899536132812,0.53076171875
1713358427663739400,10.326739501953124,-0.228424072265625,-13.67547607421875,-1.638397216796875
1713358427673718800,10.33671875,-0.508544921875,-14.26922607421875,-2.5553741455078125
1713358427683667500,10.34666748046875,0.075653076171875,-13.778427124023438,-1.3678436279296875
1713358427693646600,10.356646484375,2.3836517333984375,-12.495132446289062,1.1484527587890625
1713358427703626000,10.3666259765625,5.0675506591796875,-10.68511962890625,4.2058563232421875
1713358427713574700,10.37657470703125,5.7786407470703125,-9.543075561523438,6.231353759765625
1713358427723553800,10.3865537109375,3.9829864501953125,-10.594131469726562,6.9208831787109375
1713358427733533200,10.396533203125,1.514556884765625,-13.459991455078125,7.0214385986328125
1713358427743481900,10.40648193359375,1.2942962646484375,-15.471115112304688,5.4676055908203125
1713358427753461000,10.4164609375,-0.144622802734375,-16.684982299804688,0.4493560791015625
1713358427763440400,10.4264404296875,-3.8987274169921875,-18.593154907226562,-6.1897735595703125
1713358427773389000,10.43638916015625,-6.9944305419921875,-19.08636474609375,-10.85845947265625
1713358427783368200,10.4463681640625,-7.753387451171875,-13.902923583984375,-9.546432495117188
1713358427793347600,10.45634765625,-5.1939849853515625,-8.958892822265625,-5.53375244140625
1713358427803296300,10.466296142578125,-1.559600830078125,-7.7043304443359375,-2.7086029052734375
1713358427813275600,10.476275634765624,0.477874755859375,-7.5989837646484375,-0.434112548828125
1713358427823223600,10.4862236328125,0.3270416259765625,-7.7306671142578125,1.392669677734375
1713358427833172200,10.496172119140626,-0.6067047119140625,-7.637298583984375,2.4269561767578125
1713358427843151600,10.506151611328125,-1.1884918212890625,-7.71630859375,3.1117095947265625
1713358427853130800,10.516130859375,-1.739166259765625,-7.8671417236328125,2.7286376953125
1713358427863110100,10.526110107421875,-2.311370849609375,-7.7474212646484375,1.7446136474609375
1713358427873058800,10.536058837890625,-2.3616485595703125,-8.001205444335938,0.367950439453125
1713358427883038000,10.546037841796876,-1.6577606201171875,-8.788909912109375,-1.439666748046875
1713358427893017300,10.556017333984375,-1.0089263916015625,-9.758560180664062,-3.3119354248046875
1713358427902966000,10.565966064453125,-0.8293609619140625,-10.56060791015625,-4.8873291015625
1713358427912945200,10.575945068359376,-0.57318115234375,-10.677932739257812,-6.1275177001953125
1713358427922924500,10.585924560546875,-0.2164459228515625,-9.906997680664062,-6.3908843994140625
1713358427932873200,10.595873291015625,-0.00335693359375,-8.697921752929688,-6.06048583984375
1713358427942852400,10.605852294921876,-0.06561279296875,-7.745025634765625,-5.0237884521484375
1713358427952831700,10.615831787109375,-0.31939697265625,-7.3260498046875,-3.520233154296875
1713358427962780400,10.625780517578125,-0.4127655029296875,-7.299713134765625,-2.6583251953125
1713358427972759800,10.635759765625,-0.451080322265625,-7.5080108642578125,-2.3494720458984375
1713358427982739000,10.645739013671875,-0.69049072265625,-7.7570037841796875,-2.071746826171875
1713358427992687600,10.6556875,-0.9035797119140625,-8.00360107421875,-1.6982421875
1713358428002667000,10.6656669921875,-0.4319305419921875,-8.453720092773438,-1.386993408203125
1713358428012646100,10.675646240234375,-0.0464630126953125,-8.961288452148438,-1.0661773681640625
1713358428022594800,10.6855947265625,-0.293060302734375,-9.483230590820312,-0.6759185791015625
1713358428032574200,10.69557421875,-0.8916168212890625,-9.818405151367188,-0.4628448486328125
1713358428042553300,10.70555322265625,-1.5859222412109375,-10.091354370117188,-0.2569427490234375
1713358428052502000,10.715501953125,-2.05279541015625,-10.177536010742188,-0.106109619140625
1713358428062481400,10.7254814453125,-2.1437835693359375,-10.292465209960938,0.4756927490234375
1713358428072460500,10.73546044921875,-2.00970458984375,-10.1368408203125,0.5810394287109375
1713358428082409500,10.745409423828125,-1.7367706298828125,-9.770523071289062,0.6600494384765625
1713358428092388600,10.755388671875,-1.413543701171875,-9.277328491210938,0.8348236083984375
1713358428102367700,10.76536767578125,-0.9442901611328125,-8.717071533203125,0.8348236083984375
1713358428112316700,10.775316650390625,-0.4319305419921875,-8.226272583007812,0.791717529296875
1713358428122295800,10.7852958984375,-0.0751953125,-7.903045654296875,0.7222900390625
1713358428132275200,10.795275146484375,-0.1182861328125,-7.785736083984375,0.631317138671875
1713358428142254300,10.80525439453125,-0.4606475830078125,-7.876708984375,0.6552581787109375
1713358428152203000,10.815203125,-0.9825897216796875,-8.075439453125,0.7869415283203125
1713358428162182400,10.825182373046875,-1.5572052001953125,-8.429779052734375,0.7845458984375
1713358428172161500,10.83516162109375,-2.04083251953125,-8.882278442382812,0.959320068359375
1713358428182110200,10.845110107421876,-2.2922210693359375,-9.459274291992188,0.9928436279296875
1713358428192089600,10.855089599609375,-2.464599609375,-10.007553100585938,0.727081298828125
1713358428202068700,10.86506884765625,-2.50531005859375,-10.472030639648438,0.3966827392578125
1713358428212017400,10.875017333984376,-2.1653289794921875,-10.788070678710938,0.135711669921875
1713358428221996800,10.884996826171875,-1.4303131103515625,-10.900588989257812,-0.0893402099609375
1713358428231976000,10.894975830078126,-0.8293609619140625,-10.515121459960938,-0.027099609375
1713358428241924600,10.904924560546876,-0.5755767822265625,-9.974029541015625,0.1907806396484375
1713358428251904000,10.914904052734375,-0.2260284423828125,-9.274932861328125,0.3823089599609375
1713358428261883100,10.924883056640626,0.0588836669921875,-8.662017822265625,0.674407958984375
1713358428271832000,10.93483203125,0.6598358154296875,-8.2047119140625,0.8036956787109375
1713358428281811200,10.944811279296875,1.344573974609375,-7.92938232421875,0.9928436279296875
1713358428291790300,10.954790283203126,1.9287567138671875,-7.76898193359375,1.1005706787109375
1713358428301739300,10.9647392578125,2.0556488037109375,-7.7713623046875,1.2274627685546875
1713358428311718400,10.974718505859375,1.509765625,-8.45611572265625,1.3782958984375
1713358428321697800,10.98469775390625,0.5066070556640625,-9.310836791992188,1.5004119873046875
1713358428331646500,10.994646484375,-0.5947265625,-10.302047729492188,1.330413818359375
1713358428341625600,11.00462548828125,-1.2579193115234375,-11.324371337890625,0.8611602783203125
1713358428351605000,11.01460498046875,-1.4326934814453125,-11.9444580078125,0.485260009765625
1713358428361553700,11.0245537109375,-1.375244140625,-12.054595947265625,0.52117919921875
1713358428371532800,11.03453271484375,-0.187713623046875,-11.822357177734375,0.748626708984375
1713358428381512200,11.04451220703125,0.39886474609375,-11.37225341796875,1.1436767578125
1713358428391460900,11.0544609375,0.59039306640625,-10.902984619140625,1.435760498046875
1713358428401440000,11.06443994140625,0.29351806640625,-10.452880859375,1.6656036376953125
1713358428411419400,11.07441943359375,-0.4965667724609375,-10.15838623046875,1.5387115478515625
1713358428421398500,11.0843984375,-1.4470672607421875,-9.710678100585938,1.0311431884765625
1713358428431347500,11.094347412109375,-2.0719451904296875,-9.310836791992188,0.31048583984375
1713358428441326600,11.10432666015625,-2.1222381591796875,-9.330001831054688,-1.0111083984375
1713358428451305700,11.1143056640625,-1.7439422607421875,-9.097763061523438,-2.5098876953125
1713358428461254700,11.124254638671875,-1.5117034912109375,-8.614120483398438,-3.7333221435546875
1713358428471233800,11.13423388671875,-1.46142578125,-8.20233154296875,-4.65509033203125
1713358428481213200,11.144213134765625,-1.597900390625,-7.838409423828125,-5.2584228515625
1713358428491161900,11.154161865234375,-1.89239501953125,-7.7402496337890625,-5.8090972900390625
1713358428501141000,11.16414111328125,-2.407135009765625,-8.104156494140625,-6.2496185302734375
1713358428511120400,11.174120361328125,-3.0655517578125,-8.9541015625,-5.981475830078125
1713358428521069000,11.184069091796875,-3.0152740478515625,-10.225418090820312,-5.4978485107421875
1713358428531048200,11.194048095703126,-3.008087158203125,-11.894180297851562,-5.188995361328125
1713358428541027600,11.204027587890625,-2.9913330078125,-13.931655883789062,-4.4108734130859375
1713358428550976300,11.213976318359375,-2.2108154296875,-15.681808471679688,-3.276031494140625
1713358428560955400,11.223955322265626,-1.7271881103515625,-16.467117309570312,-1.64556884765625
1713358428570934800,11.233934814453125,-2.8309173583984375,-16.045730590820312,0.097412109375
1713358428580883500,11.243883544921875,-5.0647125244140625,-14.963546752929688,0.918609619140625
1713358428590862800,11.25386279296875,-7.1309051513671875,-13.79278564453125,1.4333648681640625
1713358428600842000,11.263842041015625,-7.69354248046875,-12.614837646484375,2.3407745361328125
1713358428610790700,11.273790771484375,-7.6025543212890625,-11.470413208007812,2.608917236328125
1713358428620770000,11.28377001953125,-7.2051239013671875,-10.902984619140625,1.646453857421875
1713358428630749200,11.293749267578125,-5.24188232421875,-10.618072509765625,1.160430908203125
1713358428640697900,11.30369775390625,-2.4574127197265625,-10.235000610351562,0.91143798828125
1713358428650677200,11.31367724609375,0.0181884765625,-9.76812744140625,0.98565673828125
1713358428660656400,11.323656494140625,1.5001983642578125,-9.385055541992188,0.504425048828125
1713358428670605000,11.33360498046875,2.05804443359375,-8.97564697265625,0.537933349609375
1713358428680584400,11.34358447265625,1.9503021240234375,-8.654830932617188,0.9784698486328125
1713358428690563600,11.3535634765625,2.0364990234375,-8.053878784179688,1.160430908203125
1713358428700512300,11.36351220703125,2.062835693359375,-7.4673004150390625,1.0000152587890625
1713358428710491600,11.37349169921875,1.935943603515625,-7.2637939453125,0.5068206787109375
1713358428720470800,11.383470703125,1.59356689453125,-7.342803955078125,0.1117706298828125
1713358428730450200,11.3934501953125,1.3733062744140625,-7.2661895751953125,-0.043853759765625
1713358428740398800,11.40339892578125,1.0261383056640625,-7.2494354248046875,-0.288055419921875
1713358428750378000,11.4133779296875,0.604766845703125,-7.3380126953125,-0.319183349609375
1713358428760357400,11.423357421875,0.3581695556640625,-7.4002685546875,-0.6376190185546875
1713358428770306000,11.43330615234375,0.1786041259765625,-7.48406982421875,-1.0446319580078125
1713358428780285400,11.443285400390625,0.0373382568359375,-7.4888458251953125,-1.312774658203125
1713358428790264600,11.4532646484375,-0.1637725830078125,-7.5247650146484375,-1.3989715576171875
1713358428800213200,11.463213134765626,-0.3696746826171875,-7.500823974609375,-1.322357177734375
1713358428810192600,11.473192626953125,-0.0464630126953125,-7.3236541748046875,-1.20025634765625
1713358428820171800,11.483171875,0.3868865966796875,-7.2015533447265625,-0.9249267578125
1713358428830120400,11.493120361328126,0.89447021484375,-7.0914154052734375,-0.66156005859375
1713358428840099800,11.503099853515625,1.287109375,-7.129730224609375,-0.5107269287109375
1713358428850079000,11.513078857421876,1.3302154541015625,-7.225494384765625,-0.3957977294921875
1713358428860027600,11.523027587890626,1.4523162841796875,-7.2805633544921875,-0.022308349609375
1713358428870007000,11.533007080078125,1.7013092041015625,-7.46490478515625,0.4996337890625
1713358428879986200,11.542986083984376,1.993408203125,-7.8096771240234375,1.160430908203125
1713358428889935000,11.55293505859375,2.381256103515625,-8.178390502929688,2.0343170166015625
1713358428899914200,11.562914306640625,2.6925048828125,-8.568634033203125,3.1859283447265625
1713358428909893400,11.572893310546876,2.7308197021484375,-9.116912841796875,4.4692230224609375
1713358428919842300,11.58284228515625,2.433929443359375,-9.825592041015625,5.3430938720703125
1713358428929821400,11.592821533203125,1.861724853515625,-10.472030639648438,5.6687164306640625
1713358428939770000,11.60277001953125,1.5265350341796875,-10.72821044921875,5.4101409912109375
1713358428949749500,11.61274951171875,0.796295166015625,-11.101699829101562,4.246551513671875
1713358428959728600,11.622728759765625,-0.235595703125,-11.537445068359375,3.0638275146484375
1713358428969677300,11.63267724609375,-0.503753662109375,-11.463226318359375,1.8667144775390625
1713358428979656700,11.64265673828125,-0.6019134521484375,-11.365066528320312,1.055084228515625
1713358428989635800,11.6526357421875,0.47308349609375,-11.645187377929688,0.2003631591796875
1713358428999615200,11.662615234375,2.7739105224609375,-11.918121337890625,0.104583740234375
1713358429009594400,11.672594482421875,5.1561431884765625,-12.1431884765625,1.5387115478515625
1713358429019543000,11.68254296875,6.4322509765625,-13.134384155273438,3.7629241943359375
1713358429029522400,11.6925224609375,4.890380859375,-15.22930908203125,4.8762359619140625
1713358429039501600,11.70250146484375,1.840179443359375,-17.726455688476562,4.4021759033203125
1713358429049450200,11.7124501953125,-0.9131622314453125,-18.301071166992188,2.470062255859375
1713358429059429600,11.7224296875,-3.45819091796875,-16.799911499023438,-0.4795989990234375
1713358429069408800,11.73240869140625,-4.518829345703125,-15.669845581054688,-3.1467437744140625
1713358429079357700,11.742357666015625,-3.2379302978515625,-14.82708740234375,-5.452362060546875
1713358429089336800,11.7523369140625,-2.29461669921875,-12.0498046875,-5.148284912109375
1713358429099316000,11.76231591796875,-1.6290283203125,-8.851150512695312,-1.93048095703125
1713358429109265000,11.772264892578125,-1.6433868408203125,-7.584625244140625,-0.074981689453125
1713358429119244000,11.782244140625,-1.435089111328125,-8.21429443359375,0.885101318359375
1713358429129223400,11.792223388671875,-1.2507476806640625,-9.164794921875,1.7278594970703125
1713358429139172000,11.802172119140625,-1.47100830078125,-9.602935791015625,1.699127197265625
1713358429149151200,11.812151123046876,-1.8014068603515625,-9.464065551757812,1.308868408203125
1713358429159130600,11.822130615234375,-2.38079833984375,-9.557449340820312,-0.0725860595703125
1713358429169079300,11.832079345703125,-2.538818359375,-9.638839721679688,-1.545013427734375
1713358429179058400,11.842058349609376,-2.0982818603515625,-9.734619140625,-2.833099365234375
1713358429189037800,11.852037841796875,-1.4686126708984375,-9.84234619140625,-3.888946533203125
1713358429198986500,11.861986572265625,-1.06878662109375,-9.794464111328125,-5.021392822265625
1713358429208965600,11.871965576171876,-0.879638671875,-9.325210571289062,-5.5984039306640625
1713358429218945000,11.881945068359375,-0.309814453125,-8.379501342773438,-5.7683868408203125
1713358429228893700,11.891893798828125,0.1690216064453125,-7.352386474609375,-5.1099853515625
1713358429238873000,11.901873046875,0.5401153564453125,-6.7801666259765625,-4.281585693359375
1713358429248821800,11.91182177734375,0.456329345703125,-6.62933349609375,-3.55615234375
1713358429258801000,11.92180078125,0.33660888671875,-6.80889892578125,-2.9935150146484375
1713358429268780300,11.9317802734375,0.118743896484375,-7.225494384765625,-2.54339599609375
1713358429278759400,11.941759521484375,-0.1302490234375,-7.7474212646484375,-1.9520263671875
1713358429288738800,11.95173876953125,-0.4869842529296875,-8.391464233398438,-1.2960205078125
1713358429298687500,11.9616875,-0.4175567626953125,-9.1336669921875,-0.6184539794921875
1713358429308666600,11.97166650390625,-0.1518096923828125,-9.748977661132812,-0.24017333984375
1713358429318646000,11.98164599609375,-0.135040283203125,-10.01953125,-0.15399169921875
1713358429328594700,11.9915947265625,-0.5492401123046875,-9.854324340820312,-0.1731414794921875
1713358429338573800,12.00157373046875,-1.1262359619140625,-9.61968994140625,-0.043853759765625
1713358429348553200,12.01155322265625,-1.5955047607421875,-9.318023681640625,-0.065399169921875
1713358429358502000,12.021501953125,-1.9642181396484375,-9.21746826171875,0.178802490234375
1713358429368481000,12.03148095703125,-2.0551910400390625,-9.289291381835938,0.0686798095703125
1713358429378460400,12.04146044921875,-1.8588714599609375,-9.521530151367188,-0.0773773193359375
1713358429388409000,12.0514091796875,-1.4374847412109375,-9.59814453125,-0.0079345703125
1713358429398388500,12.061388427734375,-0.9514617919921875,-9.401824951171875,0.047119140625
1713358429408367600,12.07136767578125,-0.599517822265625,-9.057052612304688,0.16204833984375
1713358429418316300,12.08131640625,-0.3337554931640625,-8.571029663085938,0.2171173095703125
1713358429428295700,12.091295654296875,-0.31939697265625,-8.07781982421875,0.2123260498046875
1713358429438274800,12.10127490234375,-0.57318115234375,-7.79052734375,0.1644439697265625
1713358429448223500,12.111223388671876,-1.0185089111328125,-7.649261474609375,0.19317626953125
1713358429458203000,12.121202880859375,-1.5955047607421875,-7.78094482421875,0.219512939453125
1713358429468182000,12.13118212890625,-2.02166748046875,-8.09698486328125,0.241058349609375
1713358429478130700,12.141130615234376,-2.1916656494140625,-8.571029663085938,0.2817535400390625
1713358429488110000,12.151110107421875,-2.019287109375,-9.284500122070312,0.5235748291015625
1713358429498089200,12.161089111328126,-1.6385955810546875,-10.15838623046875,0.8683319091796875
1713358429508038000,12.171037841796876,-1.095123291015625,-10.91973876953125,1.033538818359375
1713358429518017300,12.181017333984375,-0.8126068115234375,-11.381820678710938,1.37591552734375
1713358429527966000,12.190966064453125,-0.6928863525390625,-11.37225341796875,1.6608123779296875
1713358429537945300,12.2009453125,-0.537261962890625,-10.936508178710938,1.7398223876953125
1713358429547924500,12.210924560546875,-0.2547607421875,-10.299652099609375,1.6201171875
1713358429557903600,12.220903564453126,0.0804290771484375,-9.76812744140625,1.4405517578125
1713358429567852500,12.2308525390625,0.583221435546875,-9.145645141601562,1.1939544677734375
1713358429577831700,12.240831787109375,0.8968505859375,-8.602157592773438,0.959320068359375
1713358429587811000,12.25081103515625,1.050079345703125,-8.422592163085938,0.6289215087890625
1713358429597790200,12.260790283203125,1.02374267578125,-8.511184692382812,0.3535919189453125
1713358429607739000,12.27073876953125,0.815460205078125,-8.946914672851562,0.3009185791015625
1713358429617718300,12.28071826171875,0.425201416015625,-9.636459350585938,0.2961273193359375
1713358429627697400,12.290697509765625,-0.017730712890625,-10.431320190429688,0.324859619140625
1713358429637646000,12.30064599609375,0.013397216796875,-10.914962768554688,0.4373779296875
1713358429647625500,12.31062548828125,0.1283111572265625,-10.91973876953125,0.2482452392578125
1713358429657604600,12.3206044921875,0.7723541259765625,-10.783279418945312,0.516387939453125
1713358429667553300,12.33055322265625,1.2512054443359375,-10.596527099609375,0.621734619140625
1713358429677532700,12.34053271484375,0.76995849609375,-10.409774780273438,0.844390869140625
1713358429687511800,12.35051171875,-0.726409912109375,-10.268524169921875,1.0670623779296875
1713358429697460700,12.360460693359375,-2.5196685791015625,-10.366683959960938,1.3208465576171875
1713358429707439900,12.37043994140625,-3.326507568359375,-10.625259399414062,1.2322540283203125
1713358429717419000,12.3804189453125,-3.252288818359375,-10.809616088867188,0.8827056884765625
1713358429727368000,12.390367919921875,-2.4957275390625,-10.479217529296875,0.197967529296875
1713358429737347000,12.40034716796875,-1.6266326904296875,-9.509552001953125,-1.099700927734375
1713358429747326500,12.410326416015625,-1.1789093017578125,-8.88946533203125,-2.9264678955078125
1713358429757275100,12.420275146484375,-1.0472412109375,-8.523147583007812,-4.4635467529296875
1713358429767254300,12.430254150390626,-1.423126220703125,-8.367523193359375,-5.7109222412109375
1713358429777203000,12.440202880859376,-2.0647735595703125,-8.460891723632812,-6.9463348388671875
1713358429787182300,12.450182373046875,-2.893157958984375,-8.724258422851562,-7.5496826171875
1713358429797161500,12.460161376953126,-3.336090087890625,-9.15521240234375,-7.798675537109375
1713358429807110400,12.4701103515625,-3.7718353271484375,-9.674758911132812,-7.238433837890625
1713358429817089500,12.480089599609375,-4.1429443359375,-10.40020751953125,-6.5393218994140625
1713358429827068700,12.490068603515626,-3.970550537109375,-11.410552978515625,-4.69818115234375
1713358429837017600,12.500017578125,-3.218780517578125,-12.645965576171875,-2.2656707763671875
1713358429846996700,12.509996826171875,-1.9690093994140625,-13.787994384765625,-0.000762939453125
1713358429856976100,12.51997607421875,-1.51409912109375,-14.42724609375,1.392669677734375
1713358429866955300,12.529955322265625,-2.4023590087890625,-14.341064453125,2.1085357666015625
1713358429876934400,12.539934326171876,-4.34405517578125,-13.984329223632812,1.9600982666015625
1713358429886883300,12.54988330078125,-5.47412109375,-13.459991455078125,2.7118682861328125
1713358429896862500,12.559862548828125,-6.1540679931640625,-12.157546997070312,3.0853729248046875
1713358429906841600,12.569841552734376,-6.7933197021484375,-11.33154296875,2.228240966796875
1713358429916790500,12.57979052734375,-6.28814697265625,-11.149581909179688,1.0311431884765625
1713358429926769700,12.589769775390625,-4.0782928466796875,-10.95086669921875,0.3631591796875
1713358429936749000,12.5997490234375,-0.879638671875,-10.838348388671875,-0.3694610595703125
1713358429946697700,12.60969775390625,1.6055450439453125,-10.390625,-0.8650665283203125
1713358429956676900,12.6196767578125,3.0803680419921875,-9.938125610351562,-0.30242919921875
1713358429966656300,12.62965625,2.29986572265625,-9.547866821289062,0.4349822998046875
1713358429976605000,12.63960498046875,1.572021484375,-8.832000732421875,0.8827056884765625
1713358429986584000,12.649583984375,1.5480804443359375,-8.293304443359375,0.253021240234375
1713358429996563500,12.6595634765625,1.3421783447265625,-7.950927734375,-0.414947509765625
1713358430006512000,12.66951220703125,1.30865478515625,-7.2398529052734375,0.073455810546875
1713358430016491300,12.6794912109375,1.1147308349609375,-6.8735504150390625,0.073455810546875
1713358430026470700,12.689470703125,0.65264892578125,-6.8376312255859375,0.2075347900390625
1713358430036419300,12.69941943359375,0.4323883056640625,-6.909454345703125,0.2649993896484375
1713358430046398700,12.709398681640625,0.255218505859375,-7.1153564453125,0.0327606201171875
1713358430056347400,12.719347412109375,-0.1805267333984375,-7.2494354248046875,-0.180328369140625
1713358430066326500,12.729326416015626,-0.5516357421875,-7.3356170654296875,-0.48199462890625
1713358430076306000,12.739305908203125,-0.656982421875,-7.37872314453125,-0.6400146484375
1713358430086254600,12.749254638671875,-0.429534912109375,-7.4553375244140625,-0.6639556884765625
1713358430096233700,12.759233642578126,-0.017730712890625,-7.4553375244140625,-0.898590087890625
1713358430106213000,12.769213134765625,1.19134521484375,-7.3595733642578125,-1.1092681884765625
1713358430116161800,12.779161865234375,1.90960693359375,-7.2015533447265625,-1.1978607177734375
1713358430126141000,12.789140869140626,1.8976287841796875,-7.151275634765625,-1.058990478515625
1713358430136120300,12.799120361328125,2.08917236328125,-7.1919708251953125,-0.7142333984375
1713358430146099500,12.809099365234376,2.137054443359375,-7.5151824951171875,-0.0055389404296875
1713358430156048400,12.81904833984375,2.3094329833984375,-7.8336181640625,0.8946685791015625
1713358430166027500,12.829027587890625,2.4554901123046875,-8.063461303710938,1.9912261962890625
1713358430176006700,12.839006591796876,2.6733551025390625,-8.305282592773438,3.327178955078125
1713358430185986000,12.848986083984375,2.8433380126953125,-8.671585083007812,4.7014617919921875
1713358430195934700,12.858934814453125,2.4195709228515625,-9.30126953125,5.9105224609375
1713358430205914000,12.8689140625,1.291900634765625,-10.172760009765625,6.3031768798828125
1713358430215893200,12.878893310546875,0.0157928466796875,-11.0777587890625,5.297607421875
1713358430225842000,12.888842041015625,-1.348907470703125,-11.942062377929688,3.3104248046875
