time,seconds_elapsed,z,y,x
1715093753963365400,0.152365478515625,2.5433011054992676,-0.8455109596252441,1.0573716163635254
1715093753973344500,0.162344482421875,3.0333499908447266,-1.0059332847595215,1.2513588666915894
1715093753983324000,0.172323974609375,2.804623603820801,-1.090299129486084,1.029486894607544
1715093753993303000,0.182302978515625,2.7269129753112793,-1.0521478652954102,1.2518255710601807
1715093754003282200,0.1922822265625,0.6432018280029297,-0.3127126693725586,-0.026494748890399933
1715093754013261600,0.202261474609375,0.6548748016357422,0.6409759521484375,-1.5257335901260376
1715093754023240700,0.21224072265625,0.8611059188842773,1.286703109741211,-1.458220362663269
1715093754033220000,0.22222021484375,0.9602780342102051,0.7735686302185059,0.05711495876312256
1715093754043168800,0.232168701171875,1.823045253753662,0.8026881217956543,1.9891589879989624
1715093754053148000,0.24214794921875,3.058802604675293,1.9597506523132324,3.3127496242523193
1715093754063127300,0.252127197265625,3.8773508071899414,2.698761463165283,3.3495802879333496
1715093754073106400,0.2621064453125,4.24189567565918,2.2610154151916504,2.836064100265503
1715093754083085800,0.2720859375,3.501150131225586,0.6867256164550781,1.7033441066741943
1715093754093034500,0.282034423828125,1.8608818054199219,-0.5455970764160156,0.29115283489227295
1715093754103013600,0.292013671875,1.2396955490112305,-0.6590085029602051,-0.24285262823104858
1715093754112993000,0.301992919921875,1.2202157974243164,0.44519662857055664,0.042166054248809814
1715093754122972200,0.31197216796875,1.1420049667358398,1.7969932556152344,0.8816848993301392
1715093754132951600,0.32195166015625,0.036561012268066406,1.3500113487243652,2.0153942108154297
1715093754142900200,0.331900146484375,-0.42410755157470703,0.830655574798584,1.8068023920059204
1715093754152879400,0.34187939453125,-0.6996431350708008,1.012014389038086,1.2790979146957397
1715093754162858800,0.351858642578125,-1.429616928100586,1.1935672760009766,1.0871762037277222
1715093754172838000,0.361837890625,-1.7663002014160156,1.177886962890625,1.0712757110595703
1715093754182786600,0.37178662109375,-1.2899303436279297,1.1199088096618652,1.1273726224899292
1715093754192766000,0.381765869140625,-0.5445642471313477,0.6593999862670898,0.8959131240844727
1715093754202745000,0.3917451171875,-0.1871929168701172,0.30233144760131836,0.4029419422149658
1715093754212694000,0.401694091796875,-0.31638336181640625,-0.08112335205078125,-0.195639967918396
1715093754222673200,0.411673095703125,-0.8787517547607422,-0.29747581481933594,-0.6158932447433472
1715093754232652300,0.42165234375,-1.2955923080444336,-0.4601120948791504,-0.7601970434188843
1715093754242601200,0.431601318359375,-1.2369165420532227,-0.37461090087890625,-0.7770034074783325
1715093754252580400,0.441580322265625,-1.0966196060180664,-0.3905801773071289,-0.7203510999679565
1715093754262559700,0.451559814453125,-0.6810951232910156,-0.46911144256591797,-0.746544361114502
1715093754272508400,0.46150830078125,-0.5699148178100586,-0.5760903358459473,-0.7402344942092896
1715093754282487600,0.471487548828125,-0.8990020751953125,-0.4299921989440918,-0.5127770900726318
1715093754292467000,0.481467041015625,-1.1354246139526367,-0.45937681198120117,-0.8819820880889893
1715093754302415600,0.49141552734375,-1.298501968383789,-0.557680606842041,-1.3218505382537842
1715093754312394800,0.501394775390625,-1.0725078582763672,-0.33944177627563477,-1.3948476314544678
1715093754322374100,0.5113740234375,-1.130929946899414,-0.47648000717163086,-1.1700429916381836
1715093754332322800,0.52132275390625,-0.9900474548339844,-0.5438518524169922,-0.888361394405365
1715093754342302000,0.531302001953125,-2.2968435287475586,-2.151549816131592,-0.8962703943252563
1715093754352281300,0.54128125,-2.9593687057495117,-3.2963314056396484,-1.7341761589050293
1715093754362230000,0.55122998046875,-2.3711280822753906,-3.015596389770508,-1.8323954343795776
1715093754372209200,0.561209228515625,-1.6327714920043945,-2.6780171394348145,-1.2472819089889526
1715093754382198800,0.57119873046875,-2.2444705963134766,-3.163173198699951,-0.47101008892059326
1715093754392178000,0.581177978515625,-1.4107189178466797,-3.7077066898345947,-0.7982025146484375
1715093754402157300,0.5911572265625,0.6586360931396484,-3.1227898597717285,-0.9495058059692383
1715093754412106000,0.60110595703125,3.1060619354248047,-2.6869497299194336,-1.174323320388794
1715093754422085000,0.611085205078125,4.660429954528809,-2.514798879623413,-0.28051233291625977
1715093754432064500,0.621064453125,5.318874359130859,-1.9383158683776855,0.4537851810455322
1715093754442043600,0.631043701171875,-6.058311462402344,2.937680959701538,0.8332915306091309
1715093754451992600,0.64099267578125,-1.8951921463012695,-1.3248796463012695,1.3235759735107422
1715093754461971700,0.6509716796875,-5.062989234924316,-7.457889556884766,1.7102620601654053
1715093754471950800,0.660950927734375,-8.5289888381958,-4.8175177574157715,0.7434871196746826
1715093754481930200,0.67093017578125,-6.303946495056152,-5.12216854095459,-1.1012017726898193
1715093754491879000,0.68087890625,-2.1199283599853516,-4.833263874053955,-4.535264015197754
1715093754501858300,0.6908583984375,3.0254011154174805,-3.0518906116485596,-7.822967529296875
1715093754511837400,0.70083740234375,3.668562889099121,-2.696533679962158,-8.383625984191895
1715093754521786000,0.7107861328125,2.7176828384399414,-3.021231174468994,-6.766532897949219
1715093754531765500,0.720765625,2.36759090423584,-4.387355804443359,-2.1457643508911133
1715093754541744600,0.73074462890625,1.0667352676391602,-4.830598831176758,1.9236446619033813
1715093754551693300,0.740693359375,0.09648609161376953,-4.975866317749023,3.5754642486572266
1715093754561672700,0.750672607421875,-1.8734846115112305,-4.615645885467529,3.6244497299194336
1715093754571651800,0.76065185546875,-3.356696128845215,-4.121899604797363,4.172844886779785
1715093754581600500,0.7706005859375,-4.38679313659668,-4.432872295379639,3.7582004070281982
1715093754591580000,0.780579833984375,-5.7112226486206055,-4.870334625244141,2.760270833969116
1715093754601559000,0.79055908203125,-5.97379207611084,-4.321154594421387,1.9282338619232178
1715093754611508000,0.800508056640625,-5.735833168029785,-4.007711410522461,1.551269292831421
1715093754621487000,0.810487060546875,-5.969402313232422,-2.5928497314453125,3.0778989791870117
1715093754631466200,0.82046630859375,-5.878924369812012,-2.9012362957000732,3.646925449371338
1715093754641415200,0.830415283203125,-3.7951035499572754,-1.9886032342910767,4.680378437042236
1715093754651394300,0.840394287109375,-2.5625200271606445,-0.8162292242050171,6.025574684143066
1715093754661373700,0.850373779296875,-3.399979591369629,0.715031623840332,9.507548332214355
1715093754671323100,0.8603232421875,-4.6069865226745605,-0.15485095977783203,9.858156204223633
1715093754681302300,0.87030224609375,-3.7394022941589355,1.309074878692627,10.619726181030273
1715093754691281400,0.880281494140625,-1.658766746520996,1.394768476486206,9.31247329711914
1715093754701260800,0.8902607421875,-1.1444220542907715,-1.877328634262085,6.237801551818848
1715093754711240000,0.900239990234375,1.0944466590881348,-4.296173572540283,4.6953911781311035
1715093754721188900,0.91018896484375,4.63449239730835,-4.1679253578186035,2.3642077445983887
1715093754731168000,0.92016796875,7.981918811798096,-6.048463821411133,-0.7922015190124512
1715093754741147100,0.930147216796875,12.649444580078125,-6.559959411621094,-2.250586986541748
1715093754751126500,0.94012646484375,17.450855255126953,-3.813754081726074,-4.016219615936279
1715093754761075200,0.9500751953125,15.473843574523926,-1.8194870948791504,-5.2400383949279785
1715093754771054600,0.9600546875,10.110986709594727,-3.109943389892578,-5.756528377532959
1715093754781033700,0.97003369140625,7.90794038772583,-1.7556896209716797,-6.124016284942627
1715093754790982400,0.979982421875,4.73492431640625,-0.9892311096191406,-6.402673721313477
1715093754800961800,0.9899619140625,1.8341670036315918,1.392280101776123,-4.984213352203369
1715093754810941000,0.99994091796875,0.8107733726501465,1.7328453063964844,-4.875893592834473
1715093754820889600,1.0098896484375,2.274158477783203,1.8432798385620117,-3.60163950920105
1715093754830869000,1.019868896484375,3.9424495697021484,2.398634910583496,-1.4606006145477295
1715093754840848100,1.02984814453125,6.3015289306640625,1.8297595977783203,-0.2572498321533203
1715093754850796800,1.039796875,8.800630569458008,2.4206180572509766,1.4377210140228271
1715093754860776200,1.049776123046875,9.846138000488281,2.5613975524902344,1.7705225944519043
1715093754870755300,1.05975537109375,8.796563148498535,2.232213020324707,1.6670794486999512
1715093754880704300,1.069704345703125,6.6484055519104,2.79995059967041,1.7730529308319092
1715093754890683400,1.079683349609375,7.35709285736084,2.9621458053588867,0.7810158729553223
1715093754900662500,1.08966259765625,7.6849822998046875,2.783140182495117,0.4667038917541504
1715093754910611500,1.099611572265625,9.135749816894531,2.7038097381591797,1.1877201795578003
1715093754920590600,1.109590576171875,9.848836898803711,2.276789665222168,2.5308451652526855
1715093754930570000,1.119570068359375,9.953461647033691,1.5384740829467773,2.953594207763672
1715093754940518700,1.1295185546875,9.536623001098633,1.2535858154296875,2.7367212772369385
1715093754950497800,1.139497802734375,8.016030311584473,1.1276912689208984,1.9363993406295776
1715093754960477200,1.149477294921875,6.8971357345581055,0.819920539855957,1.7715232372283936
1715093754970456300,1.159456298828125,7.947314739227295,1.9074087142944336,2.327806234359741
1715093754980435700,1.169435791015625,6.782006740570068,1.834136962890625,3.477544069290161
1715093754990384400,1.17938427734375,5.001765251159668,1.3455171585083008,4.544461250305176
1715093755000363500,1.189363525390625,4.5426025390625,1.5424766540527344,4.784585952758789
1715093755010343000,1.199343017578125,3.7739884853363037,2.22882080078125,5.185717582702637
1715093755020322000,1.209322021484375,2.6624398231506348,2.350919723510742,5.539456367492676
1715093755030270700,1.219270751953125,-1.0846760272979736,2.4214134216308594,7.712705135345459
1715093755040250000,1.22925,-1.8597381114959717,1.3205690383911133,6.963671684265137
1715093755050229200,1.239229248046875,-1.2908470630645752,2.1732072830200195,7.064993381500244
1715093755060178000,1.249177978515625,-1.9422950744628906,1.6226205825805664,7.725277900695801
1715093755070157300,1.2591572265625,-2.1781482696533203,-0.0946493148803711,5.754824638366699
1715093755080136400,1.269136474609375,-2.29423451423645,-0.9635963439941406,3.756381034851074
1715093755090085000,1.279085205078125,-2.9704737663269043,-0.5328054428100586,1.4763336181640625
1715093755100064500,1.289064453125,-2.7558188438415527,-0.7871694564819336,1.553084373474121
1715093755110043600,1.299043701171875,-2.6452887058258057,0.4464120864868164,0.8331665992736816
1715093755119992600,1.30899267578125,-2.861799955368042,0.040884971618652344,0.4126114845275879
1715093755129971700,1.3189716796875,-2.283970355987549,0.024184226989746094,-0.1076207160949707
1715093755139950800,1.328950927734375,-1.7562450170516968,0.4646644592285156,0.23930001258850098
1715093755149907500,1.338907470703125,-2.100907325744629,0.8483085632324219,1.0432920455932617
1715093755159886800,1.348886962890625,-0.16676950454711914,1.5253381729125977,1.2505862712860107
1715093755169866000,1.358865966796875,-0.6294409036636353,1.537607192993164,1.7643465995788574
1715093755179815000,1.36881494140625,-1.757457971572876,2.439311981201172,0.8855748176574707
1715093755189794000,1.3787939453125,-2.6883575916290283,3.604724884033203,0.12942790985107422
1715093755199773200,1.388773193359375,-3.5724897384643555,4.209139823913574,0.676609992980957
1715093755209722000,1.39872216796875,-2.6446304321289062,4.779705047607422,1.9249486923217773
1715093755219701200,1.408701171875,-1.2675496339797974,4.452531814575195,3.6654324531555176
1715093755229680600,1.4186806640625,0.34933724999427795,4.159832954406738,5.132576942443848
1715093755239629300,1.42862939453125,1.53328537940979,3.53243350982666,5.647540092468262
1715093755249608400,1.4386083984375,2.4811527729034424,2.3701467514038086,6.0876078605651855
1715093755259596300,1.44859619140625,7.13128662109375,0.5336236953735352,5.076516151428223
1715093755269575400,1.458575439453125,9.918721199035645,-5.662877082824707,0.20681023597717285
1715093755279554800,1.468554931640625,0.14451980590820312,-6.243869781494141,2.7647476196289062
1715093755289503500,1.47850341796875,-2.5268702507019043,0.19819355010986328,9.25497817993164
1715093755299482600,1.488482666015625,-2.357206344604492,1.1615571975708008,10.404266357421875
1715093755309462000,1.4984619140625,-1.9834613800048828,-1.4725427627563477,10.825498580932617
1715093755319441200,1.508441162109375,-0.24187125265598297,-0.795954704284668,13.538865089416504
1715093755329389800,1.518389892578125,0.6807165145874023,-2.817476272583008,12.685342788696289
1715093755339369200,1.528369140625,0.5619869232177734,-6.537477493286133,4.64206075668335
1715093755349326300,1.538326416015625,2.743854284286499,-10.725820541381836,-5.825318813323975
1715093755359275000,1.54827490234375,-0.02330450713634491,-10.340021133422852,-6.7845282554626465
1715093755369254400,1.55825439453125,1.0802041292190552,-7.930261611938477,-7.95155668258667
1715093755379233500,1.568233642578125,2.5660176277160645,-4.955286979675293,-5.898030757904053
1715093755389182200,1.57818212890625,2.2348105907440186,-9.874375343322754,-13.327980041503906
1715093755399161600,1.58816162109375,-0.22326546907424927,-11.638680458068848,-12.2446870803833
1715093755409155600,1.598155517578125,-0.37587296962738037,-9.676331520080566,-7.546074390411377
1715093755419104500,1.6081044921875,-1.8290719985961914,-5.158348083496094,-2.350306272506714
1715093755429083600,1.618083740234375,-0.6353633403778076,-1.6121416091918945,-0.6813379526138306
1715093755439062800,1.628062744140625,2.4663655757904053,-1.958979606628418,-0.797086238861084
1715093755449011700,1.63801171875,3.937652111053467,-1.0508852005004883,0.11570334434509277
1715093755458990800,1.647990966796875,2.9460957050323486,-0.7823657989501953,0.34892475605010986
1715093755468970000,1.657969970703125,0.7266099452972412,1.7834768295288086,-1.0814294815063477
1715093755478919000,1.6679189453125,-2.4156389236450195,4.419931411743164,-2.453474998474121
1715093755488898000,1.67789794921875,-4.237588405609131,5.687474250793457,-2.10219407081604
1715093755498877400,1.68787744140625,-3.4738056659698486,4.8000688552856445,-0.7297224998474121
1715093755508826000,1.697826171875,-0.48253506422042847,3.3053464889526367,0.33911240100860596
1715093755518805200,1.70780517578125,2.4073712825775146,2.4020891189575195,2.020204782485962
1715093755528784600,1.71778466796875,3.7173097133636475,0.44122314453125,1.091802716255188
1715093755538763800,1.727763671875,1.2515366077423096,0.2573509216308594,-0.18240594863891602
1715093755548712400,1.73771240234375,0.006753981113433838,0.5863323211669922,-0.0652199387550354
1715093755558691800,1.74769189453125,-0.6259618401527405,0.5599002838134766,-0.8555251359939575
1715093755568671000,1.7576708984375,0.2571994960308075,0.23521995544433594,-0.8153373003005981
1715093755578650400,1.767650390625,-0.38842394948005676,0.3346443176269531,-0.3580451011657715
1715093755588629500,1.77762939453125,-1.177125096321106,0.42486572265625,0.16842660307884216
1715093755598578200,1.787578125,-1.0550479888916016,-0.07328128814697266,0.12701813876628876
1715093755608557600,1.7975576171875,-0.8464274406433105,-0.5039272308349609,-0.18729758262634277
1715093755618536700,1.80753662109375,-0.6649841666221619,-0.8272361755371094,-0.31444212794303894
1715093755628485400,1.8174853515625,-0.45820605754852295,-0.7868690490722656,-0.28769251704216003
1715093755638464800,1.82746484375,1.3365947008132935,-0.7657957077026367,-0.0016713142395019531
1715093755648444000,1.83744384765625,2.8527519702911377,-1.516326904296875,0.6682659387588501
1715093755658392800,1.847392822265625,-1.0056453943252563,-0.47516822814941406,0.13892655074596405
1715093755668372000,1.8573720703125,-1.118232011795044,-0.08314704895019531,0.2783462405204773
1715093755678351000,1.86735107421875,-0.974332332611084,0.18006515502929688,0.7268325090408325
1715093755688300000,1.877300048828125,-2.4206795692443848,6.423134803771973,2.5419909954071045
1715093755698279200,1.887279052734375,-2.2431187629699707,8.619486808776855,2.2788960933685303
1715093755708258600,1.897258544921875,1.4111613035202026,6.8642683029174805,0.07659707963466644
1715093755718207200,1.907207275390625,0.5072813034057617,6.01630973815918,-0.19836820662021637
1715093755728186400,1.917186279296875,0.1617645025253296,4.021218299865723,-0.7415330410003662
1715093755738165800,1.927165771484375,1.1877377033233643,1.906142234802246,-0.691789448261261
1715093755748145000,1.937144775390625,2.049466133117676,0.36130237579345703,-0.7333860397338867
1715093755758093600,1.947093505859375,1.7789084911346436,0.8314609527587891,-0.7012866139411926
1715093755768073000,1.957072998046875,2.842465400695801,2.3993940353393555,-0.560705840587616
1715093755778052000,1.967052001953125,2.811352491378784,1.898402214050293,-0.22298908233642578
1715093755788000800,1.977000732421875,0.9573919773101807,-0.3424234390258789,-0.6193785667419434
1715093755797980200,1.986980224609375,-1.0700628757476807,-1.1564369201660156,-1.2222427129745483
1715093755807959300,1.996959228515625,-2.5672714710235596,-4.262903213500977,1.4278701543807983
1715093755817938700,2.006938720703125,-3.5428898334503174,-8.270194053649902,4.902807235717773
1715093755827887400,2.016887451171875,-2.8811042308807373,-7.497414588928223,3.4043490886688232
1715093755837866500,2.026866455078125,-1.021987795829773,-2.880558967590332,1.369397759437561
1715093755847846000,2.036845947265625,1.0471558570861816,-0.5929632186889648,0.1510922759771347
1715093755857825000,2.046824951171875,2.1003129482269287,-0.8748540878295898,0.7415061593055725
1715093755867804400,2.056804443359375,0.9848441481590271,-4.43819522857666,-1.0432038307189941
1715093755877753000,2.066753173828125,-0.1523178517818451,-5.649631500244141,-1.5760254859924316
1715093755887732200,2.076732177734375,-1.0989978313446045,-3.877483367919922,-1.2814435958862305
1715093755897711600,2.086711669921875,-1.1961450576782227,-1.9330549240112305,-0.2399573028087616
1715093755907660300,2.096660400390625,-0.909271240234375,-1.3157339096069336,0.24128583073616028
1715093755917639400,2.106639404296875,-0.8117471933364868,-1.3997669219970703,0.2325853705406189
1715093755927618800,2.116618896484375,-0.9507049322128296,-1.5361661911010742,0.20942428708076477
1715093755937567500,2.1265673828125,-0.8638095259666443,-1.8009033203125,0.08448532223701477
1715093755947547000,2.136546875,-0.6532160043716431,-2.0098676681518555,0.15683519840240479
1715093755957526000,2.146526123046875,-0.6262883543968201,-1.6938934326171875,0.14906945824623108
1715093755967474700,2.156474609375,-0.7699443697929382,-0.9079399108886719,0.27177494764328003
1715093755977454000,2.1664541015625,-1.6361973285675049,0.833622932434082,1.0464916229248047
1715093755987433200,2.17643310546875,-2.0553505420684814,1.2398357391357422,0.4851200580596924
1715093755997382000,2.1863818359375,-1.454057216644287,2.0498180389404297,0.5102163553237915
1715093756007361300,2.196361328125,-0.6851996183395386,2.6564102172851562,0.46407008171081543
1715093756017340400,2.20634033203125,-0.1974678337574005,2.242983818054199,0.4314730763435364
1715093756027289000,2.2162890625,-0.11812204122543335,1.5384387969970703,0.3282649517059326
1715093756037268500,2.2262685546875,-0.15799851715564728,1.046823501586914,0.1156926155090332
1715093756047247600,2.23624755859375,-0.2626609802246094,0.7576541900634766,-0.06409192085266113
1715093756057196500,2.246196533203125,-0.4482938349246979,0.5438051223754883,-0.12142860889434814
1715093756067175700,2.25617578125,-0.4379819631576538,0.3260183334350586,0.346622109413147
1715093756077154800,2.26615478515625,-0.7269994020462036,0.4407949447631836,0.39721089601516724
1715093756087103700,2.276103759765625,-0.6936547756195068,0.5764360427856445,1.144705057144165
1715093756097083000,2.286082763671875,-0.7734229564666748,0.6852436065673828,1.2038757801055908
1715093756107062300,2.296062255859375,-0.7239517569541931,0.9487180709838867,1.3435956239700317
1715093756117041400,2.30604150390625,-0.5446794033050537,0.9060430526733398,1.4451717138290405
1715093756127020500,2.3160205078125,-0.3184144198894501,0.6658802032470703,1.3518955707550049
1715093756136969500,2.325969482421875,0.1041521281003952,0.3361177444458008,1.3933870792388916
1715093756146948600,2.335948486328125,0.19360648095607758,0.08687591552734375,0.8917333483695984
1715093756156928000,2.345927978515625,0.4988388419151306,-0.32300567626953125,0.8874272704124451
1715093756166907100,2.3559072265625,0.4913264811038971,-0.9215221405029297,0.8331177830696106
1715093756176855800,2.365855712890625,0.5729784965515137,-1.4338340759277344,0.8568291664123535
1715093756186835200,2.375835205078125,0.6904304027557373,-1.6292123794555664,0.9569471478462219
1715093756196814300,2.385814453125,0.9454139471054077,-1.2993659973144531,1.061425805091858
1715093756206763000,2.395762939453125,0.7881982922554016,-1.278763771057129,1.3095910549163818
1715093756216742400,2.405742431640625,0.6755911111831665,-0.6502418518066406,1.148331642150879
1715093756226721500,2.415721435546875,0.7739070057868958,-0.03374290466308594,1.2115389108657837
1715093756236670200,2.425670166015625,0.8434167504310608,0.3490438461303711,1.1428229808807373
1715093756246649600,2.435649658203125,0.8669177889823914,0.5896663665771484,1.1187982559204102
1715093756256628700,2.445628662109375,1.044520378112793,0.7982902526855469,1.0745368003845215
1715093756266577400,2.455577392578125,1.1440764665603638,0.7340536117553711,1.3122740983963013
1715093756276556800,2.465556884765625,0.8829606175422668,0.7801408767700195,1.057002305984497
1715093756286536000,2.475535888671875,1.4148731231689453,0.7665872573852539,1.38585364818573
1715093756296484900,2.48548486328125,1.4665967226028442,0.5814590454101562,1.4529333114624023
1715093756306464000,2.495464111328125,1.506313681602478,0.4757862091064453,1.3933284282684326
1715093756316443100,2.505443115234375,1.5904052257537842,0.5135440826416016,1.4449679851531982
1715093756326392000,2.51539208984375,1.658374309539795,1.3068161010742188,1.3358769416809082
1715093756336371200,2.52537109375,1.9851531982421875,0.5876636505126953,1.4071664810180664
1715093756346350600,2.5353505859375,1.7132996320724487,0.6083087921142578,1.5240343809127808
1715093756356299300,2.54529931640625,1.5310258865356445,0.6932315826416016,1.5021183490753174
1715093756366278400,2.5552783203125,1.6151769161224365,0.6202392578125,1.666401982307434
1715093756376257800,2.5652578125,1.4029357433319092,0.6331357955932617,1.695084810256958
1715093756386206500,2.57520654296875,0.7899891138076782,0.8820829391479492,1.6184159517288208
1715093756396185600,2.585185546875,0.7658534049987793,0.6337490081787109,2.0969467163085938
1715093756406165000,2.5951650390625,0.12046617269515991,0.016333580017089844,2.121182918548584
1715093756416144100,2.60514404296875,0.07805624604225159,-0.6227397918701172,1.9356005191802979
1715093756426123500,2.61512353515625,1.0251802206039429,-1.8528547286987305,1.4358127117156982
1715093756436072200,2.625072265625,2.7717413902282715,-3.029928207397461,0.20439395308494568
1715093756446051300,2.63505126953125,3.621011257171631,-2.7643795013427734,-0.8735618591308594
1715093756456030700,2.64503076171875,2.0228216648101807,-0.11817455291748047,-1.2813047170639038
1715093756466009900,2.655009765625,-0.13349930942058563,2.247690200805664,-0.8530482053756714
1715093756475958500,2.66495849609375,-0.616843581199646,3.5562448501586914,0.9543242454528809
1715093756485938000,2.67493798828125,-0.7507792711257935,4.238736152648926,1.7210379838943481
1715093756495917000,2.6849169921875,-1.1019192934036255,4.103400230407715,2.0684702396392822
1715093756505866000,2.694865966796875,-0.8922404050827026,2.6175785064697266,2.1363112926483154
1715093756515845000,2.70484521484375,-0.8438317775726318,-0.22361469268798828,1.5094404220581055
1715093756525824300,2.71482421875,-1.115582823753357,-1.6753501892089844,0.567151665687561
1715093756535773200,2.724773193359375,-0.5877846479415894,-1.4164657592773438,-0.1481773555278778
1715093756545752300,2.73475244140625,-0.012879371643066406,-1.101536750793457,-1.1817889213562012
1715093756555731700,2.744731689453125,-2.4274609088897705,-0.4799003601074219,-1.8922784328460693
1715093756565680400,2.754680419921875,-5.345549583435059,1.0651435852050781,-4.971441268920898
1715093756575659500,2.764659423828125,-1.021982192993164,1.5382146835327148,-5.170135021209717
1715093756585639000,2.774638916015625,0.4196821451187134,0.6547088623046875,-3.6847684383392334
1715093756595587600,2.784587646484375,6.115836143493652,-1.1169414520263672,-2.3826169967651367
1715093756605566700,2.794566650390625,10.450843811035156,-1.6999835968017578,0.6579909324645996
1715093756615546000,2.804546142578125,8.083739280700684,0.6136112213134766,0.9942296743392944
1715093756625494800,2.814494873046875,3.612948417663574,1.4040555953979492,3.1117491722106934
1715093756635474000,2.824473876953125,0.35227882862091064,0.4830961227416992,1.2815189361572266
1715093756645453300,2.834453369140625,-2.4979443550109863,-0.4793567657470703,-0.2282523810863495
1715093756655402000,2.844402099609375,-4.043361663818359,-0.8469991683959961,-1.7478413581848145
1715093756665381000,2.854381103515625,-4.248209476470947,-1.068211555480957,-2.6982290744781494
1715093756675360500,2.864360595703125,-2.921800136566162,-1.8611135482788086,-3.233077049255371
1715093756685339600,2.874339599609375,-1.1866302490234375,-2.3185930252075195,-2.496638059616089
1715093756695288600,2.88428857421875,0.09236842393875122,-2.0901012420654297,-1.7935975790023804
1715093756705267700,2.894267822265625,0.07577389478683472,-1.2279376983642578,-1.7784732580184937
1715093756715246800,2.904246826171875,-0.6711828708648682,-0.33360958099365234,-1.3706035614013672
1715093756725226200,2.914226318359375,-0.9879531264305115,0.18691730499267578,-0.5703949928283691
1715093756735205400,2.924205322265625,-0.8410338163375854,0.47115230560302734,-0.1995755136013031
1715093756745154300,2.934154296875,-0.7585626244544983,0.5606002807617188,-0.4393356740474701
1715093756755133400,2.944133544921875,-0.8258107304573059,0.5129079818725586,-0.5839906930923462
1715093756765112600,2.954112548828125,-0.6896478533744812,0.39984989166259766,-0.7323948740959167
1715093756775061500,2.9640615234375,-0.4874509572982788,0.31693267822265625,-0.7090945243835449
1715093756785040600,2.97404052734375,-0.45427072048187256,0.4501314163208008,-0.4565144181251526
1715093756795020000,2.98402001953125,-0.3316318988800049,0.6389570236206055,0.19965529441833496
1715093756804999200,2.993999267578125,-0.014316082000732422,0.8095521926879883,0.7093299627304077
1715093756814947800,3.00394775390625,0.24084830284118652,0.9338445663452148,1.3287266492843628
1715093756824927200,3.01392724609375,0.7094160318374634,1.1463289260864258,1.5309793949127197
1715093756834906400,3.02390625,0.9721627235412598,1.2560968399047852,1.3447656631469727
1715093756844855000,3.03385498046875,0.976897120475769,1.1847419738769531,1.457594633102417
1715093756854834400,3.04383447265625,1.1731467247009277,1.252680778503418,1.2880195379257202
1715093756864813600,3.0538134765625,1.071825623512268,1.4211549758911133,1.075793981552124
1715093756874762200,3.06376220703125,0.8667274713516235,1.625422477722168,1.2823442220687866
1715093756884741600,3.07374169921875,0.7417534589767456,1.6955947875976562,1.2909016609191895
1715093756894720800,3.083720703125,0.5538129806518555,1.7339420318603516,1.224372148513794
1715093756904669700,3.093669677734375,0.35015594959259033,1.7637138366699219,1.0879011154174805
1715093756914648800,3.10364892578125,0.291292667388916,1.5934648513793945,0.889782190322876
1715093756924628000,3.1136279296875,0.31926631927490234,1.0733537673950195,1.0321872234344482
1715093756934577000,3.123576904296875,0.6673954725265503,0.4574460983276367,0.8297983407974243
1715093756944556000,3.13355615234375,1.369020700454712,-0.03603076934814453,0.6879656314849854
1715093756954535400,3.143535400390625,1.9110326766967773,-0.3470287322998047,0.7129712104797363
1715093756964514600,3.1535146484375,2.4023561477661133,-0.37299633026123047,0.7871316075325012
1715093756974463200,3.163463134765625,2.7189767360687256,-0.42444705963134766,1.3689475059509277
1715093756984442600,3.173442626953125,2.7342352867126465,-0.3058738708496094,1.43247389793396
1715093756994421800,3.183421875,2.4759271144866943,-0.20168018341064453,1.5715110301971436
1715093757004401000,3.19340087890625,2.1882710456848145,0.09348869323730469,1.616464376449585
1715093757014380300,3.20338037109375,1.8175594806671143,0.17080307006835938,1.3315937519073486
1715093757024329000,3.213328857421875,1.339707851409912,-0.026467323303222656,1.3520004749298096
1715093757034308400,3.223308349609375,1.4373183250427246,-0.43532371520996094,1.0755822658538818
1715093757044287500,3.23328759765625,1.5321071147918701,-0.9779930114746094,0.9271403551101685
1715093757054236200,3.243236083984375,1.6620683670043945,-1.5413875579833984,0.6562994122505188
1715093757064215600,3.253215576171875,1.8654463291168213,-2.127908706665039,0.5786617994308472
1715093757074194700,3.263194580078125,2.704430341720581,-2.3964309692382812,0.41616153717041016
1715093757084143400,3.273143310546875,3.4078798294067383,-2.6868104934692383,0.7530302405357361
1715093757094122800,3.283122802734375,3.3806910514831543,-2.8183021545410156,0.9694771766662598
1715093757104102000,3.293101806640625,4.362102508544922,-2.6066036224365234,1.2011687755584717
1715093757114050600,3.303050537109375,3.9936470985412598,-2.7178173065185547,2.0051867961883545
1715093757124030000,3.313030029296875,4.11064338684082,-2.5893259048461914,2.4616756439208984
1715093757134009000,3.323009033203125,3.4868032932281494,-2.510194778442383,3.2650158405303955
1715093757143958000,3.3329580078125,2.9487478733062744,-2.142793655395508,3.829902172088623
1715093757153937200,3.342937255859375,1.904266595840454,-1.4629974365234375,3.770179510116577
1715093757163916300,3.352916259765625,0.07313966751098633,-0.7527122497558594,3.1880197525024414
1715093757173865200,3.362865234375,-0.41040849685668945,0.13878440856933594,2.4148528575897217
1715093757183844400,3.37284423828125,0.11489319801330566,1.54998779296875,1.826924443244934
1715093757193823700,3.38282373046875,0.31211400032043457,2.72939395904541,0.5194091796875
1715093757203772400,3.3927724609375,-0.4525667428970337,4.030988693237305,-0.33694422245025635
1715093757213751600,3.40275146484375,-0.841423511505127,4.568955421447754,-1.759383201599121
1715093757223731000,3.41273095703125,-0.6451115608215332,4.651904106140137,-2.7442102432250977
1715093757233679600,3.4226796875,-0.6850171089172363,4.071799278259277,-3.861349582672119
1715093757243658800,3.43265869140625,-1.164119005203247,2.7712202072143555,-5.086546897888184
1715093757253638100,3.44263818359375,-2.1034207344055176,1.2651920318603516,-5.773931980133057
1715093757263617300,3.4526171875,-2.3062076568603516,-1.1605167388916016,-5.985195159912109
1715093757273596700,3.4625966796875,-2.7217659950256348,-2.596440315246582,-5.899233341217041
1715093757283545300,3.47254541015625,-0.8156213760375977,-5.22294807434082,-4.4900407791137695
1715093757293524500,3.4825244140625,-1.7907227277755737,-6.631670951843262,-1.7345608472824097
1715093757303504000,3.49250390625,-3.6390557289123535,-6.975427627563477,1.144219994544983
1715093757313483000,3.50248291015625,-6.166553497314453,-6.423644065856934,2.598599910736084
1715093757323431700,3.512431640625,-7.3691840171813965,-4.75389289855957,3.647273063659668
1715093757333411000,3.5224111328125,-7.241818428039551,-2.8114490509033203,4.403347969055176
1715093757343390200,3.53239013671875,-7.740684509277344,-2.1680517196655273,3.0988881587982178
1715093757353339000,3.5423388671875,-6.588784217834473,-0.5745697021484375,3.6887245178222656
1715093757363318300,3.552318359375,-4.194392204284668,0.5981245040893555,3.272217035293579
1715093757373297400,3.56229736328125,-2.1170496940612793,1.4968996047973633,2.8030998706817627
1715093757383246300,3.572246337890625,-0.30558764934539795,2.284181594848633,3.0058505535125732
1715093757393225500,3.5822255859375,0.3353160619735718,1.910079002380371,2.2093842029571533
1715093757403204600,3.59220458984375,0.11219072341918945,0.6598167419433594,1.2547924518585205
1715093757413153500,3.602153564453125,-0.15303480625152588,-0.1690235137939453,0.47941553592681885
1715093757423132700,3.612132568359375,-0.07806766033172607,-0.3527545928955078,0.09236270189285278
1715093757433112000,3.622112060546875,0.454662561416626,-0.20392227172851562,-0.12392079830169678
1715093757443060700,3.632060791015625,0.7314343452453613,-0.01975727081298828,-0.8931328058242798
1715093757453039900,3.642039794921875,0.3959617614746094,0.33150386810302734,-1.580500602722168
1715093757463019300,3.652019287109375,-0.1419532299041748,0.9858427047729492,-1.7183853387832642
1715093757472968000,3.661968017578125,-0.8146380186080933,1.7192058563232422,-1.8077306747436523
1715093757482947000,3.671947021484375,-1.1432468891143799,2.0461740493774414,-1.7969915866851807
1715093757492926500,3.681926513671875,-1.1610175371170044,2.126871109008789,-1.9059813022613525
1715093757502875100,3.691875244140625,-0.8482980728149414,2.2176942825317383,-2.1320481300354004
1715093757512854300,3.701854248046875,-0.8296382427215576,2.3007335662841797,-2.280089855194092
1715093757522833700,3.711833740234375,-0.14353680610656738,2.4086036682128906,-2.2479381561279297
1715093757532782300,3.7217822265625,0.3268483877182007,2.494537353515625,-2.2027928829193115
1715093757542761700,3.73176171875,0.6458172798156738,2.6602020263671875,-2.0507919788360596
1715093757552740900,3.741740966796875,0.8030521869659424,2.6808433532714844,-2.07883882522583
1715093757562720000,3.751719970703125,0.8477896451950073,2.7980947494506836,-1.964695930480957
1715093757572699400,3.761699462890625,0.7930729389190674,2.973860740661621,-1.7501018047332764
1715093757582648000,3.77164794921875,0.8701237440109253,3.086432456970215,-1.5642180442810059
1715093757592627500,3.78162744140625,0.9486596584320068,3.064535140991211,-1.110774040222168
1715093757602606600,3.791606689453125,1.062814474105835,2.8970842361450195,-0.47800934314727783
1715093757612585700,3.801585693359375,1.1654472351074219,2.579803466796875,0.4633321762084961
1715093757622534700,3.81153466796875,1.2438119649887085,2.136855125427246,1.7065907716751099
1715093757632513800,3.821513671875,1.2562611103057861,1.6082181930541992,3.447453022003174
1715093757642493200,3.8314931640625,1.1632261276245117,0.765660285949707,5.3266921043396
1715093757652441900,3.84144189453125,0.8348144292831421,-0.13683223724365234,7.165561676025391
1715093757662421000,3.8514208984375,0.05974531173706055,-1.1623096466064453,8.14511489868164
1715093757672400400,3.861400390625,-1.1023962497711182,-2.199848175048828,7.870840549468994
1715093757682349000,3.87134912109375,-1.37173330783844,-3.0991058349609375,7.036957740783691
1715093757692328200,3.881328125,-1.3893654346466064,-3.134921073913574,5.039236068725586
1715093757702307600,3.8913076171875,-1.4027938842773438,-3.249211311340332,2.3480031490325928
1715093757712286700,3.90128662109375,0.10328483581542969,-3.563664436340332,0.37697458267211914
1715093757722235400,3.9112353515625,2.4583141803741455,-3.913259506225586,-0.9723942279815674
1715093757732214800,3.92121484375,4.689611434936523,-4.100186347961426,-0.7355116605758667
1715093757742194000,3.93119384765625,5.278777599334717,-3.785586357116699,-0.22216284275054932
1715093757752142600,3.941142578125,3.5611343383789062,-3.7025604248046875,0.8302667140960693
1715093757762122000,3.9511220703125,2.4336085319519043,-4.5455322265625,2.1011674404144287
1715093757772101000,3.96110107421875,0.7806357145309448,-5.927549362182617,2.4011645317077637
1715093757782050000,3.971050048828125,-3.267854690551758,-7.2451887130737305,1.0907937288284302
1715093757792029200,3.981029296875,-6.122389316558838,-9.408265113830566,-3.0444726943969727
1715093757802008300,3.99100830078125,-6.916625499725342,-11.0220947265625,-5.936744689941406
1715093757811957200,4.000957275390625,-3.5946927070617676,-7.744114875793457,-6.311715602874756
1715093757821936400,4.010936279296875,-1.6207427978515625,-1.0836219787597656,-6.076361179351807
1715093757831915800,4.020915771484375,-0.7372339963912964,2.7920942306518555,-4.004815578460693
1715093757841895000,4.03089501953125,-0.11378100514411926,4.624209403991699,-2.1907949447631836
1715093757851874000,4.0408740234375,-0.4555348753929138,5.32942008972168,-1.013824701309204
1715093757861823000,4.050822998046875,-1.0048770904541016,5.567509651184082,-0.628009557723999
1715093757871802000,4.060802001953125,-1.3665311336517334,5.792952537536621,-0.7632689476013184
1715093757881781500,4.070781494140625,-0.9734940528869629,5.315962791442871,-1.2946995496749878
1715093757891760600,4.0807607421875,-0.015791475772857666,3.8090038299560547,-0.6252024173736572
1715093757901709300,4.090709228515625,0.9543944597244263,1.6524848937988281,-1.1225873231887817
1715093757911688700,4.100688720703125,1.4740755558013916,-0.38237476348876953,-2.780947685241699
1715093757921667800,4.110667724609375,1.192515254020691,-1.9006223678588867,-3.9321017265319824
1715093757931616500,4.120616455078125,-0.14584365487098694,-2.5849199295043945,-5.43087100982666
1715093757941596000,4.130595947265625,-1.7054965496063232,-2.289311408996582,-7.2867045402526855
1715093757951575000,4.140574951171875,-1.8720686435699463,-1.017226219177246,-6.901694297790527
1715093757961523700,4.150523681640625,-0.4527789354324341,0.5874929428100586,-4.509007453918457
1715093757971503000,4.160503173828125,0.8101840019226074,1.9879131317138672,-3.53464937210083
1715093757981482200,4.170482177734375,1.6964448690414429,3.2025413513183594,-3.112192392349243
1715093757991431200,4.18043115234375,2.399970054626465,3.998638153076172,-3.445577621459961
1715093758001410300,4.190410400390625,2.4212851524353027,4.0915985107421875,-3.953813076019287
1715093758011389400,4.200389404296875,1.732198715209961,3.492232322692871,-3.130080461502075
1715093758021338400,4.21033837890625,0.8969568610191345,2.350229263305664,-2.3286349773406982
1715093758031317500,4.2203173828125,-0.06611096858978271,1.0438528060913086,-1.3169922828674316
1715093758041297000,4.230296875,-0.7637683153152466,-0.12412071228027344,-0.32740992307662964
1715093758051245600,4.24024560546875,-0.9601577520370483,-0.9158525466918945,0.48329344391822815
1715093758061224700,4.250224609375,-0.8814049959182739,-1.1483087539672852,1.044324278831482
1715093758071204000,4.2602041015625,-0.7465129494667053,-0.7962579727172852,1.5775872468948364
1715093758081152800,4.27015283203125,-0.5181902050971985,-0.15018463134765625,1.8815429210662842
1715093758091132000,4.2801318359375,-0.32637977600097656,0.4907360076904297,1.709032654762268
1715093758101111300,4.290111328125,-0.18536782264709473,1.3250417709350586,1.800806999206543
1715093758111090400,4.30009033203125,-0.0691182017326355,1.7813358306884766,2.1736972332000732
1715093758121039000,4.3100390625,-0.02963995933532715,1.3635053634643555,1.671051025390625
1715093758131018500,4.3200185546875,0.007648468017578125,1.6504859924316406,1.7201008796691895
1715093758140997600,4.32999755859375,-0.008934378623962402,1.7499055862426758,1.9729043245315552
1715093758150977000,4.33997705078125,-0.15013527870178223,1.575857162475586,2.0121898651123047
1715093758160956200,4.3499560546875,-0.12468254566192627,1.2815370559692383,2.0556392669677734
1715093758170904800,4.35990478515625,-0.30800676345825195,0.8118724822998047,2.185849189758301
1715093758180884200,4.36988427734375,-0.43103110790252686,0.28119659423828125,2.2317826747894287
1715093758190863400,4.37986328125,-0.43470847606658936,-0.21546268463134766,2.4047725200653076
1715093758200812000,4.38981201171875,-0.3081272840499878,-0.6789846420288086,2.362816333770752
1715093758210791400,4.39979150390625,0.42520570755004883,-1.1337909698486328,2.212761640548706
1715093758220770600,4.4097705078125,1.0666728019714355,-1.1449899673461914,2.1553690433502197
1715093758230719500,4.419719482421875,1.8099563121795654,-1.2069425582885742,2.579138994216919
1715093758240698600,4.42969873046875,3.1065235137939453,-0.6182107925415039,2.1475954055786133
1715093758250677800,4.439677734375,4.187122344970703,0.46675586700439453,1.886240839958191
1715093758260626700,4.449626708984375,5.047775745391846,1.3929624557495117,1.724422812461853
1715093758270605800,4.459605712890625,5.524171829223633,1.482029914855957,1.5266026258468628
1715093758280585200,4.469585205078125,5.906196594238281,2.0310773849487305,1.5808205604553223
1715093758290534000,4.479533935546875,5.328030586242676,1.419142723083496,1.0683399438858032
1715093758300513000,4.489512939453125,3.597323179244995,0.4035453796386719,0.6784469485282898
1715093758310492400,4.499492431640625,2.0643255710601807,-1.2123527526855469,0.6421926021575928
1715093758320441000,4.509441162109375,2.105586051940918,-2.4700021743774414,0.2054150253534317
1715093758330420200,4.519420166015625,2.4261741638183594,-2.9886655807495117,-0.013082437217235565
1715093758340399600,4.529399658203125,3.9227042198181152,-3.3247690200805664,-0.1278836578130722
1715093758350348300,4.539348388671875,3.8605754375457764,-4.0682477951049805,-0.10428166389465332
1715093758360327400,4.549327392578125,3.5484049320220947,-3.354888916015625,0.4937003254890442
1715093758370306800,4.559306884765625,2.339478015899658,-2.101363182067871,1.7285047769546509
1715093758380255500,4.56925537109375,1.245185136795044,-0.7748241424560547,2.848492383956909
1715093758390235000,4.57923486328125,1.8920629024505615,0.48638248443603516,3.984121561050415
1715093758400214000,4.589214111328125,1.038935661315918,1.3127355575561523,3.762190818786621
1715093758410193200,4.599193115234375,0.24298954010009766,2.1599206924438477,2.6545095443725586
1715093758420172500,4.609172607421875,-0.36294281482696533,2.935408592224121,1.366358757019043
1715093758430121200,4.619121337890625,-1.2206313610076904,3.40372371673584,-0.11460620164871216
1715093758440100600,4.6291005859375,-1.6527700424194336,3.3405704498291016,-2.1956839561462402
1715093758450079700,4.639079833984375,-1.7272343635559082,2.68582820892334,-4.524446487426758
1715093758460059000,4.649058837890625,-2.878535032272339,1.1855382919311523,-6.046948432922363
1715093758470007800,4.6590078125,-4.074909210205078,-1.3097171783447266,-7.0803632736206055
1715093758479987000,4.668987060546875,-4.8443450927734375,-3.9214839935302734,-7.511776924133301
1715093758489966000,4.678966064453125,-4.845855236053467,-6.170207977294922,-8.055275917053223
1715093758499915000,4.6889150390625,-4.700304985046387,-8.50067138671875,-7.54408073425293
1715093758509894100,4.69889404296875,-3.743222236633301,-10.08089542388916,-3.8552989959716797
1715093758519873500,4.70887353515625,-3.2524499893188477,-10.040071487426758,-0.4154292941093445
1715093758529822200,4.718822265625,-4.3701276779174805,-8.269973754882812,2.4797239303588867
1715093758539801300,4.72880126953125,-5.4619669914245605,-4.504727363586426,5.645591735839844
1715093758549780700,4.73878076171875,-7.8859992027282715,-1.9334697723388672,6.1688947677612305
1715093758559760000,4.748759765625,-7.851177215576172,0.6166696548461914,6.0268707275390625
1715093758569708500,4.75870849609375,-5.037772178649902,3.0475034713745117,6.610926151275635
1715093758579688000,4.76868798828125,-3.0967888832092285,3.6852474212646484,5.120688438415527
1715093758589667000,4.7786669921875,-2.5098705291748047,2.6870574951171875,2.8470492362976074
1715093758599615700,4.78861572265625,-2.1755518913269043,1.3106880187988281,0.8698777556419373
1715093758609595100,4.79859521484375,-1.1460694074630737,0.622807502746582,-0.230854332447052
1715093758619574300,4.80857421875,-0.040615200996398926,0.45742130279541016,-0.9656566381454468
1715093758629523200,4.818523193359375,1.2048357725143433,0.8102960586547852,-1.239277958869934
1715093758639502300,4.82850244140625,1.8745888471603394,1.6739120483398438,-1.5994057655334473
1715093758649481500,4.8384814453125,1.411124348640442,2.1924381256103516,-1.7714343070983887
1715093758659430400,4.848430419921875,0.36708390712738037,2.8915576934814453,-2.1699423789978027
1715093758669409500,4.858409423828125,-0.3918731212615967,3.17840576171875,-2.4674060344696045
1715093758679389000,4.868388916015625,-0.8912512063980103,3.3563108444213867,-2.4741034507751465
1715093758689368000,4.8783681640625,-1.3697779178619385,3.266775131225586,-2.3757004737854004
1715093758699347200,4.88834716796875,-1.7959086894989014,3.1446924209594727,-2.39200758934021
1715093758709296000,4.898296142578125,-1.9305078983306885,3.051513671875,-2.303060531616211
1715093758719275300,4.908275146484375,-1.6590420007705688,2.998899459838867,-2.1090242862701416
1715093758729254700,4.918254638671875,-0.945245623588562,3.053830146789551,-1.9094321727752686
1715093758739233800,4.92823388671875,-0.10496640205383301,3.0638647079467773,-1.9915086030960083
1715093758749182500,4.938182373046875,0.8080273866653442,3.0782670974731445,-2.0062103271484375
1715093758759161900,4.948161865234375,1.462408185005188,3.113138198852539,-1.7049665451049805
1715093758769141000,4.95814111328125,1.900883674621582,3.103339195251465,-1.1909818649291992
1715093758779089700,4.968089599609375,2.0349090099334717,2.9386777877807617,-0.3799828290939331
1715093758789069000,4.978069091796875,1.7384378910064697,2.760211944580078,0.9041820764541626
1715093758799048200,4.988048095703125,1.3267940282821655,3.0902366638183594,2.9266703128814697
1715093758808996900,4.997996826171875,0.9461097717285156,3.2534284591674805,4.98866605758667
1715093758818976300,5.007976318359375,0.7250746488571167,2.612518310546875,6.4683637619018555
1715093758828955400,5.017955322265625,0.5134763717651367,1.2795190811157227,7.077714920043945
1715093758838904300,5.027904296875,0.048322319984436035,-0.7051782608032227,8.202354431152344
1715093758848883500,5.037883544921875,-0.30221736431121826,-2.7007017135620117,8.136919975280762
1715093758858862600,5.047862548828125,-0.8451508283615112,-4.3471479415893555,5.734427452087402
1715093758868811500,5.0578115234375,-1.421696424484253,-5.64278507232666,1.8574371337890625
1715093758878790700,5.067790771484375,-1.5697587728500366,-6.518758773803711,-1.7507309913635254
1715093758888769800,5.077769775390625,-1.4295713901519775,-6.753618240356445,-4.257122993469238
1715093758898718700,5.08771875,0.8696861267089844,-5.175000190734863,-4.481419563293457
1715093758908697900,5.09769775390625,2.8703155517578125,-1.223398208618164,-1.0206787586212158
1715093758918677200,5.10767724609375,0.880176305770874,1.1314678192138672,2.8455605506896973
1715093758928626000,5.1176259765625,-1.6170604228973389,-3.8859519958496094,2.767002820968628
1715093758938605000,5.12760498046875,-0.9466050267219543,-9.838018417358398,1.7956277132034302
1715093758948584400,5.13758447265625,-3.0123515129089355,-11.237407684326172,-1.0551486015319824
1715093758958533000,5.147533203125,-5.187082290649414,-10.480603218078613,-4.463092803955078
1715093758968512300,5.15751220703125,-2.8394012451171875,-6.880653381347656,-5.555981636047363
1715093758978491600,5.16749169921875,-1.3182305097579956,1.6443910598754883,-6.587967395782471
1715093758988470800,5.177470703125,-0.861230731010437,5.390814781188965,-3.9052398204803467
1715093758998450200,5.1874501953125,-1.3125876188278198,4.321563720703125,-0.23951959609985352
1715093759008398800,5.19739892578125,-0.794035017490387,1.391427993774414,1.7552416324615479
1715093759018378000,5.2073779296875,-0.8869471549987793,-1.042337417602539,3.1046841144561768
1715093759028357400,5.217357421875,-1.9466208219528198,-2.215391159057617,3.1080563068389893
1715093759038336500,5.22733642578125,-2.159529447555542,-2.3386192321777344,1.659968614578247
1715093759048285200,5.23728515625,-1.580286979675293,-3.1375064849853516,-0.4108099937438965
1715093759058264600,5.2472646484375,0.0658615231513977,-4.223370552062988,-3.6687214374542236
1715093759068243700,5.25724365234375,1.9523000717163086,-3.823725700378418,-5.956193447113037
1715093759078192600,5.267192626953125,2.7025742530822754,-2.681471824645996,-8.57766342163086
1715093759088171800,5.277171875,1.9142115116119385,-1.1554021835327148,-10.912199974060059
1715093759098151000,5.28715087890625,1.1217678785324097,1.1364173889160156,-10.069168090820312
1715093759108099800,5.297099853515625,0.9562711715698242,3.4267473220825195,-6.61817741394043
1715093759118079000,5.307078857421875,1.0967638492584229,4.8435163497924805,-4.560879230499268
1715093759128058400,5.317058349609375,1.2236384153366089,5.492114067077637,-3.433304786682129
1715093759138007000,5.327007080078125,1.2776445150375366,5.504638671875,-2.9532649517059326
1715093759147986200,5.336986083984375,1.3834673166275024,4.747476577758789,-2.675912857055664
1715093759157965600,5.346965576171875,1.1846052408218384,3.3133745193481445,-2.839789390563965
1715093759167914200,5.356914306640625,1.086260199546814,1.7487411499023438,-3.0897793769836426
1715093759177893400,5.366893310546875,1.2402342557907104,0.28876495361328125,-3.174708127975464
1715093759187872800,5.376872802734375,1.0794445276260376,-0.7605648040771484,-3.0107221603393555
1715093759197821400,5.386821533203125,0.5611803531646729,-0.9740180969238281,-2.6559462547302246
1715093759207800600,5.396800537109375,0.05421900749206543,-0.6726598739624023,-2.173038959503174
1715093759217780000,5.406780029296875,-0.07250106334686279,0.1588134765625,-1.298139214515686
1715093759227728600,5.416728759765625,-0.3630572557449341,1.0148344039916992,0.20889049768447876
1715093759237708000,5.4267080078125,-0.5824910402297974,1.7687788009643555,1.5227835178375244
1715093759247687200,5.436687255859375,-0.24184560775756836,2.2681102752685547,2.817319393157959
1715093759257666300,5.446666259765625,-0.012441515922546387,2.181838035583496,3.123884677886963
1715093759267615200,5.456615234375,0.45891082286834717,1.9649934768676758,2.8734591007232666
1715093759277594400,5.466594482421875,1.2752715349197388,1.697199821472168,2.6562156677246094
1715093759287573500,5.476573486328125,1.8474481105804443,1.3842802047729492,2.5724775791168213
1715093759297553000,5.486552978515625,2.3204712867736816,0.9669961929321289,2.209087371826172
1715093759307532000,5.496531982421875,1.6818132400512695,0.35874271392822266,1.8429433107376099
1715093759317481000,5.50648095703125,1.3763225078582764,-0.13492488861083984,1.5513460636138916
1715093759327460000,5.516460205078125,0.7065792083740234,-0.5194940567016602,1.5146236419677734
1715093759337439200,5.526439208984375,0.47726964950561523,-0.5566186904907227,2.0812206268310547
1715093759347388200,5.53638818359375,0.3351328372955322,-0.3957681655883789,2.6964988708496094
1715093759357367300,5.5463671875,0.6163444519042969,-0.08813762664794922,3.0516180992126465
1715093759367346700,5.5563466796875,1.2655816078186035,0.4547405242919922,3.3970508575439453
1715093759377295400,5.56629541015625,2.2214508056640625,1.0087671279907227,3.414595127105713
1715093759387274500,5.5762744140625,3.4669888019561768,1.4206771850585938,3.198455810546875
1715093759397254000,5.58625390625,4.270462512969971,2.2178163528442383,2.3311715126037598
1715093759407202600,5.59620263671875,5.386496067047119,2.9315900802612305,1.8256688117980957
1715093759417181700,5.606181640625,5.8919219970703125,3.2171897888183594,1.528941035270691
1715093759427161000,5.6161611328125,5.549223899841309,3.0409555435180664,1.096215844154358
1715093759437109800,5.62610986328125,4.903618812561035,2.4094924926757812,1.451429843902588
1715093759447089000,5.6360888671875,3.9210846424102783,1.4847192764282227,2.484915018081665
1715093759457068300,5.646068359375,3.451326370239258,0.1671009063720703,2.896062135696411
1715093759467047400,5.65604736328125,3.964937925338745,-1.1876163482666016,2.2816669940948486
1715093759476996400,5.665996337890625,4.537171363830566,-1.83905029296875,0.7189478278160095
1715093759486975500,5.6759755859375,5.176937103271484,-2.5674962997436523,-0.25259116291999817
1715093759496954600,5.68595458984375,5.342999458312988,-2.91841983795166,0.7610009908676147
1715093759506903600,5.695903564453125,4.2222981452941895,-2.620687484741211,1.8915899991989136
1715093759516882700,5.705882568359375,2.0843520164489746,-2.3494367599487305,1.8378994464874268
1715093759526862000,5.715862060546875,-0.41910386085510254,-1.506270408630371,2.1813464164733887
1715093759536810800,5.725810791015625,-2.119326591491699,-0.4773836135864258,1.7289637327194214
1715093759546790000,5.735789794921875,-2.043400764465332,0.6909303665161133,0.5719807744026184
1715093759556769300,5.745769287109375,-1.4955713748931885,1.2500381469726562,-1.9294319152832031
1715093759566748400,5.75574853515625,-1.4764082431793213,0.8385391235351562,-4.762714862823486
1715093759576727600,5.7657275390625,-2.1098549365997314,-0.43348217010498047,-7.1759724617004395
1715093759586676500,5.775676513671875,-2.270941734313965,-2.419445037841797,-10.114733695983887
1715093759596655600,5.785655517578125,-1.9000871181488037,-4.976560592651367,-12.81273365020752
1715093759606635000,5.795635009765625,-1.6433358192443848,-7.1499128341674805,-13.694389343261719
1715093759616614100,5.8056142578125,-2.331467390060425,-8.761116027832031,-12.36847972869873
1715093759626562800,5.815562744140625,-3.2830123901367188,-9.178299903869629,-7.302021503448486
1715093759636542200,5.825542236328125,-3.5307722091674805,-9.32409381866455,-1.1872272491455078
1715093759646521300,5.835521240234375,-5.709857940673828,-9.090681076049805,2.6737332344055176
1715093759656470000,5.845469970703125,-9.116127014160156,-8.01530933380127,4.733858108520508
1715093759666449400,5.855449462890625,-12.794690132141113,-5.09152889251709,7.763968467712402
1715093759676428500,5.865428466796875,-10.852359771728516,-2.727977752685547,12.802679061889648
1715093759686377200,5.875377197265625,-9.156346321105957,-1.930145263671875,9.941194534301758
1715093759696356600,5.885356689453125,-5.352609157562256,0.9459724426269531,9.088396072387695
1715093759706335700,5.895335693359375,-2.0233917236328125,2.400700569152832,8.48642349243164
1715093759716284700,5.90528466796875,-1.070326805114746,2.2744064331054688,6.876848220825195
1715093759726263800,5.915263916015625,-0.4125319719314575,1.2249183654785156,4.654657363891602
1715093759736243000,5.925242919921875,0.5709624290466309,0.20133495330810547,1.855323076248169
1715093759746192000,5.93519189453125,1.0250556468963623,0.1441478729248047,-0.04532182216644287
1715093759756171000,5.9451708984375,1.7141985893249512,0.8470315933227539,-1.1278537511825562
1715093759766150400,5.955150390625,2.0256004333496094,2.0574216842651367,-2.0565085411071777
1715093759776099000,5.96509912109375,1.280277967453003,3.016655921936035,-3.0472116470336914
1715093759786078200,5.975078125,0.3669177293777466,3.349721908569336,-3.836416244506836
1715093759796057600,5.9850576171875,-0.18124401569366455,3.723461151123047,-4.364150047302246
1715093759806006300,5.99500634765625,-0.019591331481933594,4.362277030944824,-4.677240371704102
1715093759815985400,6.0049853515625,0.1719655990600586,4.908602714538574,-4.596464157104492
1715093759825964800,6.01496484375,-0.5139639377593994,5.088234901428223,-4.781318664550781
1715093759835944000,6.02494384765625,-1.0092995166778564,4.271781921386719,-5.013273239135742
1715093759845923300,6.03492333984375,-1.1936235427856445,4.337472915649414,-4.253657341003418
1715093759855872000,6.0448720703125,-0.5914661884307861,4.194523811340332,-3.880436420440674
1715093759865851100,6.05485107421875,0.08044207096099854,3.9648523330688477,-3.4107158184051514
1715093759875830500,6.06483056640625,0.6191837787628174,3.5019302368164062,-3.290705442428589
1715093759885809700,6.0748095703125,1.1871315240859985,3.479763984680176,-3.3371410369873047
1715093759895758300,6.08475830078125,1.679764747619629,3.4456567764282227,-2.843919038772583
1715093759905737700,6.09473779296875,1.9292442798614502,3.4110422134399414,-2.1894450187683105
1715093759915716900,6.104716796875,2.0211830139160156,3.1132116317749023,-1.5433826446533203
1715093759925665800,6.114665771484375,1.9555187225341797,2.4452171325683594,-0.4969569444656372
1715093759935645000,6.12464501953125,1.2894266843795776,1.5656986236572266,0.835389256477356
1715093759945624000,6.1346240234375,0.8930258750915527,1.3905401229858398,3.5198051929473877
1715093759955573000,6.144572998046875,0.48536038398742676,1.7504901885986328,6.722923755645752
1715093759965552000,6.15455224609375,-0.3855067491531372,0.4047966003417969,7.570598602294922
1715093759975531300,6.16453125,-1.3489463329315186,-1.5447149276733398,8.637277603149414
1715093759985480200,6.174480224609375,-2.092334270477295,-3.2061243057250977,8.70019817352295
1715093759995459300,6.184459228515625,-1.9481011629104614,-4.015741348266602,6.539368629455566
1715093760005438700,6.194438720703125,-1.66085946559906,-4.139615058898926,3.2859137058258057
1715093760015387400,6.204387451171875,-0.33740144968032837,-4.853769302368164,-0.6911356449127197
1715093760025366500,6.214366455078125,2.5823113918304443,-6.207893371582031,-3.0882368087768555
1715093760035346000,6.224345947265625,7.30289888381958,-6.71803092956543,-3.102865695953369
1715093760045294600,6.234294677734375,5.560474395751953,-3.4535017013549805,-1.4900816679000854
1715093760055273700,6.244273681640625,0.7295172214508057,-1.0882158279418945,-0.03619885444641113
1715093760065253000,6.254253173828125,-0.4308727979660034,-3.4468393325805664,3.1308467388153076
1715093760075201800,6.264201904296875,0.66261887550354,-6.475625038146973,5.361417770385742
1715093760085181000,6.274180908203125,-2.8983497619628906,-10.352723121643066,2.9927115440368652
1715093760095160300,6.284160400390625,-8.267571449279785,-16.14276885986328,-1.4596989154815674
1715093760105109000,6.29410888671875,-8.73774242401123,-18.484453201293945,-3.099454402923584
1715093760115088400,6.30408837890625,-6.509204864501953,-8.850091934204102,-7.62527322769165
1715093760125067500,6.314067626953125,-3.5343291759490967,-0.4151630401611328,-6.730487823486328
1715093760135046700,6.324046630859375,-1.2534209489822388,1.888589859008789,-1.7555115222930908
1715093760145026000,6.334026123046875,1.6172574758529663,3.2326059341430664,1.831178903579712
1715093760154974700,6.343974609375,1.8942818641662598,4.827898025512695,2.644054651260376
1715093760164954000,6.3539541015625,0.7977994680404663,5.35897159576416,1.3536028861999512
1715093760174933200,6.363933349609375,-0.41086286306381226,7.130152702331543,-0.8843135833740234
1715093760184912400,6.373912353515625,0.26555967330932617,7.02987003326416,-3.3152594566345215
1715093760194861300,6.383861328125,1.9704843759536743,4.899296760559082,-4.10264778137207
1715093760204840400,6.39384033203125,3.2091777324676514,2.118563652038574,-5.917121887207031
1715093760214819800,6.40381982421875,3.0183794498443604,-0.9866046905517578,-8.103004455566406
1715093760224768500,6.4137685546875,1.3915648460388184,-4.087620735168457,-9.501555442810059
1715093760234747600,6.42374755859375,-0.8312207460403442,-5.832937240600586,-10.687204360961914
1715093760244727000,6.43372705078125,-2.9401755332946777,-4.0346479415893555,-9.088557243347168
1715093760254675700,6.44367578125,-1.6727536916732788,-0.1187591552734375,-6.314992427825928
1715093760264654800,6.45365478515625,1.4815666675567627,2.838799476623535,-4.961599349975586
1715093760274634200,6.46363427734375,3.5523576736450195,4.877572059631348,-4.559792518615723
1715093760284583000,6.4735830078125,5.034488201141357,6.4402923583984375,-3.897541046142578
1715093760294562000,6.48356201171875,5.292812347412109,6.685268402099609,-3.265284538269043
1715093760304541400,6.49354150390625,4.081833839416504,5.763374328613281,-2.7296669483184814
1715093760314490000,6.503489990234375,2.47041654586792,3.7466306686401367,-1.9013264179229736
1715093760324469500,6.513469482421875,1.501381278038025,1.7183895111083984,-0.37022286653518677
1715093760334448600,6.52344873046875,0.9290597438812256,-0.48245716094970703,1.3297960758209229
1715093760344397300,6.533397216796875,0.123080313205719,-2.381763458251953,3.201817035675049
1715093760354376700,6.543376708984375,-0.19306129217147827,-3.686558723449707,3.9695467948913574
1715093760364355800,6.55335595703125,-0.5784004330635071,-3.613065719604492,4.6517157554626465
1715093760374304500,6.563304443359375,-0.6360783576965332,-2.3561553955078125,4.67644739151001
1715093760384284000,6.573283935546875,-0.448572039604187,-0.8166694641113281,4.037250995635986
1715093760394263000,6.583262939453125,-0.33557701110839844,0.7443265914916992,3.4404499530792236
1715093760404242400,6.593242431640625,-0.1484675407409668,1.4267215728759766,3.259408712387085
1715093760414191000,6.603191162109375,-0.13657855987548828,1.0020246505737305,3.2241196632385254
1715093760424170200,6.613170166015625,0.02379477024078369,1.2623004913330078,3.2634880542755127
1715093760434149600,6.623149658203125,0.10960423946380615,1.6451244354248047,3.2725698947906494
1715093760444128800,6.633128662109375,-0.07666051387786865,1.825052261352539,2.9530584812164307
1715093760454108200,6.643108154296875,-0.5067049264907837,1.813375473022461,2.6709978580474854
1715093760464056800,6.653056884765625,-0.6666185855865479,1.6170854568481445,2.71863055229187
1715093760474036000,6.663035888671875,-0.23558592796325684,1.3796958923339844,2.597017288208008
1715093760484015400,6.673015380859375,0.265613317489624,1.0677833557128906,2.6411354541778564
1715093760493994500,6.682994384765625,0.4953489303588867,0.6735591888427734,2.347661018371582
1715093760503943200,6.692943115234375,1.2012436389923096,0.3786325454711914,2.4268879890441895
1715093760513922600,6.702922607421875,2.1532211303710938,0.047489166259765625,2.293701648712158
1715093760523901700,6.712901611328125,3.886072874069214,0.2558450698852539,2.0129952430725098
1715093760533850400,6.722850341796875,5.2933807373046875,0.7733850479125977,1.8761624097824097
1715093760543829800,6.732829833984375,6.650238513946533,1.9038076400756836,2.288825273513794
1715093760553809000,6.742808837890625,7.750051021575928,3.028752326965332,2.621859073638916
1715093760563757800,6.7527578125,7.740171432495117,3.637277603149414,2.417449712753296
1715093760573737000,6.762737060546875,5.527620792388916,3.7566614151000977,2.663088083267212
1715093760583716000,6.772716064453125,3.2701175212860107,2.9481258392333984,2.0030910968780518
1715093760593665000,6.7826650390625,2.986771583557129,0.7145452499389648,0.7777702808380127
1715093760603644200,6.79264404296875,3.1853041648864746,-1.698944091796875,-0.9080843925476074
1715093760613623600,6.80262353515625,6.098552703857422,-3.563121795654297,-2.474318027496338
1715093760623572200,6.812572265625,8.027355194091797,-4.229211807250977,-2.820396900177002
1715093760633551400,6.82255126953125,6.4726104736328125,-3.395745277404785,-1.1749836206436157
1715093760643530800,6.83253076171875,3.591090440750122,-2.1126747131347656,0.31313878297805786
1715093760653479400,6.8424794921875,1.826956033706665,-0.008251190185546875,1.8706649541854858
1715093760663458600,6.85245849609375,-0.7765359878540039,1.7295989990234375,2.5573043823242188
1715093760673438000,6.86243798828125,-2.006429433822632,2.4903411865234375,1.6305829286575317
1715093760683417000,6.8724169921875,-1.8895760774612427,2.9679794311523438,-0.547964334487915
1715093760693365800,6.88236572265625,-1.1781349182128906,2.608806610107422,-3.228001594543457
1715093760703345200,6.89234521484375,-2.0627567768096924,1.2231321334838867,-5.9707536697387695
1715093760713324300,6.90232421875,-3.9091076850891113,-1.4375228881835938,-8.547978401184082
1715093760723303700,6.9123037109375,-4.851046562194824,-5.040876388549805,-10.342367172241211
1715093760733282800,6.92228271484375,-4.168968677520752,-9.317681312561035,-11.714300155639648
1715093760743231500,6.9322314453125,-4.406401634216309,-12.48188591003418,-11.524917602539062
1715093760753211000,6.9422109375,-3.991189479827881,-15.434823989868164,-7.955007076263428
1715093760763190000,6.95218994140625,-5.057046890258789,-16.759923934936523,-1.9276134967803955
1715093760773138700,6.962138671875,-8.395658493041992,-16.434284210205078,2.4286739826202393
1715093760783118000,6.9721181640625,-10.706033706665039,-11.89140510559082,8.371868133544922
1715093760793097200,6.98209716796875,-12.032565116882324,-4.554293632507324,13.951332092285156
1715093760803046100,6.992046142578125,-13.551692008972168,-1.990513801574707,11.604103088378906
1715093760813025300,7.002025390625,-9.495826721191406,1.6479806900024414,9.392450332641602
1715093760823004400,7.01200439453125,-2.975282669067383,4.827312469482422,8.993538856506348
1715093760832953300,7.021953369140625,-1.2409952878952026,5.202180862426758,6.912842273712158
1715093760842932500,7.031932373046875,-0.5613393783569336,3.396902084350586,4.266563415527344
1715093760852911900,7.041911865234375,-0.9972497224807739,1.2878742218017578,2.5509305000305176
1715093760862860500,7.051860595703125,-0.33554649353027344,-0.08124065399169922,0.9329476356506348
1715093760872839700,7.061839599609375,0.7656176090240479,-0.4726877212524414,-0.36316096782684326
1715093760882819000,7.071819091796875,2.39327073097229,0.5819997787475586,-0.21228289604187012
1715093760892767700,7.081767822265625,2.6031291484832764,2.181215286254883,-0.30382466316223145
1715093760902747000,7.091746826171875,1.8827359676361084,3.8229265213012695,-0.8271239995956421
1715093760912726300,7.101726318359375,0.8639718294143677,4.935530662536621,-1.305977702140808
1715093760922675000,7.111675048828125,-0.05281829833984375,5.228166580200195,-1.443688154220581
1715093760932654000,7.121654052734375,-0.4689379930496216,5.026437759399414,-1.6814908981323242
1715093760942633500,7.131633544921875,-0.7879956960678101,4.560522079467773,-2.2193522453308105
1715093760952582100,7.14158203125,-1.014654517173767,4.291548728942871,-2.851050853729248
1715093760962561500,7.1515615234375,-0.9978338479995728,4.131557464599609,-3.420804023742676
1715093760972540700,7.161540771484375,-0.7307056188583374,4.06326961517334,-3.8370447158813477
1715093760982519800,7.171519775390625,-0.44337189197540283,3.990447998046875,-4.0868377685546875
1715093760992499200,7.181499267578125,0.07590687274932861,3.7957382202148438,-4.363489151000977
1715093761002448000,7.19144775390625,0.892500638961792,3.669900894165039,-4.479789733886719
1715093761012427300,7.20142724609375,1.6300655603408813,3.853168487548828,-4.323986530303955
1715093761022406400,7.211406494140625,1.9662706851959229,4.148231506347656,-3.8834147453308105
1715093761032385500,7.221385498046875,2.053189277648926,4.331744194030762,-3.0050384998321533
1715093761042334500,7.23133447265625,1.8470163345336914,4.1334943771362305,-1.8465560674667358
1715093761052313600,7.241313720703125,1.6001590490341187,3.9453325271606445,0.02323782444000244
1715093761062293000,7.25129296875,1.6358948945999146,4.807145118713379,3.4837913513183594
1715093761072241700,7.26124169921875,1.155435562133789,4.293506622314453,5.140379905700684
1715093761082220800,7.271220703125,-0.19322097301483154,1.614130973815918,5.527766227722168
1715093761092200200,7.2812001953125,-1.7249715328216553,-1.859792709350586,6.775546073913574
1715093761102148900,7.29114892578125,-2.2416677474975586,-4.464215278625488,7.085112571716309
1715093761112128000,7.3011279296875,0.580289363861084,-6.366931915283203,4.004081726074219
1715093761122107400,7.311107421875,1.8656796216964722,-8.693299293518066,-1.5578477382659912
1715093761132056000,7.32105615234375,-0.5436546802520752,-10.211974143981934,-4.881733417510986
1715093761142035200,7.33103515625,-2.1334638595581055,-8.263021469116211,-3.772725820541382
1715093761152014600,7.3410146484375,-0.6097161769866943,-4.203036308288574,1.5207856893539429
1715093761161963300,7.35096337890625,2.2950291633605957,-1.68475341796875,5.222568511962891
1715093761171942400,7.3609423828125,1.7604098320007324,-5.5888519287109375,6.1218109130859375
1715093761181921800,7.370921875,-2.414102077484131,-11.88565731048584,5.8488311767578125
1715093761191870500,7.380870361328125,-1.6223684549331665,-14.663921356201172,1.381826639175415
1715093761201849900,7.390849853515625,0.4853168725967407,-11.995996475219727,-2.2991766929626465
1715093761211829000,7.4008291015625,-1.8097174167633057,-3.216996192932129,-5.753478050231934
1715093761221777700,7.410777587890625,-3.6204190254211426,1.866591453552246,-7.859982490539551
1715093761231757000,7.420757080078125,-4.874624729156494,2.0886335372924805,-4.004064559936523
1715093761241736200,7.430736083984375,-4.708517551422119,0.5243902206420898,-1.4459059238433838
1715093761251684900,7.440684814453125,-1.9292280673980713,-2.295773506164551,0.1942424774169922
1715093761261664300,7.450664306640625,-1.4177029132843018,-4.57470703125,0.7108793258666992
1715093761271643400,7.460643310546875,-1.7952723503112793,-4.408677101135254,0.24634194374084473
1715093761281622800,7.470622802734375,-1.5111703872680664,-3.362335205078125,-1.484161376953125
1715093761291602000,7.480601806640625,-0.11245596408843994,-1.8369970321655273,-3.002047061920166
1715093761301550600,7.490550537109375,1.4588693380355835,-0.6955032348632812,-5.226168632507324
1715093761311530000,7.500530029296875,2.5127508640289307,0.13046932220458984,-7.198206901550293
1715093761321509000,7.510509033203125,2.4465811252593994,0.7011232376098633,-8.703706741333008
1715093761331488500,7.520488525390625,1.7999309301376343,1.5472536087036133,-9.443899154663086
1715093761341467600,7.530467529296875,1.6757967472076416,2.8959035873413086,-8.820348739624023
1715093761351416300,7.540416259765625,1.8148282766342163,3.984593391418457,-7.049103260040283
1715093761361395700,7.550395751953125,1.7876352071762085,4.473080635070801,-5.162925720214844
1715093761371374800,7.560374755859375,1.620687484741211,4.524591445922852,-3.823401927947998
1715093761381323500,7.570323486328125,1.9972596168518066,4.1432647705078125,-2.1795895099639893
1715093761391303000,7.580302978515625,1.8954471349716187,2.836785316467285,-3.310830593109131
1715093761401282000,7.590281982421875,2.3231918811798096,1.7573366165161133,-2.918302059173584
1715093761411231000,7.60023095703125,2.4306893348693848,0.44719696044921875,-2.140186309814453
1715093761421210000,7.610210205078125,1.6203807592391968,-0.4938068389892578,-1.7355842590332031
1715093761431189200,7.620189208984375,0.6284083127975464,-0.8380956649780273,-1.4295152425765991
1715093761441138200,7.63013818359375,-0.06300663948059082,-1.0023317337036133,-0.8185876607894897
1715093761451117300,7.640117431640625,-0.2313176393508911,-0.37990665435791016,-0.5134915113449097
1715093761461096400,7.650096435546875,-0.26768720149993896,0.41141796112060547,0.12012380361557007
1715093761471045400,7.66004541015625,-0.3181135654449463,0.9054489135742188,0.9693408608436584
1715093761481024500,7.6700244140625,-0.5322673320770264,1.4675312042236328,1.473677396774292
1715093761491004000,7.68000390625,-0.20714116096496582,1.6961965560913086,1.8178045749664307
1715093761500952600,7.68995263671875,0.121604323387146,2.0988712310791016,2.138017177581787
1715093761510931700,7.699931640625,0.2643425464630127,1.9514579772949219,2.6021595001220703
1715093761520911000,7.7099111328125,0.1950066089630127,2.2535629272460938,2.3014533519744873
1715093761530859800,7.71985986328125,0.897781491279602,2.1038475036621094,2.7213680744171143
1715093761540839000,7.7298388671875,1.3975235223770142,1.5469303131103516,2.949143409729004
1715093761550818300,7.739818359375,2.135072708129883,1.7438879013061523,3.0194828510284424
1715093761560797400,7.74979736328125,2.333247661590576,1.8881053924560547,3.7745227813720703
1715093761570776800,7.75977685546875,1.7841038703918457,1.7756423950195312,4.493382453918457
1715093761580725500,7.7697255859375,1.054626703262329,1.615889549255371,4.853405952453613
1715093761590704600,7.77970458984375,1.0331687927246094,1.4579620361328125,4.4663615226745605
1715093761600684000,7.78968408203125,1.2241971492767334,1.3921232223510742,3.255134344100952
1715093761610663200,7.7996630859375,1.7800498008728027,1.561208724975586,1.903169870376587
1715093761620611800,7.80961181640625,4.342794895172119,1.3271188735961914,1.645249605178833
1715093761630591200,7.81959130859375,7.226805686950684,1.2186546325683594,-0.029314279556274414
1715093761640570400,7.8295703125,6.887908935546875,1.315659523010254,1.218899130821228
1715093761650519300,7.839519287109375,6.089996337890625,0.9181137084960938,2.5401344299316406
1715093761660498400,7.84949853515625,5.496822357177734,-0.07416343688964844,3.393563747406006
1715093761670477600,7.8594775390625,5.044041156768799,-1.5091781616210938,3.887220859527588
1715093761680426500,7.869426513671875,4.837344169616699,-3.4319372177124023,3.593059778213501
1715093761690405600,7.879405517578125,3.8836283683776855,-6.1123857498168945,1.7945690155029297
1715093761700385000,7.889385009765625,2.629603862762451,-8.299382209777832,0.07164359092712402
1715093761710333700,7.899333740234375,2.377324104309082,-9.066691398620605,-1.166320562362671
1715093761720312800,7.909312744140625,2.9504852294921875,-7.172208786010742,0.024736881256103516
1715093761730292200,7.919292236328125,3.6453914642333984,-4.095816612243652,1.246659517288208
1715093761740241000,7.929240966796875,3.6866281032562256,-0.3675222396850586,2.1095149517059326
1715093761750220000,7.939219970703125,2.365523099899292,1.5991363525390625,3.4461610317230225
1715093761760199400,7.949199462890625,2.550271987915039,3.417478561401367,4.8698296546936035
1715093761770148000,7.959148193359375,1.7542638778686523,4.176810264587402,4.292969703674316
1715093761780127200,7.969127197265625,0.15404152870178223,4.786645889282227,4.377953052520752
1715093761790106600,7.979106689453125,-0.6953269243240356,4.745338439941406,2.644045829772949
1715093761800055300,7.98905517578125,-0.5871998071670532,4.338780403137207,0.4364762604236603
1715093761810034700,7.99903466796875,-0.028992176055908203,3.7581090927124023,-1.7864201068878174
1715093761820013800,8.009013916015626,-0.22075533866882324,2.8442697525024414,-4.246888637542725
1715093761829993000,8.018992919921875,-1.0730597972869873,1.131631851196289,-6.436854362487793
1715093761839942000,8.02894189453125,-1.887610912322998,-1.2479143142700195,-7.626752853393555
1715093761849921000,8.038921142578126,-2.4348809719085693,-3.801027297973633,-8.29421329498291
1715093761859900200,8.048900146484375,-3.2030556201934814,-6.9667158126831055,-9.425041198730469
1715093761869879600,8.058879638671876,-4.689753532409668,-10.226790428161621,-9.32089900970459
1715093761879858700,8.068858642578125,-4.668223857879639,-12.036550521850586,-6.3545331954956055
1715093761889807600,8.0788076171875,-4.812772750854492,-11.388406753540039,-2.990394353866577
1715093761899786800,8.088786865234376,-6.4937520027160645,-9.670660972595215,-0.683952271938324
1715093761909766000,8.098765869140625,-7.907530307769775,-6.653398513793945,1.5120558738708496
1715093761919714800,8.10871484375,-8.838541030883789,-1.4597434997558594,5.542291164398193
1715093761929694000,8.11869384765625,-7.296377182006836,0.763153076171875,5.569948196411133
1715093761939673300,8.12867333984375,-4.226656436920166,3.0507097244262695,5.48157262802124
1715093761949622000,8.1386220703125,-2.0705907344818115,4.295722007751465,6.790794849395752
1715093761959601200,8.14860107421875,-1.6478607654571533,3.863356590270996,5.42832612991333
1715093761969580500,8.15858056640625,-2.5032153129577637,1.8643178939819336,3.8245723247528076
1715093761979529200,8.168529296875,-3.0117111206054688,0.2719755172729492,2.9919917583465576
1715093761989508400,8.17850830078125,-1.9493829011917114,-0.377044677734375,2.1554789543151855
1715093761999487700,8.18848779296875,0.04272449016571045,-0.47770118713378906,0.7420915365219116
1715093762009436400,8.1984365234375,1.5810011625289917,-0.1043853759765625,-0.10445427894592285
1715093762019415600,8.20841552734375,1.8890259265899658,0.4490232467651367,-1.017197847366333
1715093762029395000,8.21839501953125,1.2782896757125854,1.6645011901855469,-1.7462124824523926
1715093762039343600,8.228343505859375,0.14493930339813232,3.094733238220215,-2.2447304725646973
1715093762049323000,8.238322998046876,-0.938644289970398,3.661330223083496,-2.50492000579834
1715093762059302100,8.24830224609375,-1.669442057609558,3.693866729736328,-2.837655782699585
1715093762069250800,8.258250732421875,-1.6518278121948242,3.957247734069824,-3.2173562049865723
1715093762079230200,8.268230224609376,-1.5210148096084595,4.168004035949707,-3.5605969429016113
1715093762089209300,8.278209228515625,-1.140870451927185,4.417416572570801,-3.653069257736206
1715093762099158000,8.288157958984375,-0.4707915782928467,4.216209411621094,-3.795471668243408
1715093762109137400,8.298137451171876,0.38831913471221924,4.280675888061523,-3.345268726348877
1715093762119116500,8.308116455078125,1.3175750970840454,4.241562843322754,-3.0934083461761475
1715093762129096000,8.318095947265626,1.7611154317855835,3.9173011779785156,-2.5318403244018555
1715093762139075000,8.328074951171875,2.058166980743408,3.9209537506103516,-1.4523506164550781
1715093762149054500,8.338054443359376,2.2695555686950684,3.999309539794922,-0.06446397304534912
1715093762159003100,8.348003173828126,2.4933013916015625,4.340463638305664,2.259316921234131
1715093762168982300,8.357982177734375,2.190267324447632,4.833701133728027,4.843815326690674
1715093762178961700,8.367961669921876,1.425696849822998,4.000087738037109,6.164013862609863
1715093762188910300,8.377910400390626,0.4759860634803772,1.8746347427368164,6.664798736572266
1715093762198889500,8.387889404296875,-0.2550196051597595,-0.46350765228271484,7.171347618103027
1715093762208868900,8.397868896484376,-0.28465014696121216,-2.263096809387207,5.993984222412109
1715093762218817500,8.407817626953126,1.0999232530593872,-2.9225845336914062,3.3552374839782715
1715093762228796700,8.417796630859375,1.6849510669708252,-4.327977180480957,-0.6368590593338013
1715093762238776000,8.427776123046876,0.8906216621398926,-6.690499305725098,-4.280763149261475
1715093762248755200,8.437755126953125,2.5178775787353516,-7.173332214355469,-5.146991729736328
1715093762258704000,8.447703857421875,5.122036933898926,-5.315886497497559,-1.8291715383529663
1715093762268683300,8.457683349609376,-0.3256807327270508,-1.9859142303466797,3.139317274093628
1715093762278662400,8.467662353515625,-6.64645528793335,-5.917520523071289,5.582902908325195
1715093762288611300,8.477611328125,-2.9876983165740967,-14.059366226196289,7.151651859283447
1715093762298590500,8.487590576171876,0.0025451183319091797,-18.188074111938477,5.638317108154297
1715093762308569600,8.497569580078125,-5.319926738739014,-12.754538536071777,0.07976651191711426
1715093762318518500,8.5075185546875,-1.4886679649353027,-3.8040456771850586,-5.340928077697754
1715093762328497700,8.51749755859375,-2.1463022232055664,2.2572813034057617,-5.913734436035156
1715093762338477000,8.52747705078125,-4.600736618041992,3.6167821884155273,-3.749225616455078
1715093762348425700,8.53742578125,-3.0637011528015137,1.5378026962280273,-1.3467371463775635
1715093762358404900,8.54740478515625,-0.6056058406829834,-1.6077489852905273,0.03795313835144043
1715093762368384300,8.55738427734375,-1.2947192192077637,-3.7544307708740234,-0.13791489601135254
1715093762378333000,8.5673330078125,-3.168557643890381,-3.959402084350586,-1.714930534362793
1715093762388312000,8.57731201171875,-2.537855625152588,-3.2314348220825195,-3.3197085857391357
1715093762398291500,8.58729150390625,-0.016671672463417053,-2.8259315490722656,-5.352150917053223
1715093762408240000,8.597240234375,1.713314414024353,-1.8483686447143555,-6.62959098815918
1715093762418219300,8.60721923828125,2.262669563293457,-0.8055152893066406,-7.56809139251709
1715093762428198700,8.61719873046875,2.022944688796997,0.6874103546142578,-7.877031326293945
1715093762438177800,8.627177734375,2.210432767868042,1.6609115600585938,-7.780240058898926
1715093762448157200,8.6371572265625,1.867454171180725,3.346731185913086,-6.199149131774902
1715093762458105900,8.64710595703125,1.5367027521133423,4.321691513061523,-4.306198596954346
1715093762468085000,8.6570849609375,1.0604726076126099,4.5663347244262695,-2.9985029697418213
1715093762478064400,8.667064453125,0.7931353449821472,4.413172721862793,-2.6701083183288574
1715093762488043500,8.67704345703125,1.1673064231872559,4.050690650939941,-2.509945869445801
1715093762497992400,8.686992431640626,1.6836525201797485,3.353329658508301,-2.3752918243408203
1715093762507971600,8.6969716796875,2.3596444129943848,2.622126579284668,-2.618499755859375
1715093762517950700,8.70695068359375,2.1219418048858643,2.1519556045532227,-2.1014914512634277
1715093762527899600,8.716899658203126,1.0505419969558716,1.5406770706176758,-1.894747018814087
1715093762537878800,8.726878662109375,0.06101691722869873,0.9104127883911133,-1.538109540939331
1715093762547858200,8.736858154296876,-0.4057532548904419,0.6206655502319336,-0.7603728771209717
1715093762557806800,8.746806884765626,-0.19963586330413818,0.7061128616333008,-0.08349609375
1715093762567786000,8.756785888671875,0.09186363220214844,0.9090070724487305,0.39298975467681885
1715093762577765400,8.766765380859376,0.5246878862380981,1.251765251159668,1.0377237796783447
1715093762587714000,8.776714111328126,0.9089809656143188,1.641270637512207,1.7448292970657349
1715093762597693200,8.786693115234375,0.5341999530792236,1.8706398010253906,2.1695332527160645
1715093762607672600,8.796672607421876,0.7382204532623291,2.3363037109375,2.9332821369171143
1715093762617621200,8.806621337890626,0.7576427459716797,1.2824430465698242,2.733114004135132
1715093762627600400,8.816600341796875,-0.0059070587158203125,1.071685791015625,2.2221810817718506
1715093762637579800,8.826579833984376,-0.670867919921875,0.8992109298706055,2.8198723793029785
1715093762647528400,8.836528564453126,-0.6197988986968994,0.574249267578125,3.3409695625305176
1715093762657507600,8.846507568359375,-0.19933485984802246,-0.2133016586303711,3.7905282974243164
1715093762667487000,8.856487060546876,0.8570084571838379,-0.7302675247192383,4.298382759094238
1715093762677435600,8.866435546875,2.2019004821777344,-1.355264663696289,5.023725509643555
1715093762687433000,8.876432861328125,4.165335655212402,-1.705155372619629,4.263730049133301
1715093762697412000,8.886412109375,5.943472862243652,-0.7709989547729492,2.6730716228485107
1715093762707391200,8.89639111328125,7.511810779571533,0.712529182434082,2.138388156890869
1715093762717370600,8.90637060546875,8.548590660095215,2.069551467895508,2.106049060821533
1715093762727319300,8.9163193359375,8.53317642211914,2.1889333724975586,2.0102033615112305
1715093762737298700,8.926298583984375,7.2628631591796875,2.9260787963867188,0.9650161266326904
1715093762747277800,8.93627783203125,5.954180717468262,3.150972366333008,1.3602315187454224
1715093762757257000,8.946257080078125,4.4987616539001465,1.868265151977539,2.5994629859924316
1715093762767206000,8.956205810546875,3.787480592727661,-0.26363182067871094,3.035186290740967
1715093762777185000,8.96618505859375,2.1880300045013428,-2.6303348541259766,2.044877529144287
1715093762787164400,8.976164306640625,2.5331454277038574,-4.660539627075195,0.8247008323669434
1715093762797113000,8.986113037109375,4.918707847595215,-5.487530708312988,0.05471456050872803
1715093762807092200,8.99609228515625,5.953446865081787,-4.017918586730957,0.13642406463623047
1715093762817071600,9.006071533203125,3.170102834701538,-1.7797107696533203,0.8956490755081177
1715093762827020300,9.016020263671875,1.510709524154663,0.05055999755859375,1.921606421470642
1715093762836999400,9.02599951171875,-0.17421364784240723,1.5536823272705078,2.6101186275482178
1715093762846978800,9.035978759765625,-1.4576497077941895,2.8970165252685547,2.2342886924743652
1715093762856927500,9.045927490234375,-2.4188108444213867,3.5975513458251953,1.0999730825424194
1715093762866906600,9.05590673828125,-2.183875560760498,3.498885154724121,-1.014253854751587
1715093762876886000,9.065885986328125,-1.587430477142334,2.402772903442383,-3.5010883808135986
1715093762886834700,9.075834716796875,-2.2738003730773926,0.22982501983642578,-5.983180522918701
1715093762896814000,9.08581396484375,-3.563775062561035,-2.5740461349487305,-8.603678703308105
1715093762906793200,9.095793212890625,-4.070959568023682,-5.658080101013184,-10.724128723144531
1715093762916742000,9.105741943359375,-4.0341877937316895,-8.3982515335083,-11.813600540161133
1715093762926721300,9.11572119140625,-4.463099956512451,-10.792207717895508,-12.122231483459473
1715093762936700400,9.125700439453125,-6.251490592956543,-13.577003479003906,-10.081741333007812
1715093762946649000,9.135649169921875,-6.782171249389648,-14.330525398254395,-4.60240364074707
1715093762956628500,9.14562841796875,-8.610445022583008,-12.561986923217773,0.8710240125656128
1715093762966607600,9.155607666015625,-10.133092880249023,-9.548650741577148,3.964184045791626
1715093762976587000,9.1655869140625,-11.05217456817627,-3.9290313720703125,8.001994132995605
1715093762986535700,9.17553564453125,-10.027674674987793,0.8199119567871094,12.082490921020508
1715093762996514800,9.185514892578125,-7.549193382263184,2.613391876220703,10.428123474121094
1715093763006494200,9.195494140625,-3.55957293510437,4.62443733215332,10.24807357788086
1715093763016473300,9.205473388671875,-1.9968469142913818,5.592005729675293,8.240509986877441
1715093763026452700,9.21545263671875,-2.058950901031494,4.282153129577637,4.93869686126709
1715093763036401400,9.2254013671875,-1.6715511083602905,2.153529167175293,2.4533495903015137
1715093763046380500,9.235380615234375,-0.48341643810272217,1.164865493774414,0.6558073163032532
1715093763056360000,9.24535986328125,1.1491639614105225,0.9262771606445312,-1.128726601600647
1715093763066308600,9.25530859375,2.929445266723633,0.9070072174072266,-2.4140992164611816
1715093763076287700,9.265287841796875,3.4097542762756348,1.0423593521118164,-3.017284870147705
1715093763086267100,9.27526708984375,2.765313148498535,2.581040382385254,-3.1063573360443115
1715093763096246300,9.285246337890625,1.813725471496582,4.11334228515625,-3.303058624267578
1715093763106195000,9.29519482421875,0.4070640802383423,4.478792190551758,-3.1974616050720215
1715093763116174300,9.30517431640625,-0.7197980880737305,4.959484100341797,-3.0781197547912598
1715093763126153500,9.315153564453125,-1.3338638544082642,4.7832794189453125,-3.010317802429199
1715093763136102400,9.325102294921875,-1.7144439220428467,4.684100151062012,-3.022916316986084
1715093763146081500,9.33508154296875,-1.6984965801239014,4.374107360839844,-3.0263776779174805
1715093763156060700,9.345060791015625,-1.275681972503662,3.8301095962524414,-2.803764820098877
1715093763166009600,9.355009521484375,-0.37919771671295166,3.5311851501464844,-2.970038890838623
1715093763175988700,9.36498876953125,0.6485384702682495,3.0866498947143555,-2.8489842414855957
1715093763185968000,9.374968017578125,1.5952292680740356,3.128727912902832,-2.400353193283081
1715093763195916800,9.384916748046875,1.951480746269226,2.7813329696655273,-1.6985113620758057
1715093763205896000,9.39489599609375,1.9769119024276733,2.469609260559082,-0.5893772840499878
1715093763215875300,9.404875244140625,1.6459524631500244,1.7419319152832031,0.6723438501358032
1715093763225824000,9.414823974609375,1.5959041118621826,1.8557796478271484,3.763888359069824
1715093763235803100,9.42480322265625,1.3853663206100464,2.2371158599853516,6.859550476074219
1715093763245782500,9.434782470703125,0.6852853298187256,0.8866138458251953,7.238677024841309
1715093763255731200,9.444731201171875,-0.23623502254486084,-0.8472385406494141,7.334767818450928
1715093763265710300,9.45471044921875,-1.5894339084625244,-3.4991416931152344,7.379950523376465
1715093763275689700,9.464689697265625,-2.0591773986816406,-5.4952592849731445,5.281320095062256
1715093763285668900,9.4746689453125,0.020830750465393066,-5.907427787780762,1.910107970237732
1715093763295648300,9.484648193359375,0.8468928337097168,-6.827912330627441,-2.76151704788208
1715093763305597000,9.494596923828125,-0.2513769865036011,-6.871279716491699,-4.623528480529785
1715093763315576000,9.504576171875,0.8251957893371582,-4.785635948181152,-2.6043848991394043
1715093763325555500,9.514555419921875,2.900681972503662,-0.5510244369506836,1.9965075254440308
1715093763335534600,9.52453466796875,2.0141615867614746,2.286792755126953,4.858518600463867
1715093763345483300,9.534483154296876,0.40915536880493164,-0.4771728515625,6.024853229522705
1715093763355462700,9.544462646484375,0.4174290895462036,-6.386033058166504,7.081386089324951
1715093763365441800,9.55444189453125,-2.615222454071045,-9.34238052368164,3.5604569911956787
1715093763375390700,9.564390625,-6.964370250701904,-10.711519241333008,-2.048278331756592
1715093763385369900,9.574369873046875,-5.30499792098999,-9.943166732788086,-3.9079480171203613
1715093763395349000,9.584348876953126,-3.280562400817871,-3.290220260620117,-5.751611709594727
1715093763405298000,9.5942978515625,-3.025012969970703,2.8909807205200195,-7.8811445236206055
1715093763415277000,9.604277099609375,-1.7881571054458618,4.148016929626465,-4.380156517028809
1715093763425256400,9.61425634765625,-0.32042595744132996,2.787290573120117,-1.6433730125427246
1715093763435205000,9.624205078125,-0.9115884304046631,0.9494285583496094,0.11645913124084473
1715093763445184300,9.634184326171875,-2.869450092315674,-0.7518863677978516,0.7837250232696533
1715093763455163600,9.64416357421875,-3.1196200847625732,-2.0922861099243164,1.0099310874938965
1715093763465112300,9.6541123046875,-1.350640892982483,-3.3978185653686523,0.4636259078979492
1715093763475091500,9.664091552734375,-0.1365731656551361,-3.719733238220215,-1.2853314876556396
1715093763485070800,9.67407080078125,0.9027271270751953,-3.103611946105957,-2.8720695972442627
1715093763495019500,9.68401953125,1.0613212585449219,-2.4791812896728516,-4.30696439743042
1715093763504998700,9.69399853515625,1.0912927389144897,-1.631648063659668,-5.812198638916016
1715093763514978000,9.70397802734375,0.5028557777404785,-0.45334529876708984,-6.881241798400879
1715093763524926700,9.7139267578125,0.28015410900115967,0.8643350601196289,-7.537508964538574
1715093763534906000,9.723906005859375,0.05011063814163208,2.267685890197754,-6.478092193603516
1715093763544885200,9.73388525390625,0.2066698670387268,3.5415735244750977,-5.1252899169921875
1715093763554864400,9.743864501953125,0.5199335217475891,4.516979217529297,-4.53463888168335
1715093763564843800,9.75384375,1.0929663181304932,4.563692092895508,-4.879136562347412
1715093763574792400,9.76379248046875,1.6147702932357788,4.096705436706543,-4.079770565032959
1715093763584771800,9.773771728515625,1.590753197669983,2.8502883911132812,-3.5984432697296143
1715093763594751000,9.7837509765625,0.7911192774772644,1.360128402709961,-3.0154471397399902
1715093763604730000,9.793730224609375,-0.10403239727020264,-0.19778060913085938,-2.3470914363861084
1715093763614679000,9.803678955078125,-0.3630948066711426,-1.4584522247314453,-1.755190372467041
1715093763624658200,9.813658203125,-0.42263758182525635,-2.1573667526245117,-1.5320286750793457
1715093763634637300,9.82363720703125,-0.3461110591888428,-1.9829950332641602,-1.4279284477233887
1715093763644586200,9.833586181640625,0.27005481719970703,-0.9974241256713867,-1.1109257936477661
1715093763654565400,9.8435654296875,1.0252718925476074,0.41552162170410156,-0.6116403341293335
1715093763664544800,9.853544677734375,1.4685639142990112,1.8294696807861328,0.3741302490234375
1715093763674493400,9.863493408203125,1.5354217290878296,2.766961097717285,1.236279010772705
1715093763684472600,9.87347265625,1.2562603950500488,3.364871025085449,2.1526498794555664
1715093763694452000,9.883451904296875,0.9730408191680908,3.4080896377563477,2.5537726879119873
1715093763704400600,9.893400634765625,1.2625532150268555,3.1820716857910156,2.80198335647583
1715093763714379800,9.9033798828125,1.699129343032837,2.7304039001464844,3.0518407821655273
1715093763724359200,9.913359130859375,2.110072135925293,2.1789941787719727,3.087515354156494
1715093763734307800,9.923307861328125,2.483917474746704,1.6510248184204102,3.425114154815674
1715093763744287000,9.933286865234376,2.8369009494781494,1.3209896087646484,3.069136619567871
1715093763754266400,9.943266357421875,3.0884101390838623,1.0743064880371094,3.070089817047119
1715093763764215000,9.953215087890625,3.527097225189209,1.3973464965820312,3.235966682434082
1715093763774194400,9.9631943359375,4.39702033996582,1.870762825012207,3.295987844467163
1715093763784173600,9.973173583984375,5.162565231323242,2.2597484588623047,3.4175455570220947
1715093763794122200,9.983122314453125,6.405345916748047,2.4794912338256836,3.5148837566375732
1715093763804101600,9.9931015625,7.129438877105713,2.070261001586914,3.995237112045288
1715093763814080800,10.003080810546875,5.958386421203613,1.258915901184082,4.076760768890381
1715093763824029400,10.013029541015625,4.064794063568115,0.7415151596069336,3.3479671478271484
1715093763834008800,10.0230087890625,2.04683256149292,-0.3361682891845703,3.4861340522766113
1715093763843988000,10.032988037109375,0.19634389877319336,-1.9815654754638672,4.523746013641357
1715093763853967400,10.04296728515625,-0.3323020935058594,-4.042174339294434,4.570866107940674
1715093763863946500,10.052946533203125,0.003567218780517578,-5.596040725708008,3.909224510192871
1715093763873895200,10.062895263671875,2.607954502105713,-6.620611190795898,3.120151996612549
1715093763883874600,10.07287451171875,6.057107448577881,-5.89447021484375,3.0710391998291016
1715093763893853700,10.082853759765625,6.747903823852539,-3.3077430725097656,3.422420024871826
1715093763903833000,10.0928330078125,4.34647798538208,-0.5577526092529297,3.15073561668396
1715093763913781800,10.10278173828125,3.4395124912261963,1.862727165222168,2.8934030532836914
1715093763923761000,10.112760986328125,3.1056482791900635,3.6197004318237305,2.0455827713012695
1715093763933740300,10.122740234375,1.3853957653045654,4.8087873458862305,0.7176586389541626
1715093763943689000,10.13268896484375,0.2791867256164551,4.784662246704102,-0.9859931468963623
1715093763953668000,10.142668212890625,-0.10152649879455566,3.881350517272949,-2.1157543659210205
1715093763963647500,10.1526474609375,-0.6395963430404663,1.895101547241211,-3.9669065475463867
1715093763973596200,10.16259619140625,-1.5066367387771606,-0.6508569717407227,-6.901634693145752
1715093763983575600,10.172575439453125,-2.967620372772217,-3.8473291397094727,-9.545685768127441
1715093763993554700,10.1825546875,-4.273730278015137,-7.003028869628906,-10.866384506225586
1715093764003503400,10.19250341796875,-4.91008996963501,-10.055429458618164,-11.136996269226074
1715093764013482800,10.202482666015625,-5.313941955566406,-13.373663902282715,-11.02841567993164
1715093764023462000,10.2124619140625,-5.729742050170898,-15.409866333007812,-8.96035385131836
1715093764033410600,10.22241064453125,-6.6788530349731445,-13.707143783569336,-3.3117570877075195
1715093764043390000,10.232389892578125,-7.184084892272949,-9.04090404510498,2.000211000442505
1715093764053369000,10.242369140625,-8.762140274047852,-2.3141422271728516,6.813221454620361
1715093764063317800,10.25231787109375,-9.692460060119629,1.1864547729492188,8.141374588012695
1715093764073297200,10.262297119140625,-6.4301252365112305,2.312533378601074,8.533590316772461
1715093764083276300,10.2722763671875,-3.343066930770874,3.0652761459350586,8.925985336303711
1715093764093225000,10.282224853515626,-1.5095930099487305,3.3897247314453125,7.014608383178711
1715093764103204400,10.292204345703125,-2.1412925720214844,2.337355613708496,3.8823235034942627
1715093764113183500,10.30218359375,-2.683112144470215,0.9808340072631836,2.090524196624756
1715093764123163000,10.312162841796875,-1.3865203857421875,0.6144933700561523,1.069070816040039
1715093764133111600,10.322111572265625,0.5532772541046143,0.3993864059448242,-0.7106180191040039
1715093764143090700,10.332090576171876,2.1319470405578613,0.7580909729003906,-1.8745014667510986
1715093764153070000,10.342070068359375,2.5610671043395996,1.4503717422485352,-2.506286382675171
1715093764163049200,10.35204931640625,2.397602081298828,2.76434326171875,-2.7468910217285156
1715093764173028600,10.362028564453125,1.6185508966445923,4.073012351989746,-2.9896459579467773
1715093764182977300,10.371977294921875,0.4752492904663086,4.7832136154174805,-3.386972665786743
1715093764192956400,10.381956298828126,-0.3754920959472656,4.938619613647461,-3.609999656677246
1715093764202935800,10.391935791015625,-0.8671547174453735,4.697506904602051,-3.711956024169922
1715093764212915000,10.4019150390625,-1.064793348312378,4.224863052368164,-3.8338711261749268
1715093764222864000,10.41186376953125,-1.096758484840393,3.7686643600463867,-3.8968982696533203
1715093764232843000,10.421843017578125,-0.8392735719680786,3.4199790954589844,-3.7181079387664795
1715093764242822100,10.431822265625,-0.3133842945098877,3.163858413696289,-3.509406805038452
1715093764252771000,10.44177099609375,0.4349321126937866,3.035609245300293,-3.403562545776367
1715093764262750200,10.451750244140625,1.4347726106643677,2.9484128952026367,-3.164949417114258
1715093764272729600,10.4617294921875,2.071784019470215,2.8301572799682617,-2.771613597869873
1715093764282678300,10.47167822265625,2.17112135887146,2.410590171813965,-1.9152307510375977
1715093764292657400,10.481657470703125,1.8745765686035156,1.8186111450195312,-0.6111061573028564
1715093764302636800,10.49163671875,1.691719651222229,1.518376350402832,1.395154595375061
1715093764312585500,10.50158544921875,1.979712963104248,2.593290328979492,4.9290876388549805
1715093764322564600,10.511564697265625,1.2738208770751953,3.3440494537353516,7.454519271850586
1715093764332544000,10.5215439453125,0.03992319107055664,2.308755874633789,8.047372817993164
1715093764342492700,10.53149267578125,-1.1717567443847656,0.1461477279663086,8.558769226074219
1715093764352471800,10.541471923828125,-3.1202659606933594,-2.7904043197631836,8.817206382751465
1715093764362451200,10.551451171875,-2.3897247314453125,-4.802399635314941,8.654808044433594
1715093764372399900,10.56139990234375,0.24767166376113892,-6.18348503112793,0.45162224769592285
1715093764382379300,10.571379150390625,0.40441620349884033,-9.201153755187988,-7.994433879852295
1715093764392358400,10.5813583984375,1.1468044519424438,-9.823212623596191,-8.512524604797363
1715093764402337500,10.591337646484375,4.251262664794922,-6.638206481933594,-3.1554436683654785
1715093764412286500,10.601286376953125,4.598066329956055,-0.5123786926269531,2.0691709518432617
1715093764422265600,10.611265625,-2.100921869277954,2.7641735076904297,3.6576426029205322
1715093764432244700,10.62124462890625,-1.9536406993865967,-1.270461082458496,4.114288806915283
1715093764442224000,10.63122412109375,-0.4618161916732788,-9.185400009155273,5.024524211883545
1715093764452203300,10.641203369140625,1.299149751663208,-11.011809349060059,2.6754848957061768
1715093764462152200,10.651152099609375,-3.0496795177459717,-10.181222915649414,-3.329174280166626
1715093764472131300,10.66113134765625,-4.217813491821289,-6.565425872802734,-5.168497085571289
1715093764482110500,10.6711103515625,-5.541457653045654,-0.7304782867431641,-5.5896830558776855
1715093764492059400,10.681059326171875,-3.0565202236175537,2.1863040924072266,-3.1797778606414795
1715093764502038500,10.69103857421875,-1.3215034008026123,0.7458295822143555,-1.0097925662994385
1715093764512018000,10.701017822265625,-0.008389770984649658,-1.128026008605957,0.5753130912780762
1715093764521966600,10.710966552734375,-2.4809653759002686,-2.27938175201416,1.4882476329803467
1715093764531945700,10.72094580078125,-3.8631112575531006,-2.2571840286254883,1.1254081726074219
1715093764541925000,10.730925048828125,-1.9437689781188965,-2.5038814544677734,0.8669650554656982
1715093764551873800,10.740873779296875,0.3024635314941406,-2.195077896118164,0.31026339530944824
1715093764561853000,10.75085302734375,1.0925068855285645,-1.2757654190063477,-0.5878627300262451
1715093764571832300,10.760832275390625,1.618156909942627,-0.23796463012695312,-1.5569469928741455
1715093764581781000,10.770781005859375,2.5236055850982666,0.17539310455322266,-3.0172436237335205
1715093764591760100,10.780760009765626,2.1921961307525635,0.5279607772827148,-4.777874946594238
1715093764601739500,10.790739501953125,1.8672672510147095,1.1935367584228516,-5.633519172668457
1715093764611688200,10.800688232421875,1.300431489944458,2.156500816345215,-6.125079154968262
1715093764621667600,10.81066748046875,0.8372727036476135,3.0858469009399414,-5.6597676277160645
1715093764631646700,10.820646728515625,0.8986675143241882,3.7542505264282227,-4.666071891784668
1715093764641595400,10.830595458984375,0.7642266750335693,4.062138557434082,-3.7361831665039062
1715093764651574800,10.84057470703125,1.0449695587158203,3.9326248168945312,-3.3433403968811035
1715093764661554000,10.850553955078125,1.5126209259033203,3.3251094818115234,-3.1543045043945312
1715093764671502600,10.860502685546875,1.364807367324829,2.647200584411621,-2.938842535018921
1715093764681482000,10.87048193359375,1.338230013847351,2.0448484420776367,-2.6358847618103027
1715093764691461000,10.880461181640625,0.6329365968704224,1.4434871673583984,-2.3761634826660156
1715093764701440500,10.8904404296875,-0.25388264656066895,0.968658447265625,-2.0410969257354736
1715093764711419600,10.900419677734375,-0.7159929275512695,0.5501985549926758,-1.6121037006378174
1715093764721368300,10.910368408203125,-0.993056058883667,0.33080291748046875,-0.9328142404556274
1715093764731347700,10.92034765625,-0.664332389831543,0.39395904541015625,-0.4917439818382263
1715093764741326800,10.930326904296875,-0.2857341766357422,0.7537107467651367,-0.1465376615524292
1715093764751306200,10.94030615234375,-0.31998705863952637,1.215423583984375,0.4389451742172241
1715093764761255000,10.9502548828125,-0.21809375286102295,1.6110296249389648,1.0177477598190308
1715093764771234000,10.960234130859375,-0.11055397987365723,1.9114513397216797,1.663538932800293
1715093764781213400,10.97021337890625,-0.04054379463195801,1.8750572204589844,2.260572671890259
1715093764791162000,10.980162109375,0.0893932580947876,1.5713939666748047,2.612074851989746
1715093764801141200,10.990141357421875,0.39128613471984863,1.1365461349487305,2.9695351123809814
1715093764811120600,11.00012060546875,0.833986759185791,0.7398462295532227,2.965207099914551
1715093764821069300,11.0100693359375,1.464275598526001,0.3323802947998047,3.02816104888916
1715093764831048400,11.02004833984375,2.362982988357544,0.13846492767333984,3.276651382446289
1715093764841027800,11.03002783203125,2.875357151031494,0.04702568054199219,3.2954912185668945
1715093764850976500,11.0399765625,2.911945343017578,-0.040386199951171875,2.9735751152038574
1715093764860956000,11.049955810546875,3.5612809658050537,0.1006326675415039,2.8375720977783203
1715093764870935000,11.05993505859375,5.062628269195557,0.5917367935180664,2.5007805824279785
1715093764880883700,11.0698837890625,6.726583480834961,0.9841976165771484,2.132779836654663
1715093764890863000,11.079863037109375,7.149641036987305,1.900834083557129,2.754971981048584
1715093764900842200,11.08984228515625,7.046692848205566,3.2100677490234375,2.9461255073547363
1715093764910791000,11.099791015625,5.137480735778809,2.551342010498047,-0.6250361800193787
1715093764920770300,11.109770263671875,2.4857404232025146,1.052271842956543,-0.4821178913116455
1715093764930749400,11.11974951171875,0.6614148616790771,-1.2384223937988281,0.7692852020263672
1715093764940698000,11.129697998046876,0.8866872787475586,-3.554412841796875,1.4107245206832886
1715093764950677500,11.139677490234375,2.4027769565582275,-4.597258567810059,1.5209726095199585
1715093764960656600,11.14965673828125,4.073533058166504,-4.647656440734863,1.4081335067749023
1715093764970605600,11.15960546875,5.478930473327637,-4.6439008712768555,1.4414182901382446
1715093764980584700,11.169584716796875,6.399761199951172,-3.9308738708496094,2.1451613903045654
1715093764990563800,11.179563720703126,4.551224708557129,-2.0882272720336914,2.8470709323883057
1715093765000543200,11.189543212890625,2.869065761566162,-0.1481781005859375,2.7486186027526855
1715093765010522400,11.1995224609375,2.5201385021209717,1.8875885009765625,2.7073004245758057
1715093765020471300,11.20947119140625,1.199178695678711,3.4736738204956055,2.1717662811279297
1715093765030450400,11.219450439453125,-0.4984598159790039,4.012180328369141,0.9330336451530457
1715093765040429600,11.2294296875,-1.0222795009613037,3.8062429428100586,-0.7226979732513428
1715093765050409000,11.239408935546875,-0.46855032444000244,3.054844856262207,-2.124424934387207
1715093765060357600,11.249357666015625,-0.6124216318130493,1.737203598022461,-3.904694080352783
1715093765070337000,11.2593369140625,-1.8830111026763916,-0.06347942352294922,-6.3216447830200195
1715093765080316200,11.269316162109375,-3.3947880268096924,-2.7402753829956055,-8.779731750488281
1715093765090264800,11.279264892578125,-4.6306071281433105,-5.330446243286133,-9.68217658996582
1715093765100244200,11.289244140625,-5.296388149261475,-8.42785358428955,-10.958053588867188
1715093765110223400,11.299223388671875,-5.66976261138916,-12.513261795043945,-11.80931568145752
1715093765120172000,11.309172119140625,-5.56373405456543,-15.28335952758789,-9.412595748901367
1715093765130151400,11.3191513671875,-5.724785804748535,-13.613306999206543,-4.229018211364746
1715093765140130600,11.329130615234375,-6.552523612976074,-9.295228958129883,0.09606979787349701
1715093765150079200,11.339079345703125,-7.583634853363037,-3.25994873046875,4.581699371337891
1715093765160058600,11.34905859375,-8.683653831481934,0.3623847961425781,7.098971843719482
1715093765170037800,11.359037841796875,-6.2956624031066895,2.1159791946411133,8.980432510375977
1715093765179986700,11.368986572265625,-2.976806402206421,3.0787744522094727,10.079197883605957
1715093765189965800,11.3789658203125,-1.2101020812988281,2.986447334289551,7.9579572677612305
1715093765199945000,11.388945068359375,-1.9809232950210571,2.6687002182006836,5.240489482879639
1715093765209894000,11.398893798828125,-2.9370529651641846,1.6502103805541992,3.4383583068847656
1715093765219873000,11.408873046875,-2.5751829147338867,1.2802143096923828,2.569458484649658
1715093765229852200,11.41885205078125,-0.5690855979919434,1.4062299728393555,1.1800956726074219
1715093765239801000,11.428801025390625,1.6865383386611938,1.5873346328735352,-0.2932438850402832
1715093765249780200,11.4387802734375,2.786299705505371,2.1710338592529297,-1.0535740852355957
1715093765259759600,11.448759521484375,2.656798839569092,3.194087028503418,-1.4449739456176758
1715093765269738800,11.45873876953125,1.7218505144119263,4.395569801330566,-1.851992130279541
1715093765279687400,11.4686875,0.8105230331420898,5.065174102783203,-2.4909212589263916
1715093765289666800,11.478666748046875,0.0952988862991333,5.050769805908203,-2.9862561225891113
1715093765299646000,11.48864599609375,-0.24240732192993164,4.7380170822143555,-3.3946852684020996
1715093765309625300,11.498625244140625,-0.35698115825653076,4.3109941482543945,-3.808623790740967
1715093765319604500,11.5086044921875,-0.33113229274749756,3.812082290649414,-4.021966934204102
1715093765329553200,11.51855322265625,-0.41254448890686035,3.4356632232666016,-4.059205055236816
1715093765339532500,11.528532470703125,-0.342596173286438,3.25543212890625,-3.9397974014282227
1715093765349511700,11.53851171875,0.04790210723876953,2.986448287963867,-3.8622350692749023
1715093765359491000,11.548490966796875,0.8626934289932251,2.936603546142578,-3.788151979446411
1715093765369439700,11.558439697265625,1.7635612487792969,2.946847915649414,-3.303008556365967
1715093765379419000,11.5684189453125,2.1607203483581543,2.528681755065918,-2.3389594554901123
1715093765389398300,11.578398193359375,2.0433237552642822,1.5106611251831055,-1.275599479675293
1715093765399347000,11.588346923828125,1.7098031044006348,0.46616554260253906,0.4711437225341797
1715093765409326000,11.598326171875,1.5966639518737793,0.27016258239746094,3.5305070877075195
1715093765419305500,11.608305419921875,1.22752845287323,0.2841939926147461,6.1403489112854
1715093765429254100,11.618254150390625,0.40199756622314453,-0.936741828918457,6.848160743713379
1715093765439233300,11.6282333984375,-0.20294320583343506,-2.680720329284668,7.495294570922852
1715093765449212700,11.638212646484375,-0.5817273855209351,-4.050236701965332,7.3910627365112305
1715093765459161300,11.648161376953125,-0.9078763723373413,-4.85638427734375,4.863876819610596
1715093765469140700,11.658140625,0.3926570415496826,-4.995594024658203,1.6291395425796509
1715093765479120000,11.668119873046875,0.5908207893371582,-5.767984390258789,-1.7015153169631958
1715093765489068500,11.678068603515625,2.731783866882324,-5.655361175537109,-3.278531312942505
1715093765499048000,11.6880478515625,4.8636393547058105,-3.4049901962280273,-3.7934842109680176
1715093765509027000,11.698027099609375,4.4451422691345215,-0.3634300231933594,-2.4813156127929688
1715093765518975700,11.707975830078125,2.7380189895629883,1.1219673156738281,0.6585041284561157
1715093765528955100,11.717955078125,-0.9191820621490479,0.25850772857666016,2.3018717765808105
1715093765538934300,11.727934326171875,-3.0226974487304688,-3.9497194290161133,3.3641185760498047
1715093765548913700,11.73791357421875,-5.118099212646484,-10.958693504333496,5.104644775390625
1715093765558862300,11.7478623046875,-7.621123313903809,-14.185266494750977,4.7083353996276855
1715093765568841500,11.757841552734375,-9.121743202209473,-12.782271385192871,-0.07885575294494629
1715093765578820900,11.76782080078125,-5.805751800537109,-9.408946990966797,-4.275752067565918
1715093765588800000,11.777800048828125,-2.378204584121704,-3.1321372985839844,-5.757281303405762
1715093765598779400,11.787779296875,-0.4526076912879944,1.6643381118774414,-4.711134910583496
1715093765608728000,11.79772802734375,1.5228571891784668,4.343152046203613,-3.0189926624298096
1715093765618707200,11.807707275390625,2.3444838523864746,5.563570022583008,-1.6809067726135254
1715093765628686600,11.8176865234375,1.9031645059585571,6.13657283782959,-1.4105384349822998
1715093765638635300,11.82763525390625,1.2260210514068604,6.498950004577637,-2.5901641845703125
1715093765648614400,11.837614501953125,1.056480884552002,6.611302375793457,-3.545762062072754
1715093765658593800,11.84759375,1.1725869178771973,5.153128623962402,-3.089148998260498
1715093765668542500,11.85754248046875,1.5876544713974,2.4149160385131836,-2.9742283821105957
1715093765678521600,11.867521484375,1.7067772150039673,-0.5716133117675781,-3.1667723655700684
1715093765688501000,11.8775009765625,1.0479674339294434,-2.6289567947387695,-2.722416877746582
1715093765698449700,11.88744970703125,-0.7285242080688477,-3.727442741394043,-1.9012012481689453
1715093765708429000,11.897428955078125,-2.3626511096954346,-3.7824888229370117,-2.5124473571777344
1715093765718408200,11.907408203125,-2.2647461891174316,-2.0428380966186523,-3.7539327144622803
1715093765728356900,11.91735693359375,-0.6739344000816345,0.6273479461669922,-3.179778575897217
1715093765738336300,11.927336181640625,1.1870390176773071,2.6775684356689453,-3.487081527709961
1715093765748315400,11.9373154296875,2.326382875442505,3.8085622787475586,-3.9276866912841797
1715093765758264000,11.94726416015625,2.7117087841033936,4.567482948303223,-4.285013198852539
1715093765768243500,11.957243408203125,2.2711715698242188,4.715311050415039,-4.249185085296631
1715093765778222600,11.96722265625,1.135706901550293,4.14005184173584,-3.420630931854248
1715093765788171300,11.977171142578126,0.4833371639251709,3.1037368774414062,-2.148264169692993
1715093765798150700,11.987150634765625,0.6949937343597412,2.402740478515625,-0.22420424222946167
1715093765808129800,11.9971298828125,0.9912992715835571,1.7472095489501953,1.3687725067138672
1715093765818078700,12.00707861328125,1.3522884845733643,0.3381233215332031,1.9820311069488525
1715093765828057900,12.017057861328125,1.4388065338134766,-0.7371044158935547,2.716913938522339
1715093765838037000,12.027037109375,1.0198520421981812,-1.6812753677368164,3.1717045307159424
1715093765848016400,12.037016357421875,0.6219791173934937,-1.8913936614990234,3.163914203643799
1715093765857995500,12.04699560546875,-0.09153389930725098,-1.3581533432006836,3.115002393722534
1715093765867944400,12.0569443359375,-0.6075407266616821,-0.7196846008300781,3.06306791305542
1715093765877923600,12.066923583984375,-0.819991946220398,-0.22991943359375,2.44761061668396
1715093765887902700,12.07690283203125,-0.8341119289398193,0.31906986236572266,2.042605400085449
1715093765897882000,12.086882080078125,-0.5741217136383057,0.7239208221435547,2.143090009689331
1715093765907830800,12.096830810546875,0.03584694862365723,0.8819599151611328,2.345343589782715
1715093765917810000,12.106809814453126,0.6101870536804199,1.0207300186157227,2.7396509647369385
1715093765927789300,12.116789306640625,1.7051610946655273,0.7637958526611328,3.137930154800415
1715093765937738000,12.126738037109375,3.4470181465148926,1.2252607345581055,3.024994373321533
1715093765947717400,12.13671728515625,5.67849063873291,1.960719108581543,3.0263614654541016
1715093765957696500,12.146696533203125,7.17055606842041,2.8644332885742188,2.973921775817871
1715093765967645200,12.156645263671875,8.477588653564453,3.0895462036132812,2.322533130645752
1715093765977624600,12.16662451171875,8.541206359863281,2.0461721420288086,0.8401018381118774
1715093765987603700,12.176603759765625,6.376279830932617,1.8349905014038086,-0.6988517642021179
1715093765997552400,12.186552490234375,4.370355606079102,1.239335060119629,-0.28655898571014404
1715093766007531800,12.19653173828125,2.147890090942383,-0.6020116806030273,0.4446638822555542
1715093766017511000,12.206510986328125,1.2586939334869385,-3.298065185546875,0.8919377326965332
1715093766027459600,12.21645947265625,1.795804500579834,-5.674399375915527,0.2363262176513672
1715093766037439000,12.22643896484375,3.3468966484069824,-6.199109077453613,0.37157315015792847
1715093766047418000,12.236418212890625,4.470938682556152,-4.920350074768066,2.375032901763916
1715093766057367000,12.246366943359375,2.8024632930755615,-2.8295583724975586,4.502383232116699
1715093766067346200,12.25634619140625,1.1091008186340332,-0.35240650177001953,5.761412143707275
1715093766077325300,12.2663251953125,0.8720808029174805,2.5071516036987305,6.145875453948975
1715093766087274200,12.276274169921875,-0.7669839859008789,4.387978553771973,6.112669467926025
1715093766097253400,12.28625341796875,-0.5901732444763184,4.884699821472168,4.296699523925781
1715093766107232800,12.296232666015625,0.5759913921356201,4.020127296447754,0.9917036890983582
1715093766117181400,12.306181396484375,1.180399775505066,2.6691808700561523,-2.198288917541504
1715093766127160600,12.31616064453125,0.5959214568138123,0.5186338424682617,-5.729124546051025
1715093766137140000,12.326139892578125,-0.8845739364624023,-2.4539403915405273,-9.78389835357666
1715093766147119000,12.336119140625,-2.498027801513672,-4.919685363769531,-12.333887100219727
1715093766157098500,12.346098388671875,-3.6758031845092773,-7.256766319274902,-13.75436782836914
1715093766167047200,12.356047119140625,-4.502902030944824,-9.978250503540039,-15.113204956054688
1715093766177026300,12.3660263671875,-6.385946273803711,-12.014083862304688,-14.017984390258789
1715093766187005700,12.376005615234375,-7.057796955108643,-12.293731689453125,-8.994695663452148
1715093766196984800,12.38598486328125,-6.141562461853027,-10.319962501525879,-1.5655994415283203
1715093766206933500,12.39593359375,-6.193390846252441,-7.835509300231934,3.698131561279297
1715093766216913000,12.405912841796875,-7.7991461753845215,-4.070586204528809,7.217486381530762
1715093766226892000,12.41589208984375,-9.598749160766602,-2.348383903503418,9.901948928833008
1715093766236840700,12.4258408203125,-8.13988208770752,-1.0321311950683594,12.300019264221191
1715093766246820000,12.435820068359375,-5.549622058868408,1.4173402786254883,13.663278579711914
1715093766256799200,12.44579931640625,-3.1735799312591553,2.973259925842285,11.249037742614746
1715093766266748200,12.455748046875,-3.1304240226745605,3.491565704345703,6.936063766479492
1715093766276727300,12.465727294921875,-2.9759979248046875,2.795827865600586,4.387049674987793
1715093766286706400,12.47570654296875,-1.649810552597046,1.7537574768066406,2.225907564163208
1715093766296655400,12.4856552734375,-0.0356907844543457,1.239166259765625,0.27973437309265137
1715093766306634500,12.495634521484375,1.9345048666000366,1.056910514831543,-1.4584187269210815
1715093766316613600,12.505613525390626,2.7506208419799805,1.3112869262695312,-2.3190784454345703
1715093766326562600,12.5155625,2.1420321464538574,2.0965518951416016,-2.6830966472625732
1715093766336541700,12.525541748046875,1.4880011081695557,3.159152030944824,-3.028917074203491
1715093766346521000,12.53552099609375,0.9967976808547974,4.221635818481445,-3.250572681427002
1715093766356469800,12.5454697265625,0.4400542974472046,4.883686065673828,-3.2201621532440186
1715093766366449000,12.555448974609375,-0.15158259868621826,5.068635940551758,-2.9931068420410156
1715093766376428300,12.56542822265625,-0.5591477155685425,4.753008842468262,-3.0555238723754883
1715093766386377000,12.575376953125,-0.7711572647094727,4.417344093322754,-3.3145084381103516
1715093766396356000,12.585356201171875,-0.6418013572692871,4.174993515014648,-3.6158390045166016
1715093766406335500,12.59533544921875,-0.22275066375732422,4.211796760559082,-3.798611640930176
1715093766416314600,12.605314697265625,0.7066727876663208,4.348801612854004,-3.8252625465393066
1715093766426294000,12.6152939453125,1.8010907173156738,3.992279052734375,-3.9007601737976074
1715093766436242700,12.62524267578125,2.3692026138305664,3.323467254638672,-3.3194797039031982
1715093766446221800,12.635221923828125,2.633026123046875,2.588611602783203,-2.6150691509246826
1715093766456201200,12.645201171875,2.600903034210205,1.804093360900879,-1.5776286125183105
1715093766466180400,12.655180419921875,2.3756144046783447,1.255056381225586,0.3015005588531494
1715093766476129000,12.66512890625,1.8889621496200562,1.0769052505493164,2.9532017707824707
1715093766486108400,12.6751083984375,1.281897783279419,0.47936344146728516,4.817646026611328
1715093766496087600,12.685087646484375,0.2969932556152344,-1.2983875274658203,5.898753643035889
1715093766506067000,12.69506689453125,-0.45957958698272705,-3.453181266784668,7.343237400054932
1715093766516015600,12.705015625,-2.2767493724823,-5.748849868774414,7.215784072875977
1715093766525994800,12.714994873046875,-4.525003433227539,-6.978780746459961,4.737802028656006
1715093766535974100,12.72497412109375,-3.5214033126831055,-7.225217819213867,0.13235318660736084
1715093766545922800,12.7349228515625,0.19564282894134521,-7.730611801147461,-2.233546733856201
1715093766555902200,12.744902099609375,5.719311237335205,-6.503293991088867,-2.4389846324920654
1715093766565881300,12.75488134765625,6.174431324005127,-2.373257637023926,-2.228914260864258
1715093766575830000,12.764830078125,2.973383903503418,1.2351493835449219,-0.8936808109283447
1715093766585809400,12.774809326171875,1.9034323692321777,0.9008064270019531,3.3225369453430176
1715093766595788500,12.78478857421875,1.08306086063385,-1.3529748916625977,6.299893379211426
