time,seconds_elapsed,z,y,x
1715093753923387100,0.11238720703125,4.4282989501953125,6.2275238037109375,-0.6543731689453125
1715093753933366500,0.122366455078125,4.6126556396484375,7.8316497802734375,0.2865447998046875
1715093753943376400,0.13237646484375,5.898345947265625,7.3144989013671875,0.84918212890625
1715093753953355500,0.14235546875,6.896728515625,5.9210662841796875,0.9473419189453125
1715093753963365400,0.152365478515625,7.715545654296875,5.083099365234375,0.5858154296875
1715093753973344500,0.162344482421875,8.919830322265625,4.618621826171875,0.9473419189453125
1715093753983324000,0.172323974609375,9.259811401367188,4.2403411865234375,0.82763671875
1715093753993303000,0.182302978515625,9.659637451171875,4.0176849365234375,1.1795806884765625
1715093754003282200,0.1922822265625,7.7394866943359375,4.60186767578125,-0.127655029296875
1715093754013261600,0.202261474609375,7.907073974609375,5.504486083984375,-1.7964019775390625
1715093754023240700,0.21224072265625,8.282974243164062,6.1533050537109375,-1.8490753173828125
1715093754033220000,0.22222021484375,8.553512573242188,5.58349609375,-0.2808837890625
1715093754043168800,0.232168701171875,9.645263671875,5.559539794921875,1.8762969970703125
1715093754053148000,0.24214794921875,11.177566528320312,6.7662200927734375,3.516326904296875
1715093754063127300,0.252127197265625,12.312408447265625,7.628143310546875,3.84912109375
1715093754073106400,0.2621064453125,12.975601196289062,7.3097076416015625,3.564208984375
1715093754083085800,0.2720859375,12.451278686523438,5.779815673828125,2.556243896484375
1715093754093034500,0.282034423828125,10.909408569335938,4.5300445556640625,1.1891632080078125
1715093754103013600,0.292013671875,10.34197998046875,4.3983612060546875,0.6887664794921875
1715093754112993000,0.301992919921875,10.368316650390625,5.5499725341796875,1.023956298828125
1715093754122972200,0.31197216796875,10.325225830078125,7.0247955322265625,1.9385528564453125
1715093754132951600,0.32195166015625,9.199951171875,6.6752471923828125,3.1907196044921875
1715093754142900200,0.331900146484375,8.704345703125,6.21795654296875,3.0757904052734375
1715093754152879400,0.34187939453125,8.393096923828125,6.4549713134765625,2.5921630859375
1715093754162858800,0.351858642578125,7.610198974609375,6.68243408203125,2.4149932861328125
1715093754172838000,0.361837890625,7.219940185546875,6.69439697265625,2.4054107666015625
1715093754182786600,0.37178662109375,7.6700592041015625,6.65130615234375,2.4628753662109375
1715093754192766000,0.381765869140625,8.41943359375,6.18682861328125,2.2186737060546875
1715093754202745000,0.3917451171875,8.790542602539062,5.818115234375,1.6943359375
1715093754212694000,0.401694091796875,8.666046142578125,5.4158935546875,1.0478973388671875
1715093754222673200,0.411673095703125,8.086639404296875,5.1764678955078125,0.5762481689453125
1715093754232652300,0.42165234375,7.6389312744140625,4.9849395751953125,0.389495849609375
1715093754242601200,0.431601318359375,7.6700592041015625,5.0424041748046875,0.3392181396484375
1715093754252580400,0.441580322265625,7.789764404296875,4.9945220947265625,0.3703460693359375
1715093754262559700,0.451559814453125,8.199172973632812,4.8795928955078125,0.320068359375
1715093754272508400,0.46150830078125,8.309310913085938,4.7311553955078125,0.3032989501953125
1715093754282487600,0.471487548828125,7.97412109375,4.8341064453125,0.5139923095703125
1715093754292467000,0.481467041015625,7.7322998046875,4.75030517578125,0.1165618896484375
1715093754302415600,0.49141552734375,7.567108154296875,4.5827178955078125,-0.359893798828125
1715093754312394800,0.501394775390625,7.8017425537109375,4.728759765625,-0.4652252197265625
1715093754322374100,0.5113740234375,7.7514495849609375,4.5108795166015625,-0.244964599609375
1715093754332322800,0.52132275390625,7.9022979736328125,4.36004638671875,0.061492919921875
1715093754342302000,0.531302001953125,6.575897216796875,2.6170654296875,0.1285247802734375
1715093754352281300,0.54128125,5.881591796875,1.2882843017578125,-0.5897369384765625
1715093754362230000,0.55122998046875,6.449005126953125,1.3720855712890625,-0.5011444091796875
1715093754372209200,0.561209228515625,7.17205810546875,1.50616455078125,0.3511962890625
1715093754382198800,0.57119873046875,6.511260986328125,0.792694091796875,1.4860382080078125
1715093754392178000,0.581177978515625,7.2798004150390625,0.00738525390625,1.572235107421875
1715093754402157300,0.5911572265625,9.3052978515625,0.3737030029296875,1.8116607666015625
1715093754412106000,0.60110595703125,11.773712158203125,0.6203155517578125,1.847564697265625
1715093754422085000,0.611085205078125,13.423324584960938,0.6418609619140625,2.83636474609375
1715093754432064500,0.621064453125,14.256500244140625,1.120697021484375,3.43731689453125
1715093754442043600,0.631043701171875,2.8529205322265625,5.9043121337890625,3.707855224609375
1715093754451992600,0.64099267578125,7.119384765625,1.34814453125,4.0478363037109375
1715093754461971700,0.6509716796875,4.028472900390625,-5.271820068359375,4.203460693359375
1715093754471950800,0.660950927734375,0.5592803955078125,-3.157745361328125,3.0279083251953125
1715093754481930200,0.67093017578125,2.781097412109375,-4.045989990234375,1.0263519287109375
1715093754491879000,0.68087890625,6.9948883056640625,-4.3189239501953125,-2.5888824462890625
1715093754501858300,0.6908583984375,12.228607177734375,-2.98297119140625,-6.120330810546875
1715093754511837400,0.70083740234375,12.944488525390625,-2.956634521484375,-6.8936614990234375
1715093754521786000,0.7107861328125,12.029891967773438,-3.5120849609375,-5.3757476806640625
1715093754531765500,0.720765625,11.70428466796875,-5.0419769287109375,-0.730987548828125
1715093754541744600,0.73074462890625,10.40423583984375,-5.5806732177734375,3.4660491943359375
1715093754551693300,0.740693359375,9.413040161132812,-5.7554473876953125,5.3263397216796875
1715093754561672700,0.750672607421875,7.3731689453125,-5.3651885986328125,5.6735076904296875
1715093754571651800,0.76065185546875,5.7690582275390625,-4.8145294189453125,6.612030029296875
1715093754581600500,0.7706005859375,4.576751708984375,-5.08746337890625,6.612030029296875
1715093754591580000,0.780579833984375,3.046844482421875,-5.535186767578125,6.020660400390625
1715093754601559000,0.79055908203125,2.5632171630859375,-5.053955078125,5.5537872314453125
1715093754611508000,0.800508056640625,2.5847625732421875,-4.881561279296875,5.481964111328125
1715093754621487000,0.810487060546875,2.1394500732421875,-3.665313720703125,7.2728271484375
1715093754631466200,0.82046630859375,2.022125244140625,-4.2494964599609375,8.062911987304688
1715093754641415200,0.830415283203125,3.9255218505859375,-3.6461639404296875,9.2911376953125
1715093754651394300,0.840394287109375,4.9861602783203125,-2.7938232421875,10.82342529296875
1715093754661373700,0.850373779296875,3.9470672607421875,-1.58953857421875,14.524871826171875
1715093754671323100,0.8603232421875,2.4985809326171875,-2.8369140625,15.080322265625
1715093754681302300,0.87030224609375,3.1378326416015625,-1.7547454833984375,16.002090454101562
1715093754691281400,0.880281494140625,5.03643798828125,-2.0612030029296875,14.769073486328125
1715093754701260800,0.8902607421875,5.359649658203125,-5.798553466796875,11.69012451171875
1715093754711240000,0.900239990234375,7.409088134765625,-8.736236572265625,10.090805053710938
1715093754721188900,0.91018896484375,10.765762329101562,-9.126480102539062,7.6606903076171875
1715093754731168000,0.92016796875,13.894973754882812,-11.539840698242188,4.4021759033203125
1715093754741147100,0.930147216796875,18.355377197265625,-12.531036376953125,2.8770751953125
1715093754751126500,0.94012646484375,23.057586669921875,-10.132049560546875,1.038330078125
1715093754761075200,0.9500751953125,21.041671752929688,-8.396255493164062,-0.307220458984375
1715093754771054600,0.9600546875,15.60205078125,-9.930938720703125,-0.9560394287109375
1715093754781033700,0.97003369140625,13.305999755859375,-8.788909912109375,-1.4636077880859375
1715093754790982400,0.979982421875,9.990036010742188,-8.223876953125,-1.882598876953125
1715093754800961800,0.9899619140625,6.88714599609375,-6.0379638671875,-0.6112823486328125
1715093754810941000,0.99994091796875,5.6254119873046875,-5.9230499267578125,-0.70465087890625
1715093754820889600,1.0098896484375,6.8512420654296875,-6.0547332763671875,0.3296356201171875
1715093754830869000,1.019868896484375,8.287765502929688,-5.7339019775390625,2.2258453369140625
1715093754840848100,1.02984814453125,10.44732666015625,-6.5215911865234375,3.1907196044921875
1715093754850796800,1.039796875,12.800827026367188,-6.1145782470703125,4.658355712890625
1715093754860776200,1.049776123046875,13.756118774414062,-6.1289520263671875,4.7469482421875
1715093754870755300,1.05975537109375,12.63323974609375,-6.6006011962890625,4.3710479736328125
1715093754880704300,1.069704345703125,10.387466430664062,-6.16485595703125,4.1771240234375
1715093754890683400,1.079683349609375,11.000396728515625,-6.126556396484375,2.8483428955078125
1715093754900662500,1.08966259765625,11.232620239257812,-6.41864013671875,2.18035888671875
1715093754910611500,1.099611572265625,12.61407470703125,-6.591033935546875,2.5514678955078125
1715093754920590600,1.109590576171875,13.284454345703125,-7.0914154052734375,3.569000244140625
1715093754930570000,1.119570068359375,13.373046875,-7.88629150390625,3.69110107421875
1715093754940518700,1.1295185546875,12.96124267578125,-8.209503173828125,3.193115234375
1715093754950497800,1.139497802734375,11.438522338867188,-8.36273193359375,2.1085357666015625
1715093754960477200,1.149477294921875,10.3084716796875,-8.69073486328125,1.6488494873046875
1715093754970456300,1.159456298828125,11.381072998046875,-7.5941925048828125,1.900238037109375
1715093754980435700,1.169435791015625,10.23663330078125,-7.64447021484375,2.745391845703125
1715093754990384400,1.17938427734375,8.46014404296875,-8.104156494140625,3.5187225341796875
1715093755000363500,1.189363525390625,8.000457763671875,-7.8671417236328125,3.475616455078125
1715093755010343000,1.199343017578125,7.2247314453125,-7.1273345947265625,3.6144866943359375
1715093755020322000,1.209322021484375,6.0922698974609375,-6.9477691650390625,3.7317962646484375
1715093755030270700,1.219270751953125,2.254364013671875,-6.8328399658203125,5.723785400390625
1715093755040250000,1.22925,1.349365234375,-7.912628173828125,4.8187713623046875
1715093755050229200,1.239229248046875,1.7755279541015625,-7.0411376953125,4.79962158203125
1715093755060178000,1.249177978515625,0.954315185546875,-7.591796875,5.3885955810546875
1715093755070157300,1.2591572265625,0.542510986328125,-9.330001831054688,3.3607025146484375
1715093755080136400,1.269136474609375,0.2528228759765625,-10.225418090820312,1.296905517578125
1715093755090085000,1.279085205078125,-0.6138763427734375,-9.811233520507812,-1.0877227783203125
1715093755100064500,1.289064453125,-0.6019134521484375,-10.076980590820312,-1.1356048583984375
1715093755110043600,1.299043701171875,-0.714447021484375,-8.8367919921875,-2.0070953369140625
1715093755119992600,1.30899267578125,-1.1621551513671875,-9.22705078125,-2.600860595703125
1715093755129971700,1.3189716796875,-0.788665771484375,-9.210281372070312,-3.3167266845703125
1715093755139950800,1.328950927734375,-0.4271392822265625,-8.714691162109375,-3.17547607421875
1715093755149907500,1.338907470703125,-0.9083709716796875,-8.262176513671875,-2.5673370361328125
1715093755159886800,1.348886962890625,0.927978515625,-7.5080108642578125,-2.538604736328125
1715093755169866000,1.358865966796875,0.382110595703125,-7.4242095947265625,-2.1699066162109375
1715093755179815000,1.36881494140625,-0.831756591796875,-6.4521636962890625,-3.1730804443359375
1715093755189794000,1.3787939453125,-1.86126708984375,-5.21435546875,-4.0397796630859375
1715093755199773200,1.388773193359375,-2.8620452880859375,-4.5439910888671875,-3.572906494140625
1715093755209722000,1.39872216796875,-2.045623779296875,-3.9214935302734375,-2.3542633056640625
1715093755219701200,1.408701171875,-0.7551422119140625,-4.225555419921875,-0.572967529296875
1715093755229680600,1.4186806640625,0.8130645751953125,-4.5296173095703125,1.01678466796875
1715093755239629300,1.42862939453125,1.9862213134765625,-5.202392578125,1.7278594970703125
1715093755249608400,1.4386083984375,2.9582672119140625,-6.440185546875,2.429351806640625
1715093755259596300,1.44859619140625,7.7035675048828125,-8.374710083007812,1.7182769775390625
1715093755269575400,1.458575439453125,10.646041870117188,-14.697799682617188,-2.9001312255859375
1715093755279554800,1.468554931640625,0.9088287353515625,-15.396896362304688,-0.0941314697265625
1715093755289503500,1.47850341796875,-1.83013916015625,-9.030715942382812,6.7101898193359375
1715093755299482600,1.488482666015625,-1.8061981201171875,-8.14007568359375,8.2137451171875
1715093755309462000,1.4984619140625,-1.6170501708984375,-10.862289428710938,9.030166625976562
1715093755319441200,1.508441162109375,-0.0440673828125,-10.261337280273438,12.221649169921875
1715093755329389800,1.518389892578125,0.7460174560546875,-12.35626220703125,11.905609130859375
1715093755339369200,1.528369140625,0.51617431640625,-16.148681640625,4.3495025634765625
1715093755349326300,1.538326416015625,2.62786865234375,-20.415145874023438,-5.7683868408203125
1715093755359275000,1.54827490234375,-0.1949005126953125,-20.091934204101562,-6.424407958984375
1715093755369254400,1.55825439453125,0.8872833251953125,-17.716888427734375,-7.2935028076171875
1715093755379233500,1.568233642578125,2.38604736328125,-14.745681762695312,-4.9280242919921875
1715093755389182200,1.57818212890625,2.0771942138671875,-19.69927978515625,-12.160903930664062
1715093755399161600,1.58816162109375,-0.4055938720703125,-21.5164794921875,-10.96380615234375
1715093755409155600,1.598155517578125,-0.6138763427734375,-19.601119995117188,-6.192169189453125
1715093755419104500,1.6081044921875,-2.1557464599609375,-15.1024169921875,-0.920135498046875
1715093755429083600,1.618083740234375,-1.04962158203125,-11.55181884765625,0.8252410888671875
1715093755439062800,1.628062744140625,2.031707763671875,-11.898971557617188,0.77496337890625
1715093755449011700,1.63801171875,3.578369140625,-10.989181518554688,1.7541961669921875
1715093755458990800,1.647990966796875,2.7092742919921875,-10.7186279296875,2.0510711669921875
1715093755468970000,1.657969970703125,0.5975799560546875,-8.137680053710938,0.6456756591796875
1715093755478919000,1.6679189453125,-2.5076904296875,-5.47772216796875,-0.76690673828125
1715093755488898000,1.67789794921875,-4.382354736328125,-4.187255859375,-0.5107269287109375
1715093755498877400,1.68787744140625,-3.7191619873046875,-5.061126708984375,0.739044189453125
1715093755508826000,1.697826171875,-0.805419921875,-6.5527191162109375,1.6703948974609375
1715093755518805200,1.70780517578125,2.0700225830078125,-7.4601287841796875,3.205078125
1715093755528784600,1.71778466796875,3.425140380859375,-9.44012451171875,2.0917816162109375
1715093755538763800,1.727763671875,1.0093841552734375,-9.643630981445312,0.5930023193359375
1715093755548712400,1.73771240234375,-0.1901092529296875,-9.327606201171875,0.4756927490234375
1715093755558691800,1.74769189453125,-0.7814788818359375,-9.361114501953125,-0.5442352294921875
1715093755568671000,1.7576708984375,0.14508056640625,-9.689117431640625,-0.7022552490234375
1715093755578650400,1.767650390625,-0.472625732421875,-9.58856201171875,-0.393402099609375
1715093755588629500,1.77762939453125,-1.253143310546875,-9.495193481445312,0.04473876953125
1715093755598578200,1.787578125,-1.1358184814453125,-9.993194580078125,-0.0366668701171875
1715093755608557600,1.7975576171875,-0.9394989013671875,-10.426544189453125,-0.3646697998046875
1715093755618536700,1.80753662109375,-0.7742919921875,-10.754547119140625,-0.4963531494140625
1715093755628485400,1.8174853515625,-0.5851593017578125,-10.7186279296875,-0.4700164794921875
1715093755638464800,1.82746484375,1.2057037353515625,-10.701873779296875,-0.1827239990234375
1715093755648444000,1.83744384765625,2.718841552734375,-11.460830688476562,0.4876556396484375
1715093755658392800,1.847392822265625,-1.181304931640625,-10.4217529296875,-0.0462493896484375
1715093755668372000,1.8573720703125,-1.348907470703125,-10.029098510742188,0.08782958984375
1715093755678351000,1.86735107421875,-1.265106201171875,-9.763351440429688,0.5355377197265625
1715093755688300000,1.877300048828125,-2.8309173583984375,-3.48095703125,2.4006195068359375
1715093755698279200,1.887279052734375,-2.84527587890625,-1.2280120849609375,2.24261474609375
1715093755708258600,1.897258544921875,0.6741943359375,-2.9350738525390625,0.123748779296875
1715093755718207200,1.907207275390625,-0.3433380126953125,-3.739532470703125,-0.07977294921875
1715093755728186400,1.917186279296875,-0.7814788818359375,-5.7027740478515625,-0.561004638671875
1715093755738165800,1.927165771484375,0.1905670166015625,-7.8000946044921875,-0.4580535888671875
1715093755748145000,1.937144775390625,1.0405120849609375,-9.339569091796875,-0.4652252197265625
1715093755758093600,1.947093505859375,0.78912353515625,-8.865524291992188,-0.424530029296875
1715093755768073000,1.957072998046875,1.9191741943359375,-7.290130615234375,-0.30242919921875
1715093755778052000,1.967052001953125,1.9981842041015625,-7.79052734375,-0.0079345703125
1715093755788000800,1.977000732421875,0.2647857666015625,-10.043472290039062,-0.477203369140625
1715093755797980200,1.986980224609375,-1.6577606201171875,-10.871856689453125,-1.1882781982421875
1715093755807959300,1.996959228515625,-3.0751190185546875,-14.005874633789062,1.3639373779296875
1715093755817938700,2.006938720703125,-4.0088653564453125,-18.059249877929688,4.8187713623046875
1715093755827887400,2.016887451171875,-3.345672607421875,-17.326629638671875,3.3559112548828125
1715093755837866500,2.026866455078125,-1.4901580810546875,-12.7249755859375,1.3806915283203125
1715093755847846000,2.036845947265625,0.5999755859375,-10.440902709960938,0.2266845703125
1715093755857825000,2.046824951171875,1.7061004638671875,-10.72821044921875,0.8994598388671875
1715093755867804400,2.056804443359375,0.6454620361328125,-14.314727783203125,-0.8171844482421875
1715093755877753000,2.066753173828125,-0.451080322265625,-15.554916381835938,-1.3032073974609375
1715093755887732200,2.076732177734375,-1.3728485107421875,-13.8023681640625,-0.9823760986328125
1715093755897711600,2.086711669921875,-1.449462890625,-11.867843627929688,0.0758514404296875
1715093755907660300,2.096660400390625,-1.138214111328125,-11.25732421875,0.5738525390625
1715093755917639400,2.106639404296875,-1.011322021484375,-11.348312377929688,0.5882110595703125
1715093755927618800,2.116618896484375,-1.116668701171875,-11.491958618164062,0.59539794921875
1715093755937567500,2.1265673828125,-0.989776611328125,-11.764892578125,0.504425048828125
1715093755947547000,2.136546875,-0.7288055419921875,-11.982772827148438,0.612152099609375
1715093755957526000,2.146526123046875,-0.6402130126953125,-11.673919677734375,0.6360931396484375
1715093755967474700,2.156474609375,-0.714447021484375,-10.891006469726562,0.7845458984375
1715093755977454000,2.1664541015625,-1.53326416015625,-9.14324951171875,1.5961761474609375
1715093755987433200,2.17643310546875,-1.94744873046875,-8.729049682617188,1.0694580078125
1715093755997382000,2.1863818359375,-1.36566162109375,-7.9078369140625,1.1221160888671875
1715093756007361300,2.196361328125,-0.6186676025390625,-7.2877349853515625,1.0933990478515625
1715093756017340400,2.20634033203125,-0.1422271728515625,-7.689971923828125,1.07183837890625
1715093756027289000,2.2162890625,-0.060821533203125,-8.386672973632812,0.9784698486328125
1715093756037268500,2.2262685546875,-0.087158203125,-8.872695922851562,0.77496337890625
1715093756047247600,2.23624755859375,-0.17095947265625,-9.157608032226562,0.6025848388671875
1715093756057196500,2.246196533203125,-0.3337554931640625,-9.368301391601562,0.5499114990234375
1715093756067175700,2.25617578125,-0.3002471923828125,-9.583786010742188,1.0263519287109375
1715093756077154800,2.26615478515625,-0.5707855224609375,-9.466461181640625,1.0814208984375
1715093756087103700,2.276103759765625,-0.5229034423828125,-9.327606201171875,1.837982177734375
1715093756097083000,2.286082763671875,-0.5923309326171875,-9.215072631835938,1.9074249267578125
1715093756107062300,2.296062255859375,-0.537261962890625,-8.946914672851562,2.0558624267578125
1715093756117041400,2.30604150390625,-0.355316162109375,-8.9852294921875,2.1660003662109375
1715093756127020500,2.3160205078125,-0.1278533935546875,-9.222259521484375,2.079803466796875
1715093756136969500,2.325969482421875,0.298309326171875,-9.550262451171875,2.1300811767578125
1715093756146948600,2.335948486328125,0.3916778564453125,-9.79925537109375,1.62969970703125
1715093756156928000,2.345927978515625,0.700531005859375,-10.2110595703125,1.6225128173828125
1715093756166907100,2.3559072265625,0.6933441162109375,-10.81439208984375,1.562652587890625
1715093756176855800,2.365855712890625,0.7723541259765625,-11.333938598632812,1.5794219970703125
1715093756186835200,2.375835205078125,0.8848876953125,-11.537445068359375,1.67279052734375
1715093756196814300,2.385814453125,1.1362762451171875,-11.2142333984375,1.7709503173828125
1715093756206763000,2.395762939453125,0.975860595703125,-11.199859619140625,2.017547607421875
1715093756216742400,2.405742431640625,0.8561553955078125,-10.574981689453125,1.85235595703125
1715093756226721500,2.415721435546875,0.942352294921875,-9.959671020507812,1.909820556640625
1715093756236670200,2.425670166015625,0.995025634765625,-9.57659912109375,1.8332061767578125
1715093756246649600,2.435649658203125,0.9974212646484375,-9.33477783203125,1.7996826171875
1715093756256628700,2.445628662109375,1.1530303955078125,-9.124099731445312,1.7446136474609375
1715093756266577400,2.455577392578125,1.23443603515625,-9.18634033203125,1.974456787109375
1715093756276556800,2.465556884765625,0.94952392578125,-9.138458251953125,1.70391845703125
1715093756286536000,2.475535888671875,1.4571075439453125,-9.150436401367188,2.015167236328125
1715093756296484900,2.48548486328125,1.4834442138671875,-9.33477783203125,2.06304931640625
1715093756306464000,2.495464111328125,1.497802734375,-9.44012451171875,1.9816436767578125
1715093756316443100,2.505443115234375,1.5576629638671875,-9.401824951171875,2.0103759765625
1715093756326392000,2.51539208984375,1.6031494140625,-8.60455322265625,1.878692626953125
1715093756336371200,2.52537109375,1.9167938232421875,-9.32281494140625,1.9241790771484375
1715093756346350600,2.5353505859375,1.63427734375,-9.30126953125,2.0127716064453125
1715093756356299300,2.54529931640625,1.4379425048828125,-9.215072631835938,1.9600982666015625
1715093756366278400,2.5552783203125,1.502593994140625,-9.286895751953125,2.0941619873046875
1715093756376257800,2.5652578125,1.2679595947265625,-9.272537231445312,2.0941619873046875
1715093756386206500,2.57520654296875,0.626312255859375,-9.021148681640625,1.9816436767578125
1715093756396185600,2.585185546875,0.5712432861328125,-9.267745971679688,2.4269561767578125
1715093756406165000,2.5951650390625,-0.10870361328125,-9.885452270507812,2.4245758056640625
1715093756416144100,2.60514404296875,-0.1781463623046875,-10.527099609375,2.2210693359375
1715093756426123500,2.61512353515625,0.7723541259765625,-11.764892578125,1.71588134765625
1715093756436072200,2.625072265625,2.5680084228515625,-12.954818725585938,0.4876556396484375
1715093756446051300,2.63505126953125,3.489776611328125,-12.701034545898438,-0.58734130859375
1715093756456030700,2.64503076171875,1.9191741943359375,-10.055435180664062,-0.9967498779296875
1715093756466009900,2.655009765625,-0.293060302734375,-7.680389404296875,-0.5849456787109375
1715093756475958500,2.66495849609375,-0.8772430419921875,-6.3563995361328125,1.2059173583984375
1715093756485938000,2.67493798828125,-1.107086181640625,-5.6548919677734375,1.9648895263671875
1715093756495917000,2.6849169921875,-1.518890380859375,-5.772216796875,2.31683349609375
1715093756505866000,2.694865966796875,-1.327362060546875,-7.247039794921875,2.40301513671875
1715093756515845000,2.70484521484375,-1.2770843505859375,-10.088958740234375,1.794891357421875
1715093756525824300,2.71482421875,-1.5524139404296875,-11.547027587890625,0.8587646484375
1715093756535773200,2.724773193359375,-1.0352630615234375,-11.293243408203125,0.1405029296875
1715093756545752300,2.73475244140625,-0.4750213623046875,-10.98199462890625,-0.9033660888671875
1715093756555731700,2.744731689453125,-2.95062255859375,-10.3594970703125,-1.6168365478515625
1715093756565680400,2.754680419921875,-6.0367584228515625,-8.800872802734375,-4.693389892578125
1715093756575659500,2.764659423828125,-1.8899993896484375,-8.307662963867188,-4.8873291015625
1715093756585639000,2.774638916015625,-0.6114959716796875,-9.171981811523438,-3.3885498046875
1715093756595587600,2.784587646484375,5.010101318359375,-10.936508178710938,-2.0765228271484375
1715093756605566700,2.794566650390625,9.386703491210938,-11.525482177734375,0.9880523681640625
1715093756615546000,2.804546142578125,7.1313629150390625,-9.21746826171875,1.3471832275390625
1715093756625494800,2.814494873046875,2.7954559326171875,-8.432174682617188,3.494781494140625
1715093756635474000,2.824473876953125,-0.3385467529296875,-9.361114501953125,1.6656036376953125
1715093756645453300,2.834453369140625,-3.0966644287109375,-10.333160400390625,0.1213531494140625
1715093756655402000,2.844402099609375,-4.5954437255859375,-10.709060668945312,-1.45404052734375
1715093756665381000,2.854381103515625,-4.7989501953125,-10.936508178710938,-2.4667816162109375
1715093756675360500,2.864360595703125,-3.5012969970703125,-11.736160278320312,-3.0629425048828125
1715093756685339600,2.874339599609375,-1.803802490234375,-12.200637817382812,-2.378204345703125
1715093756695288600,2.88428857421875,-0.556427001953125,-11.977981567382812,-1.7174072265625
1715093756705267700,2.894267822265625,-0.6019134521484375,-11.11846923828125,-1.7437286376953125
1715093756715246800,2.904246826171875,-1.3848114013671875,-10.223037719726562,-1.3774261474609375
1715093756725226200,2.914226318359375,-1.746337890625,-9.698699951171875,-0.613677978515625
1715093756735205400,2.924205322265625,-1.6481781005859375,-9.40899658203125,-0.2736968994140625
1715093756745154300,2.934154296875,-1.6170501708984375,-9.313232421875,-0.541839599609375
1715093756755133400,2.944133544921875,-1.741546630859375,-9.35394287109375,-0.7142333984375
1715093756765112600,2.954112548828125,-1.6697235107421875,-9.459274291992188,-0.8914031982421875
1715093756775061500,2.9640615234375,-1.5380401611328125,-9.53350830078125,-0.898590087890625
1715093756785040600,2.97404052734375,-1.581146240234375,-9.389846801757812,-0.678314208984375
1715093756795020000,2.98402001953125,-1.5380401611328125,-9.188735961914062,-0.053436279296875
1715093756804999200,2.993999267578125,-1.301025390625,-9.004379272460938,0.430206298828125
1715093756814947800,3.00394775390625,-1.1238555908203125,-8.865524291992188,1.0311431884765625
1715093756824927200,3.01392724609375,-0.726409912109375,-8.638076782226562,1.222686767578125
1715093756834906400,3.02390625,-0.5276947021484375,-8.513565063476562,1.0311431884765625
1715093756844855000,3.03385498046875,-0.5803680419921875,-8.571029663085938,1.138885498046875
1715093756854834400,3.04383447265625,-0.434326171875,-8.4896240234375,0.9617156982421875
1715093756864813600,3.0538134765625,-0.5803680419921875,-8.307662963867188,0.736663818359375
1715093756874762200,3.06376220703125,-0.8245697021484375,-8.089797973632812,0.92340087890625
1715093756884741600,3.07374169921875,-0.9849853515625,-8.005996704101562,0.9042510986328125
1715093756894720800,3.083720703125,-1.2100372314453125,-7.9533233642578125,0.80609130859375
1715093756904669700,3.093669677734375,-1.4566497802734375,-7.9078369140625,0.6360931396484375
1715093756914648800,3.10364892578125,-1.5667724609375,-8.061065673828125,0.40386962890625
1715093756924628000,3.1136279296875,-1.597900390625,-8.5638427734375,0.5115966796875
1715093756934577000,3.123576904296875,-1.3153839111328125,-9.162399291992188,0.2745819091796875
1715093756944556000,3.13355615234375,-0.6809234619140625,-9.638839721679688,0.09979248046875
1715093756954535400,3.143535400390625,-0.2044677734375,-9.933334350585938,0.0950164794921875
1715093756964514600,3.1535146484375,0.224090576171875,-9.942916870117188,0.145294189453125
1715093756974463200,3.163463134765625,0.482666015625,-9.97882080078125,0.7103271484375
1715093756984442600,3.173442626953125,0.44195556640625,-9.844741821289062,0.76300048828125
1715093756994421800,3.183421875,0.1283111572265625,-9.72503662109375,0.897064208984375
1715093757004401000,3.19340087890625,-0.21405029296875,-9.413787841796875,0.9425506591796875
1715093757014380300,3.20338037109375,-0.6402130126953125,-9.320419311523438,0.664825439453125
1715093757024329000,3.213328857421875,-1.17413330078125,-9.50238037109375,0.695953369140625
1715093757034308400,3.223308349609375,-1.1310272216796875,-9.897415161132812,0.432586669921875
1715093757044287500,3.23328759765625,-1.085540771484375,-10.428939819335938,0.2961273193359375
1715093757054236200,3.243236083984375,-0.9969635009765625,-10.984390258789062,0.030364990234375
1715093757064215600,3.253215576171875,-0.8245697021484375,-11.566177368164062,-0.06060791015625
1715093757074194700,3.263194580078125,-0.0057525634765625,-11.831939697265625,-0.2521514892578125
1715093757084143400,3.273143310546875,0.6861724853515625,-12.121627807617188,0.0495147705078125
1715093757094122800,3.283122802734375,0.6502532958984375,-12.253311157226562,0.2290802001953125
1715093757104102000,3.293101806640625,1.629486083984375,-12.042617797851562,0.432586669921875
1715093757114050600,3.303050537109375,1.26556396484375,-12.157546997070312,1.213104248046875
1715093757124030000,3.313030029296875,1.397247314453125,-12.035446166992188,1.6512451171875
1715093757134009000,3.323009033203125,0.7986907958984375,-11.96600341796875,2.438934326171875
1715093757143958000,3.3329580078125,0.3007049560546875,-11.611663818359375,2.989593505859375
1715093757153937200,3.342937255859375,-0.6857147216796875,-10.948471069335938,2.915374755859375
1715093757163916300,3.352916259765625,-2.44305419921875,-10.256546020507812,2.302459716796875
1715093757173865200,3.362865234375,-2.828521728515625,-9.385055541992188,1.4812469482421875
1715093757183844400,3.37284423828125,-2.167724609375,-7.996429443359375,0.8396148681640625
1715093757193823700,3.38282373046875,-1.79901123046875,-6.8424224853515625,-0.5178985595703125
1715093757203772400,3.3927724609375,-2.3664398193359375,-5.566314697265625,-1.41094970703125
1715093757213751600,3.40275146484375,-2.5364227294921875,-5.053955078125,-2.8570404052734375
1715093757223731000,3.41273095703125,-2.1030731201171875,-4.996490478515625,-3.8458404541015625
1715093757233679600,3.4226796875,-1.89239501953125,-5.6022186279296875,-4.947174072265625
1715093757243658800,3.43265869140625,-2.110260009765625,-6.9286041259765625,-6.1442718505859375
1715093757253638100,3.44263818359375,-2.7902069091796875,-8.458511352539062,-6.7978973388671875
1715093757263617300,3.4526171875,-2.7423248291015625,-10.90777587890625,-6.975067138671875
1715093757273596700,3.4625966796875,-2.9434356689453125,-12.363449096679688,-6.860137939453125
1715093757283545300,3.47254541015625,-0.8245697021484375,-15.011428833007812,-5.42840576171875
1715093757293524500,3.4825244140625,-1.58831787109375,-16.440780639648438,-2.643951416015625
1715093757303504000,3.49250390625,-3.2331390380859375,-16.802291870117188,0.2817535400390625
1715093757313483000,3.50248291015625,-5.574676513671875,-16.263595581054688,1.7996826171875
1715093757323431700,3.512431640625,-6.6041717529296875,-14.599624633789062,2.92974853515625
1715093757333411000,3.5224111328125,-6.3120880126953125,-12.655532836914062,3.791656494140625
1715093757343390200,3.53239013671875,-6.685577392578125,-12.009109497070312,2.596954345703125
1715093757353339000,3.5423388671875,-5.4621429443359375,-10.41217041015625,3.3080291748046875
1715093757363318300,3.552318359375,-3.0368194580078125,-9.236618041992188,3.020721435546875
1715093757373297400,3.56229736328125,-0.949066162109375,-8.333999633789062,2.68792724609375
1715093757383246300,3.572246337890625,0.87530517578125,-7.53912353515625,3.042266845703125
1715093757393225500,3.5822255859375,1.5408935546875,-7.903045654296875,2.407806396484375
1715093757403204600,3.59220458984375,1.3469696044921875,-9.14324951171875,1.6177215576171875
1715093757413153500,3.602153564453125,1.1075439453125,-9.962066650390625,1.002410888671875
1715093757423132700,3.612132568359375,1.2057037353515625,-10.134445190429688,0.7677764892578125
1715093757433112000,3.622112060546875,1.7659454345703125,-9.971633911132812,0.695953369140625
1715093757443060700,3.632060791015625,2.07958984375,-9.770523071289062,0.0590972900390625
1715093757453039900,3.642039794921875,1.787506103515625,-9.399429321289062,-0.508331298828125
1715093757463019300,3.652019287109375,1.29669189453125,-8.72186279296875,-0.53466796875
1715093757472968000,3.661968017578125,0.669403076171875,-7.9629058837890625,-0.5226898193359375
1715093757482947000,3.671947021484375,0.3773193359375,-7.6109619140625,-0.4221343994140625
1715093757492926500,3.681926513671875,0.382110595703125,-7.5080108642578125,-0.4532623291015625
1715093757502875100,3.691875244140625,0.705322265625,-7.3978729248046875,-0.613677978515625
1715093757512854300,3.701854248046875,0.71728515625,-7.299713134765625,-0.709442138671875
1715093757522833700,3.711833740234375,1.387664794921875,-7.1800079345703125,-0.6376190185546875
1715093757532782300,3.7217822265625,1.842559814453125,-7.084228515625,-0.5657958984375
1715093757542761700,3.73176171875,2.1514129638671875,-6.909454345703125,-0.398193359375
1715093757552740900,3.741740966796875,2.3046417236328125,-6.8807220458984375,-0.4221343994140625
1715093757562720000,3.751719970703125,2.3501434326171875,-6.7562255859375,-0.31439208984375
1715093757572699400,3.761699462890625,2.2974700927734375,-6.5742645263671875,-0.1156768798828125
1715093757582648000,3.77164794921875,2.3764801025390625,-6.4569549560546875,0.04473876953125
1715093757592627500,3.78162744140625,2.4554901123046875,-6.476104736328125,0.463714599609375
1715093757602606600,3.791606689453125,2.56561279296875,-6.643707275390625,1.0526885986328125
1715093757612585700,3.801585693359375,2.6566009521484375,-6.9645233154296875,1.943328857421875
1715093757622534700,3.81153466796875,2.71405029296875,-7.4146270751953125,3.130859375
1715093757632513800,3.821513671875,2.6949005126953125,-7.9533233642578125,4.8187713623046875
1715093757642493200,3.8314931640625,2.560821533203125,-8.808059692382812,6.6575164794921875
1715093757652441900,3.84144189453125,2.1873321533203125,-9.722640991210938,8.479507446289062
1715093757662421000,3.8514208984375,1.366119384765625,-10.75933837890625,9.468307495117188
1715093757672400400,3.861400390625,0.1546478271484375,-11.807998657226562,9.221710205078125
1715093757682349000,3.87134912109375,-0.161376953125,-12.717788696289062,8.429229736328125
1715093757692328200,3.881328125,-0.2164459228515625,-12.760879516601562,6.4803466796875
1715093757702307600,3.8913076171875,-0.25714111328125,-12.880599975585938,3.834747314453125
1715093757712286700,3.90128662109375,1.2416229248046875,-13.199020385742188,1.905029296875
1715093757722235400,3.9112353515625,3.6190643310546875,-13.55096435546875,0.590606689453125
1715093757732214800,3.92121484375,5.9007415771484375,-13.737716674804688,0.863555908203125
1715093757742194000,3.93119384765625,6.542388916015625,-13.42169189453125,1.414215087890625
1715093757752142600,3.941142578125,4.83770751953125,-13.342681884765625,2.4987945556640625
1715093757762122000,3.9511220703125,3.6765289306640625,-14.199798583984375,3.791656494140625
1715093757772101000,3.96110107421875,1.967071533203125,-15.602798461914062,4.107696533203125
1715093757782050000,3.971050048828125,-2.1557464599609375,-16.943557739257812,2.819610595703125
1715093757792029200,3.981029296875,-5.1030120849609375,-19.131851196289062,-1.2816619873046875
1715093757802008300,3.99100830078125,-6.0247802734375,-20.771881103515625,-4.1187896728515625
1715093757811957200,4.000957275390625,-2.8476715087890625,-17.508590698242188,-4.4228515625
1715093757821936400,4.010936279296875,-1.028076171875,-10.847915649414062,-4.1355438232421875
1715093757831915800,4.020915771484375,-0.3002471923828125,-6.9645233154296875,-2.031036376953125
1715093757841895000,4.03089501953125,0.1738128662109375,-5.1209869384765625,-0.19708251953125
1715093757851874000,4.0408740234375,-0.3122100830078125,-4.4027252197265625,0.990447998046875
1715093757861823000,4.050822998046875,-0.9993438720703125,-4.151336669921875,1.37591552734375
1715093757871802000,4.060802001953125,-1.4901580810546875,-3.914306640625,1.2202911376953125
1715093757881781500,4.070781494140625,-1.2052459716796875,-4.3859710693359375,0.6360931396484375
1715093757891760600,4.0807607421875,-0.324188232421875,-5.894317626953125,1.2370452880859375
1715093757901709300,4.090709228515625,0.6023712158203125,-8.058670043945312,0.664825439453125
1715093757911688700,4.100688720703125,1.1051483154296875,-10.108108520507812,-1.080535888671875
1715093757921667800,4.110667724609375,0.8202362060546875,-11.645187377929688,-2.325531005859375
1715093757931616500,4.120616455078125,-0.53009033203125,-12.349075317382812,-3.922454833984375
1715093757941596000,4.130595947265625,-2.131805419921875,-12.07135009765625,-5.888092041015625
1715093757951575000,4.140574951171875,-2.3712310791015625,-10.81201171875,-5.6175537109375
1715093757961523700,4.150523681640625,-1.0304718017578125,-9.212677001953125,-3.32391357421875
1715093757971503000,4.160503173828125,0.1666259765625,-7.81207275390625,-2.4356536865234375
1715093757981482200,4.170482177734375,1.0045928955078125,-6.593414306640625,-2.0908966064453125
1715093757991431200,4.18043115234375,1.6797637939453125,-5.7913665771484375,-2.4979095458984375
1715093758001410300,4.190410400390625,1.6893310546875,-5.693206787109375,-3.0844879150390625
1715093758011389400,4.200389404296875,0.9974212646484375,-6.2893524169921875,-2.3398895263671875
1715093758021338400,4.21033837890625,0.1666259765625,-7.431396484375,-1.619232177734375
1715093758031317500,4.2203173828125,-0.788665771484375,-8.74102783203125,-0.687896728515625
1715093758041297000,4.230296875,-1.4829864501953125,-9.9141845703125,0.2266845703125
1715093758051245600,4.24024560546875,-1.686492919921875,-10.711441040039062,0.971282958984375
1715093758061224700,4.250224609375,-1.6266326904296875,-10.948471069335938,1.4716796875
1715093758071204000,4.2602041015625,-1.518890380859375,-10.598922729492188,1.9481201171875
1715093758081152800,4.27015283203125,-1.3249664306640625,-9.952484130859375,2.201904296875
1715093758091132000,4.2801318359375,-1.17413330078125,-9.308441162109375,1.984039306640625
1715093758101111300,4.290111328125,-1.0783538818359375,-8.46807861328125,2.03192138671875
1715093758111090400,4.30009033203125,-1.011322021484375,-8.00360107421875,2.3695068359375
1715093758121039000,4.3100390625,-1.028076171875,-8.413009643554688,1.8403778076171875
1715093758131018500,4.3200185546875,-1.04962158203125,-8.116134643554688,1.8667144775390625
1715093758140997600,4.32999755859375,-1.1262359619140625,-8.005996704101562,2.0989532470703125
1715093758150977000,4.33997705078125,-1.3321380615234375,-8.168807983398438,2.1181182861328125
1715093758160956200,4.3499560546875,-1.3776397705078125,-8.451324462890625,2.142059326171875
1715093758170904800,4.35990478515625,-1.6409912109375,-8.908615112304688,2.2521820068359375
1715093758180884200,4.36988427734375,-1.856475830078125,-9.425765991210938,2.276123046875
1715093758190863400,4.37986328125,-1.96661376953125,-9.906997680664062,2.4245758056640625
1715093758200812000,4.38981201171875,-1.961822509765625,-10.352325439453125,2.355133056640625
1715093758210791400,4.39979150390625,-1.3632659912109375,-10.785675048828125,2.175567626953125
1715093758220770600,4.4097705078125,-0.8652801513671875,-10.77130126953125,2.0869903564453125
1715093758230719500,4.419719482421875,-0.2667236328125,-10.804824829101562,2.4844207763671875
1715093758240698600,4.42969873046875,0.8920745849609375,-10.184722900390625,2.0343170166015625
1715093758250677800,4.439677734375,1.8497467041015625,-9.066635131835938,1.7709503173828125
1715093758260626700,4.449626708984375,2.6110992431640625,-8.10894775390625,1.6273040771484375
1715093758270605800,4.459605712890625,3.0157318115234375,-7.9940338134765625,1.4597015380859375
1715093758280585200,4.469585205078125,3.353302001953125,-7.4242095947265625,1.557861328125
1715093758290534000,4.479533935546875,2.7523651123046875,-8.02276611328125,1.09100341796875
1715093758300513000,4.489512939453125,1.006988525390625,-9.030715942382812,0.736663818359375
1715093758310492400,4.499492431640625,-0.5396575927734375,-10.6444091796875,0.7103271484375
1715093758320441000,4.509441162109375,-0.5013580322265625,-11.906158447265625,0.2386627197265625
1715093758330420200,4.519420166015625,-0.1637725830078125,-12.435272216796875,-0.0582122802734375
1715093758340399600,4.529399658203125,1.38287353515625,-12.78961181640625,-0.276092529296875
1715093758350348300,4.539348388671875,1.397247314453125,-13.558151245117188,-0.3790435791015625
1715093758360327400,4.549327392578125,1.1721954345703125,-12.868621826171875,0.092620849609375
1715093758370306800,4.559306884765625,0.0421295166015625,-11.633209228515625,1.225067138671875
1715093758380255500,4.56925537109375,-0.9873809814453125,-10.318801879882812,2.2737274169921875
1715093758390235000,4.57923486328125,-0.2667236328125,-9.06903076171875,3.367889404296875
1715093758400214000,4.589214111328125,-1.023284912109375,-8.25738525390625,3.114105224609375
1715093758410193200,4.599193115234375,-1.6912689208984375,-7.4290008544921875,1.979248046875
1715093758420172500,4.609172607421875,-2.1294097900390625,-6.677215576171875,0.674407958984375
1715093758430121200,4.619121337890625,-2.7782440185546875,-6.2366790771484375,-0.80999755859375
1715093758440100600,4.6291005859375,-2.960205078125,-6.3300628662109375,-2.8833770751953125
1715093758450079700,4.639079833984375,-2.7471160888671875,-7.014801025390625,-5.1985626220703125
1715093758460059000,4.649058837890625,-3.5874786376953125,-8.54229736328125,-6.7069091796875
1715093758470007800,4.6590078125,-4.4685516357421875,-11.061004638671875,-7.729248046875
1715093758479987000,4.668987060546875,-4.93780517578125,-13.692230224609375,-8.148223876953125
1715093758489966000,4.678966064453125,-4.67205810546875,-15.957138061523438,-8.679733276367188
1715093758499915000,4.6889150390625,-4.3033447265625,-18.303466796875,-8.16259765625
1715093758509894100,4.69889404296875,-3.1517333984375,-19.900390625,-4.4539794921875
1715093758519873500,4.70887353515625,-2.478973388671875,-19.874053955078125,-0.9704132080078125
1715093758529822200,4.718822265625,-3.4246826171875,-18.111923217773438,1.9936065673828125
1715093758539801300,4.72880126953125,-4.3536224365234375,-14.343460083007812,5.26409912109375
1715093758549780700,4.73878076171875,-6.64727783203125,-11.762496948242188,5.9081268310546875
1715093758559760000,4.748759765625,-6.5203857421875,-9.198318481445312,5.8865814208984375
1715093758569708500,4.75870849609375,-3.6353607177734375,-6.7490386962890625,6.60723876953125
1715093758579688000,4.76868798828125,-1.6314239501953125,-6.09063720703125,5.27606201171875
1715093758589667000,4.7786669921875,-0.9969635009765625,-7.0698699951171875,3.1739501953125
1715093758599615700,4.78861572265625,-0.6450042724609375,-8.432174682617188,1.3687286376953125
1715093758609595100,4.79859521484375,0.372528076171875,-9.109725952148438,0.4373779296875
1715093758619574300,4.80857421875,1.449920654296875,-9.265350341796875,-0.1324310302734375
1715093758629523200,4.818523193359375,2.6733551025390625,-8.899032592773438,-0.2473602294921875
1715093758639502300,4.82850244140625,3.341339111328125,-8.015579223632812,-0.46044921875
1715093758649481500,4.8384814453125,2.8960113525390625,-7.4720916748046875,-0.498748779296875
1715093758659430400,4.848430419921875,1.8808746337890625,-6.7442626953125,-0.77886962890625
1715093758669409500,4.858409423828125,1.155426025390625,-6.42822265625,-0.9775848388671875
1715093758679389000,4.868388916015625,0.688568115234375,-6.222320556640625,-0.9033660888671875
1715093758689368000,4.8783681640625,0.236053466796875,-6.286956787109375,-0.740570068359375
1715093758699347200,4.88834716796875,-0.1805267333984375,-6.3899078369140625,-0.7118377685546875
1715093758709296000,4.898296142578125,-0.3289794921875,-6.4713134765625,-0.5969085693359375
1715093758719275300,4.908275146484375,-0.0943450927734375,-6.519195556640625,-0.393402099609375
1715093758729254700,4.918254638671875,0.56884765625,-6.464141845703125,-0.19708251953125
1715093758739233800,4.92823388671875,1.354156494140625,-6.4569549560546875,-0.2952423095703125
1715093758749182500,4.938182373046875,2.216064453125,-6.4473724365234375,-0.340728759765625
1715093758759161900,4.948161865234375,2.8265838623046875,-6.41864013671875,-0.0845489501953125
1715093758769141000,4.95814111328125,3.2288055419921875,-6.4354095458984375,0.37274169921875
1715093758779089700,4.968089599609375,3.331756591796875,-6.6077880859375,1.1197357177734375
1715093758789069000,4.978069091796875,3.003753662109375,-6.7945404052734375,2.33837890625
1715093758799048200,4.988048095703125,2.5560455322265625,-6.4713134765625,4.30401611328125
1715093758808996900,4.997996826171875,2.13226318359375,-6.31329345703125,6.3247222900390625
1715093758818976300,5.007976318359375,1.861724853515625,-6.9597320556640625,7.7779998779296875
1715093758828955400,5.017955322265625,1.598358154296875,-8.300491333007812,8.369369506835938
1715093758838904300,5.027904296875,1.08599853515625,-10.29486083984375,9.494644165039062
1715093758848883500,5.037883544921875,0.7077178955078125,-12.298797607421875,9.458740234375
1715093758858862600,5.047862548828125,0.1642303466796875,-13.9508056640625,7.1076202392578125
1715093758868811500,5.0578115234375,-0.3912200927734375,-15.2508544921875,3.284088134765625
1715093758878790700,5.067790771484375,-0.5061492919921875,-16.131927490234375,-0.2808837890625
1715093758888769800,5.077769775390625,-0.3313751220703125,-16.373733520507812,-2.7612762451171875
1715093758898718700,5.08771875,2.0029754638671875,-14.800750732421875,-2.9743499755859375
1715093758908697900,5.09769775390625,4.0260772705078125,-10.847915649414062,0.4996337890625
1715093758918677200,5.10767724609375,2.0029754638671875,-8.492019653320312,4.3878173828125
1715093758928626000,5.1176259765625,-0.5851593017578125,-13.527023315429688,4.3279571533203125
1715093758938605000,5.12760498046875,-0.017730712890625,-19.510147094726562,3.3846435546875
1715093758948584400,5.13758447265625,-2.1796875,-20.937088012695312,0.58343505859375
1715093758958533000,5.147533203125,-4.444610595703125,-20.19488525390625,-2.7325439453125
1715093758968512300,5.15751220703125,-2.1772918701171875,-16.59161376953125,-3.699798583984375
1715093758978491600,5.16749169921875,-0.75274658203125,-8.046707153320312,-4.6383209228515625
1715093758988470800,5.177470703125,-0.4223480224609375,-4.278228759765625,-1.892181396484375
1715093758998450200,5.1874501953125,-1.0352630615234375,-5.32928466796875,1.835601806640625
1715093759008398800,5.19739892578125,-0.6857147216796875,-8.247817993164062,3.887420654296875
1715093759018378000,5.2073779296875,-0.9347076416015625,-10.675537109375,5.28564453125
1715093759028357400,5.217357421875,-2.1365966796875,-11.846298217773438,5.323944091796875
1715093759038336500,5.22733642578125,-2.478973388671875,-11.973190307617188,3.875457763671875
1715093759048285200,5.23728515625,-2.0288543701171875,-12.782440185546875,1.7709503173828125
1715093759058264600,5.2472646484375,-0.5109405517578125,-13.886154174804688,-1.55938720703125
1715093759068243700,5.25724365234375,1.2631683349609375,-13.505477905273438,-3.941619873046875
1715093759078192600,5.267192626953125,1.9239654541015625,-12.380203247070312,-6.6710052490234375
1715093759088171800,5.277171875,1.0572662353515625,-10.869461059570312,-9.1346435546875
1715093759098151000,5.28715087890625,0.1857757568359375,-8.587799072265625,-8.433135986328125
1715093759108099800,5.297099853515625,-0.060821533203125,-6.2989349365234375,-5.1123809814453125
1715093759118079000,5.307078857421875,0.0014190673828125,-4.8767852783203125,-3.170684814453125
1715093759128058400,5.317058349609375,0.0588836669921875,-4.2183685302734375,-2.14117431640625
1715093759138007000,5.327007080078125,0.0540924072265625,-4.194427490234375,-1.746124267578125
1715093759147986200,5.336986083984375,0.1115570068359375,-4.9414215087890625,-1.545013427734375
1715093759157965600,5.346965576171875,-0.1278533935546875,-6.3683624267578125,-1.777252197265625
1715093759167914200,5.356914306640625,-0.2595367431640625,-7.92938232421875,-2.0885009765625
1715093759177893400,5.366893310546875,-0.1302490234375,-9.389846801757812,-2.232147216796875
1715093759187872800,5.376872802734375,-0.309814453125,-10.44329833984375,-2.131591796875
1715093759197821400,5.386821533203125,-0.8485107421875,-10.661163330078125,-1.8419036865234375
1715093759207800600,5.396800537109375,-1.3848114013671875,-10.361892700195312,-1.42291259765625
1715093759217780000,5.406780029296875,-1.550018310546875,-9.528717041015625,-0.6112823486328125
1715093759227728600,5.416728759765625,-1.8899993896484375,-8.666793823242188,0.8348236083984375
1715093759237708000,5.4267080078125,-2.1701202392578125,-7.903045654296875,2.0845947265625
1715093759247687200,5.436687255859375,-1.894775390625,-7.39068603515625,3.3223876953125
1715093759257666300,5.446666259765625,-1.7319793701171875,-7.4625091552734375,3.5833587646484375
1715093759267615200,5.456615234375,-1.3297576904296875,-7.66363525390625,3.296051025390625
1715093759277594400,5.466594482421875,-0.582763671875,-7.9150238037109375,3.04705810546875
1715093759287573500,5.476573486328125,-0.07757568359375,-8.211898803710938,2.92974853515625
1715093759297553000,5.486552978515625,0.3318328857421875,-8.614120483398438,2.52752685546875
1715093759307532000,5.496531982421875,-0.3744659423828125,-9.2078857421875,2.1133270263671875
1715093759317481000,5.50648095703125,-0.75274658203125,-9.686737060546875,1.763763427734375
1715093759327460000,5.516460205078125,-1.50213623046875,-10.055435180664062,1.6584320068359375
1715093759337439200,5.526439208984375,-1.8157806396484375,-10.0745849609375,2.154022216796875
1715093759347388200,5.53638818359375,-2.048004150390625,-9.89263916015625,2.7046966552734375
1715093759357367300,5.5463671875,-1.8636627197265625,-9.559844970703125,3.0063629150390625
1715093759367346700,5.5563466796875,-1.3153839111328125,-8.987625122070312,3.315216064453125
1715093759377295400,5.56629541015625,-0.4606475830078125,-8.401046752929688,3.32000732421875
1715093759387274500,5.5762744140625,0.6909637451171875,-7.955718994140625,3.1117095947265625
1715093759397254000,5.58625390625,1.4116058349609375,-7.12493896484375,2.26416015625
1715093759407202600,5.59620263671875,2.465057373046875,-6.380340576171875,1.7877044677734375
1715093759417181700,5.606181640625,2.929534912109375,-6.069091796875,1.5339202880859375
1715093759427161000,5.6161611328125,2.560821533203125,-6.2247161865234375,1.1532440185546875
1715093759437109800,5.62610986328125,1.8976287841796875,-6.84002685546875,1.5602569580078125
1715093759447089000,5.6360888671875,0.8992462158203125,-7.7522125244140625,2.63525390625
1715093759457068300,5.646068359375,0.415618896484375,-9.061843872070312,3.0638275146484375
1715093759467047400,5.65604736328125,0.9303741455078125,-10.416961669921875,2.4365386962890625
1715093759476996400,5.665996337890625,1.533721923828125,-11.080154418945312,0.82763671875
1715093759486975500,5.6759755859375,2.2447967529296875,-11.834335327148438,-0.2114410400390625
1715093759496954600,5.68595458984375,2.527313232421875,-12.224578857421875,0.727081298828125
1715093759506903600,5.695903564453125,1.56243896484375,-11.9755859375,1.79010009765625
1715093759516882700,5.705882568359375,-0.39361572265625,-11.757720947265625,1.6751861572265625
1715093759526862000,5.715862060546875,-2.69683837890625,-10.967620849609375,1.9553070068359375
1715093759536810800,5.725810791015625,-4.181243896484375,-9.9884033203125,1.4333648681640625
1715093759546790000,5.735789794921875,-3.8675994873046875,-8.865524291992188,0.2123260498046875
1715093759556769300,5.745769287109375,-3.0583648681640625,-8.348373413085938,-2.337493896484375
1715093759566748400,5.75574853515625,-2.7638702392578125,-8.798477172851562,-5.1961822509765625
1715093759576727600,5.7657275390625,-3.1230010986328125,-10.105712890625,-7.6071319580078125
1715093759586676500,5.775676513671875,-3.020050048828125,-12.1240234375,-10.528060913085938
1715093759596655600,5.785655517578125,-2.395172119140625,-14.712158203125,-13.207168579101562
1715093759606635000,5.795635009765625,-1.894775390625,-16.914825439453125,-14.071487426757812
1715093759616614100,5.8056142578125,-2.352081298828125,-18.552459716796875,-12.742706298828125
1715093759626562800,5.815562744140625,-3.0751190185546875,-18.9906005859375,-7.6861419677734375
1715093759636542200,5.825542236328125,-3.0679473876953125,-19.151016235351562,-1.564178466796875
1715093759646521300,5.835521240234375,-4.973724365234375,-18.923553466796875,2.32879638671875
1715093759656470000,5.845469970703125,-8.114913940429688,-17.843780517578125,4.44049072265625
1715093759666449400,5.855449462890625,-11.576934814453125,-14.906097412109375,7.5601348876953125
1715093759676428500,5.865428466796875,-9.474822998046875,-12.526260375976562,12.76751708984375
1715093759686377200,5.875377197265625,-7.6959381103515625,-11.717010498046875,10.095596313476562
1715093759696356600,5.885356689453125,-3.8723907470703125,-8.829605102539062,9.4276123046875
1715093759706335700,5.895335693359375,-0.56121826171875,-7.364349365234375,8.999053955078125
1715093759716284700,5.90528466796875,0.3485870361328125,-7.4816741943359375,7.5601348876953125
1715093759726263800,5.915263916015625,0.9471282958984375,-8.523147583007812,5.51788330078125
1715093759736243000,5.925242919921875,1.86651611328125,-9.538284301757812,2.8962249755859375
1715093759746192000,5.93519189453125,2.2591552734375,-9.583786010742188,1.16522216796875
1715093759756171000,5.9451708984375,2.9008026123046875,-8.863128662109375,0.245849609375
1715093759766150400,5.955150390625,3.1857147216796875,-7.627716064453125,-0.529876708984375
1715093759776099000,5.96509912109375,2.4291534423828125,-6.638916015625,-1.384613037109375
1715093759786078200,5.975078125,1.5121612548828125,-6.274993896484375,-2.0549774169921875
1715093759796057600,5.9850576171875,0.963897705078125,-5.8703765869140625,-2.4811553955078125
1715093759806006300,5.99500634765625,1.133880615234375,-5.1999969482421875,-2.7086029052734375
1715093759815985400,6.0049853515625,1.3469696044921875,-4.62060546875,-2.552978515625
1715093759825964800,6.01496484375,0.6861724853515625,-4.4075164794921875,-2.6702880859375
1715093759835944000,6.02494384765625,0.2073211669921875,-5.1999969482421875,-2.8666229248046875
1715093759845923300,6.03492333984375,0.022979736328125,-5.11859130859375,-2.09808349609375
1715093759855872000,6.0448720703125,0.6143341064453125,-5.2526702880859375,-1.7365570068359375
1715093759865851100,6.05485107421875,1.2727508544921875,-5.47772216796875,-1.291229248046875
1715093759875830500,6.06483056640625,1.799468994140625,-5.9398040771484375,-1.207427978515625
1715093759885809700,6.0748095703125,2.3621063232421875,-5.9637451171875,-1.30560302734375
1715093759895758300,6.08475830078125,2.8577117919921875,-6.0020599365234375,-0.879425048828125
1715093759905737700,6.09473779296875,3.1162872314453125,-6.042755126953125,-0.3048248291015625
1715093759915716900,6.104716796875,3.2168426513671875,-6.349212646484375,0.250640869140625
1715093759925665800,6.114665771484375,3.1545867919921875,-7.0291595458984375,1.19873046875
1715093759935645000,6.12464501953125,2.4770355224609375,-7.924591064453125,2.429351806640625
1715093759945624000,6.1346240234375,2.0508575439453125,-8.116134643554688,5.0246734619140625
1715093759955573000,6.144572998046875,1.5959625244140625,-7.76898193359375,8.170654296875
1715093759965552000,6.15455224609375,0.6622314453125,-9.128875732421875,8.982284545898438
1715093759975531300,6.16453125,-0.3720703125,-11.094528198242188,10.035736083984375
1715093759985480200,6.174480224609375,-1.181304931640625,-12.770462036132812,10.117141723632812
1715093759995459300,6.184459228515625,-1.073577880859375,-13.589279174804688,7.9982757568359375
1715093760005438700,6.194438720703125,-0.7766876220703125,-13.716171264648438,4.7924346923828125
1715093760015387400,6.204387451171875,0.616729736328125,-14.429641723632812,0.8515777587890625
1715093760025366500,6.214366455078125,3.6717376708984375,-15.77996826171875,-1.5186767578125
1715093760035346000,6.224345947265625,8.57745361328125,-16.280364990234375,-1.5043182373046875
1715093760045294600,6.234294677734375,6.96136474609375,-13.00030517578125,0.1548614501953125
1715093760055273700,6.244273681640625,2.10113525390625,-10.63482666015625,1.6512451171875
1715093760065253000,6.254253173828125,0.7986907958984375,-13.017059326171875,4.8498992919921875
1715093760075201800,6.264201904296875,1.7396240234375,-16.076858520507812,7.11480712890625
1715093760085181000,6.274180908203125,-1.9450531005859375,-19.98419189453125,4.7972259521484375
1715093760095160300,6.284160400390625,-7.4229888916015625,-25.804489135742188,0.4373779296875
1715093760105109000,6.29410888671875,-8.016754150390625,-28.169967651367188,-1.058990478515625
1715093760115088400,6.30408837890625,-5.967315673828125,-18.538101196289062,-5.464324951171875
1715093760125067500,6.314067626953125,-3.2235565185546875,-10.09375,-4.4970703125
1715093760135046700,6.324046630859375,-1.202850341796875,-7.776153564453125,0.53314208984375
1715093760145026000,6.334026123046875,1.4307708740234375,-6.4090728759765625,4.1795196533203125
1715093760154974700,6.343974609375,1.509765625,-4.7834014892578125,5.048614501953125
1715093760164954000,6.3539541015625,0.2480316162109375,-4.2231597900390625,3.791656494140625
1715093760174933200,6.363933349609375,-1.1046905517578125,-2.429901123046875,1.531524658203125
1715093760184912400,6.373912353515625,-0.5492401123046875,-2.523284912109375,-0.98956298828125
1715093760194861300,6.383861328125,1.0716400146484375,-4.6613006591796875,-1.904144287109375
1715093760204840400,6.39384033203125,2.2711334228515625,-7.4625091552734375,-3.869781494140625
1715093760214819800,6.40381982421875,2.072418212890625,-10.598922729492188,-6.2232818603515625
1715093760224768500,6.4137685546875,0.44195556640625,-13.737716674804688,-7.7962799072265625
1715093760234747600,6.42374755859375,-1.8061981201171875,-15.521392822265625,-9.163360595703125
1715093760244727000,6.43372705078125,-3.98492431640625,-13.747299194335938,-7.724456787109375
1715093760254675700,6.44367578125,-2.806976318359375,-9.837570190429688,-5.0812530517578125
1715093760264654800,6.45365478515625,0.276763916015625,-6.8759307861328125,-3.8386688232421875
1715093760274634200,6.46363427734375,2.31182861328125,-4.828887939453125,-3.5345916748046875
1715093760284583000,6.4735830078125,3.796234130859375,-3.2559051513671875,-2.9528045654296875
1715093760294562000,6.48356201171875,4.0883331298828125,-3.0021209716796875,-2.3853759765625
1715093760304541400,6.49354150390625,2.929534912109375,-3.919097900390625,-1.9065399169921875
1715093760314490000,6.503489990234375,1.3780975341796875,-5.937408447265625,-1.1403961181640625
1715093760324469500,6.513469482421875,0.468292236328125,-7.9724884033203125,0.3224639892578125
1715093760334448600,6.52344873046875,-0.051239013671875,-10.184722900390625,1.952911376953125
1715093760344397300,6.533397216796875,-0.822174072265625,-12.097686767578125,3.7629241943359375
1715093760354376700,6.543376708984375,-1.1238555908203125,-13.416900634765625,4.47161865234375
1715093760364355800,6.55335595703125,-1.5212860107421875,-13.354644775390625,5.0988922119140625
1715093760374304500,6.563304443359375,-1.61944580078125,-12.10247802734375,5.0725555419921875
1715093760384284000,6.573283935546875,-1.497344970703125,-10.56060791015625,4.383026123046875
1715093760394263000,6.583262939453125,-1.47100830078125,-8.990020751953125,3.7365875244140625
1715093760404242400,6.593242431640625,-1.3848114013671875,-8.293304443359375,3.5091400146484375
1715093760414191000,6.603191162109375,-1.4781951904296875,-8.702713012695312,3.432525634765625
1715093760424170200,6.613170166015625,-1.423126220703125,-8.42498779296875,3.4349212646484375
1715093760434149600,6.623149658203125,-1.43988037109375,-8.02276611328125,3.410980224609375
1715093760444128800,6.633128662109375,-1.729583740234375,-7.8216400146484375,3.0590362548828125
1715093760454108200,6.643108154296875,-2.2706756591796875,-7.8096771240234375,2.7429962158203125
1715093760464056800,6.653056884765625,-2.5507965087890625,-7.9796600341796875,2.7525787353515625
1715093760474036000,6.663035888671875,-2.246734619140625,-8.187957763671875,2.587371826171875
1715093760484015400,6.673015380859375,-1.878021240234375,-8.46807861328125,2.5921630859375
1715093760493994500,6.682994384765625,-1.7894439697265625,-8.82720947265625,2.2665557861328125
1715093760503943200,6.692943115234375,-1.2315826416015625,-9.083389282226562,2.3311920166015625
1715093760513922600,6.702922607421875,-0.429534912109375,-9.373092651367188,2.201904296875
1715093760523901700,6.712901611328125,1.1626129150390625,-9.1217041015625,1.943328857421875
1715093760533850400,6.722850341796875,2.4459075927734375,-8.56146240234375,1.847564697265625
1715093760543829800,6.732829833984375,3.70526123046875,-7.39068603515625,2.3192291259765625
1715093760553809000,6.742808837890625,4.7443389892578125,-6.231903076171875,2.7262420654296875
1715093760563757800,6.7527578125,4.7060394287109375,-5.5974273681640625,2.6041412353515625
1715093760573737000,6.762737060546875,2.474639892578125,-5.4561767578125,2.924957275390625
1715093760583716000,6.772716064453125,0.18817138671875,-6.243865966796875,2.3048553466796875
1715093760593665000,6.7826650390625,-0.1254730224609375,-8.463287353515625,1.0694580078125
1715093760603644200,6.79264404296875,0.056488037109375,-10.874252319335938,-0.67352294921875
1715093760613623600,6.80262353515625,2.99896240234375,-12.753707885742188,-2.32073974609375
1715093760623572200,6.812572265625,5.0196685791015625,-13.4552001953125,-2.7445068359375
1715093760633551400,6.82255126953125,3.604705810546875,-12.669906616210938,-1.1595458984375
1715093760643530800,6.83253076171875,0.889678955078125,-11.439285278320312,0.2697906494140625
1715093760653479400,6.8424794921875,-0.6881103515625,-9.385055541992188,1.763763427734375
1715093760663458600,6.85245849609375,-3.0966644287109375,-7.6923675537109375,2.3838653564453125
1715093760673438000,6.86243798828125,-4.116607666015625,-6.9741058349609375,1.38787841796875
1715093760683417000,6.8724169921875,-3.7598724365234375,-6.538360595703125,-0.857879638671875
1715093760693365800,6.88236572265625,-2.7686614990234375,-6.940582275390625,-3.594451904296875
1715093760703345200,6.89234521484375,-3.34088134765625,-8.369918823242188,-6.371734619140625
1715093760713324300,6.90232421875,-4.86358642578125,-11.072967529296875,-8.964645385742188
1715093760723303700,6.9123037109375,-5.4836883544921875,-14.716949462890625,-10.767486572265625
1715093760733282800,6.92228271484375,-4.4853057861328125,-19.03369140625,-12.151336669921875
1715093760743231500,6.9322314453125,-4.43023681640625,-22.2347412109375,-11.981338500976562
1715093760753211000,6.9422109375,-3.7359161376953125,-25.222702026367188,-8.433135986328125
1715093760763190000,6.95218994140625,-4.5212249755859375,-26.57781982421875,-2.4093170166015625
1715093760773138700,6.962138671875,-7.592987060546875,-26.273757934570312,1.9600982666015625
1715093760783118000,6.9721181640625,-9.663970947265625,-21.73675537109375,7.955169677734375
1715093760793097200,6.98209716796875,-10.80120849609375,-14.388946533203125,13.66534423828125
1715093760803046100,6.992046142578125,-12.218582153320312,-11.815170288085938,11.479446411132812
1715093760813025300,7.002025390625,-8.136459350585938,-8.166412353515625,9.422821044921875
1715093760823004400,7.01200439453125,-1.614654541015625,-4.9725494384765625,9.173828125
1715093760832953300,7.021953369140625,0.109161376953125,-4.5822906494140625,7.2440948486328125
1715093760842932500,7.031932373046875,0.76995849609375,-6.37554931640625,4.751739501953125
1715093760852911900,7.041911865234375,0.29351806640625,-8.4776611328125,3.19549560546875
1715093760862860500,7.051860595703125,0.8968505859375,-9.84234619140625,1.742218017578125
1715093760872839700,7.061839599609375,1.935943603515625,-10.227813720703125,0.609771728515625
1715093760882819000,7.071819091796875,3.5185089111328125,-9.160003662109375,0.92340087890625
1715093760892767700,7.081767822265625,3.70526123046875,-7.53912353515625,0.9880523681640625
1715093760902747000,7.091746826171875,2.982208251953125,-5.86798095703125,0.609771728515625
1715093760912726300,7.101726318359375,1.9766387939453125,-4.721160888671875,0.2602081298828125
1715093760922675000,7.111675048828125,1.081207275390625,-4.3931427001953125,0.23626708984375
1715093760932654000,7.121654052734375,0.688568115234375,-4.5607452392578125,0.097412109375
1715093760942633500,7.131633544921875,0.3868865966796875,-4.996490478515625,-0.359893798828125
1715093760952582100,7.14158203125,0.1642303466796875,-5.240692138671875,-0.932098388671875
1715093760962561500,7.1515615234375,0.1690216064453125,-5.3819580078125,-1.4636077880859375
1715093760972540700,7.161540771484375,0.41082763671875,-5.4370269775390625,-1.861053466796875
1715093760982519800,7.171519775390625,0.6622314453125,-5.5016632080078125,-2.11004638671875
1715093760992499200,7.181499267578125,1.138671875,-5.693206787109375,-2.404541015625
1715093761002448000,7.19144775390625,1.9120025634765625,-5.820098876953125,-2.557769775390625
1715093761012427300,7.20142724609375,2.6110992431640625,-5.640533447265625,-2.45721435546875
1715093761022406400,7.211406494140625,2.9151763916015625,-5.350830078125,-2.0885009765625
1715093761032385500,7.221385498046875,2.9750213623046875,-5.1736602783203125,-1.2936248779296875
1715093761042334500,7.23133447265625,2.7427825927734375,-5.3795623779296875,-0.2258148193359375
1715093761052313600,7.241313720703125,2.4674530029296875,-5.5758819580078125,1.5530853271484375
1715093761062293000,7.25129296875,2.4770355224609375,-4.71636962890625,4.94805908203125
1715093761072241700,7.26124169921875,1.979034423828125,-5.228729248046875,6.5665435791015625
1715093761082220800,7.271220703125,0.626312255859375,-7.9102325439453125,6.928070068359375
1715093761092200200,7.2812001953125,-0.8868255615234375,-11.389007568359375,8.177841186523438
1715093761102148900,7.29114892578125,-1.3513031005859375,-13.993896484375,8.541748046875
1715093761112128000,7.3011279296875,1.5792083740234375,-15.887710571289062,5.56097412109375
1715093761122107400,7.311107421875,3.0109405517578125,-18.200515747070312,0.109375
1715093761132056000,7.32105615234375,0.71728515625,-19.7088623046875,-3.1108245849609375
1715093761142035200,7.33103515625,-0.831756591796875,-17.75518798828125,-1.9113311767578125
1715093761152014600,7.3410146484375,0.6717987060546875,-13.692230224609375,3.4660491943359375
1715093761161963300,7.35096337890625,3.5448455810546875,-11.17352294921875,7.2273406982421875
1715093761171942400,7.3609423828125,2.98699951171875,-15.095230102539062,8.141921997070312
1715093761181921800,7.370921875,-1.222015380859375,-21.425506591796875,7.8833465576171875
1715093761191870500,7.380870361328125,-0.472625732421875,-24.236297607421875,3.4612579345703125
1715093761201849900,7.390849853515625,1.6031494140625,-21.581130981445312,-0.1300506591796875
1715093761211829000,7.4008291015625,-0.75274658203125,-12.784820556640625,-3.4627685546875
1715093761221777700,7.410777587890625,-2.6944427490234375,-7.680389404296875,-5.4715118408203125
1715093761231757000,7.420757080078125,-4.138153076171875,-7.448150634765625,-1.545013427734375
1715093761241736200,7.430736083984375,-4.1884307861328125,-9.011566162109375,1.05987548828125
1715093761251684900,7.440684814453125,-1.602691650390625,-11.839111328125,2.7262420654296875
1715093761261664300,7.450664306640625,-1.2579193115234375,-14.132766723632812,3.2481689453125
1715093761271643400,7.460643310546875,-1.7966156005859375,-13.984329223632812,2.7645416259765625
1715093761281622800,7.470622802734375,-1.68170166015625,-12.95721435546875,0.9832611083984375
1715093761291602000,7.480601806640625,-0.4534759521484375,-11.448867797851562,-0.60888671875
1715093761301550600,7.490550537109375,0.9615020751953125,-10.321197509765625,-2.924072265625
1715093761311530000,7.500530029296875,1.8880615234375,-9.507171630859375,-4.999847412109375
1715093761321509000,7.510509033203125,1.73004150390625,-8.949310302734375,-6.6231231689453125
1715093761331488500,7.520488525390625,1.0141754150390625,-8.116134643554688,-7.4946136474609375
1715093761341467600,7.530467529296875,0.8346099853515625,-6.77777099609375,-7.0085906982421875
1715093761351416300,7.540416259765625,0.927978515625,-5.6956024169921875,-5.3709564208984375
1715093761361395700,7.550395751953125,0.8609466552734375,-5.2095794677734375,-3.604034423828125
1715093761371374800,7.560374755859375,0.6550445556640625,-5.1569061279296875,-2.3662261962890625
1715093761381323500,7.570323486328125,0.9974212646484375,-5.535186767578125,-0.805206298828125
1715093761391303000,7.580302978515625,0.8609466552734375,-6.84002685546875,-2.0142822265625
1715093761401282000,7.590281982421875,1.260772705078125,-7.9198150634765625,-1.693450927734375
1715093761411231000,7.60023095703125,1.3517608642578125,-9.234222412109375,-0.984771728515625
1715093761421210000,7.610210205078125,0.5281524658203125,-10.182327270507812,-0.6519775390625
1715093761431189200,7.620189208984375,-0.4846038818359375,-10.534271240234375,-0.424530029296875
1715093761441138200,7.63013818359375,-1.212432861328125,-10.704269409179688,0.109375
1715093761451117300,7.640117431640625,-1.42791748046875,-10.08416748046875,0.336822509765625
1715093761461096400,7.650096435546875,-1.5164947509765625,-9.29168701171875,0.8946685791015625
1715093761471045400,7.66004541015625,-1.6218414306640625,-8.793685913085938,1.6751861572265625
1715093761481024500,7.6700244140625,-1.899566650390625,-8.223876953125,2.1181182861328125
1715093761491004000,7.68000390625,-1.645782470703125,-7.9844512939453125,2.407806396484375
1715093761500952600,7.68995263671875,-1.3943939208984375,-7.5678558349609375,2.6783599853515625
1715093761510931700,7.699931640625,-1.33453369140625,-7.6995391845703125,3.0997314453125
1715093761520911000,7.7099111328125,-1.4949493408203125,-7.37872314453125,2.7525787353515625
1715093761530859800,7.71985986328125,-0.8868255615234375,-7.5080108642578125,3.126068115234375
1715093761540839000,7.7298388671875,-0.482208251953125,-8.0443115234375,3.3080291748046875
1715093761550818300,7.739818359375,0.1690216064453125,-7.8264312744140625,3.33197021484375
1715093761560797400,7.74979736328125,0.288726806640625,-7.6612396240234375,4.0478363037109375
1715093761570776800,7.75977685546875,-0.3385467529296875,-7.7522125244140625,4.7397613525390625
1715093761580725500,7.7697255859375,-1.1525726318359375,-7.8886871337890625,5.0869140625
1715093761590704600,7.77970458984375,-1.2675018310546875,-8.020370483398438,4.7014617919921875
1715093761600684000,7.78968408203125,-1.1789093017578125,-8.0562744140625,3.506744384765625
1715093761610663200,7.7996630859375,-0.7335968017578125,-7.8527679443359375,2.1779632568359375
1715093761620611800,7.80961181640625,1.7444000244140625,-8.0562744140625,1.962493896484375
1715093761630591200,7.81959130859375,4.593505859375,-8.144866943359375,0.34161376953125
1715093761640570400,7.8295703125,4.25592041015625,-8.037124633789062,1.6608123779296875
1715093761650519300,7.839519287109375,3.477813720703125,-8.429779052734375,3.0638275146484375
1715093761660498400,7.84949853515625,2.9103851318359375,-9.420974731445312,4.002349853515625
1715093761670477600,7.8594775390625,2.486602783203125,-10.859893798828125,4.5697784423828125
1715093761680426500,7.869426513671875,2.3142242431640625,-12.794403076171875,4.3231658935546875
1715093761690405600,7.879405517578125,1.3948516845703125,-15.497451782226562,2.5203399658203125
1715093761700385000,7.889385009765625,0.1666259765625,-17.714492797851562,0.7414398193359375
1715093761710333700,7.899333740234375,-0.0680084228515625,-18.514144897460938,-0.59930419921875
1715093761720312800,7.909312744140625,0.5233612060546875,-16.646682739257812,0.4756927490234375
1715093761730292200,7.919292236328125,1.2440185546875,-13.589279174804688,1.593780517578125
1715093761740241000,7.929240966796875,1.3206329345703125,-9.871078491210938,2.3814697265625
1715093761750220000,7.939219970703125,0.03973388671875,-7.9102325439453125,3.674346923828125
1715093761760199400,7.949199462890625,0.2791595458984375,-6.095428466796875,5.091705322265625
1715093761770148000,7.959148193359375,-0.43670654296875,-5.3436431884765625,4.51470947265625
1715093761780127200,7.969127197265625,-1.9235076904296875,-4.74749755859375,4.593719482421875
1715093761790106600,7.979106689453125,-2.6202239990234375,-4.8097381591796875,2.8435516357421875
1715093761800055300,7.98905517578125,-2.3185577392578125,-5.2430877685546875,0.6145477294921875
1715093761810034700,7.99903466796875,-1.528472900390625,-5.853607177734375,-1.6264190673828125
1715093761820013800,8.009013916015626,-1.4638214111328125,-6.79693603515625,-4.0996246337890625
1715093761829993000,8.018992919921875,-2.0503997802734375,-8.537506103515625,-6.3022918701171875
1715093761839942000,8.02894189453125,-2.5986785888671875,-10.943679809570312,-7.5065765380859375
1715093761849921000,8.038921142578126,-2.881195068359375,-13.522247314453125,-8.18414306640625
1715093761859900200,8.048900146484375,-3.3935546875,-16.713714599609375,-9.321380615234375
1715093761869879600,8.058879638671876,-4.6505126953125,-20.000946044921875,-9.223220825195312
1715093761879858700,8.068858642578125,-4.4206695556640625,-21.837310791015625,-6.2544097900390625
1715093761889807600,8.0788076171875,-4.370391845703125,-21.21002197265625,-2.8737945556640625
1715093761899786800,8.088786865234376,-5.871551513671875,-19.505355834960938,-0.541839599609375
1715093761909766000,8.098765869140625,-7.12371826171875,-16.491058349609375,1.6919403076171875
1715093761919714800,8.10871484375,-7.9233856201171875,-11.286056518554688,5.8075714111328125
1715093761929694000,8.11869384765625,-6.2713775634765625,-9.045089721679688,5.9536285400390625
1715093761939673300,8.12867333984375,-3.0966644287109375,-6.7322845458984375,5.9871368408203125
1715093761949622000,8.1386220703125,-0.8341522216796875,-5.4561767578125,7.43084716796875
1715093761959601200,8.14860107421875,-0.309814453125,-5.8560028076171875,6.20501708984375
1715093761969580500,8.15858056640625,-1.095123291015625,-7.828826904296875,4.7349700927734375
1715093761979529200,8.168529296875,-1.58831787109375,-9.404220581054688,4.0382537841796875
1715093761989508400,8.17850830078125,-0.5635986328125,-10.043472290039062,3.341552734375
1715093761999487700,8.18848779296875,1.366119384765625,-10.1368408203125,2.06304931640625
1715093762009436400,8.1984365234375,2.8481292724609375,-9.753768920898438,1.3423919677734375
1715093762019415600,8.20841552734375,3.1210784912109375,-9.18634033203125,0.542724609375
1715093762029395000,8.21839501953125,2.5009765625,-7.950927734375,-0.086944580078125
1715093762039343600,8.228343505859375,1.3780975341796875,-6.4952545166015625,-0.498748779296875
1715093762049323000,8.238322998046876,0.3126678466796875,-5.9015045166015625,-0.68310546875
1715093762059302100,8.24830224609375,-0.4055938720703125,-5.8440399169921875,-0.953643798828125
1715093762069250800,8.258250732421875,-0.384033203125,-5.5591278076171875,-1.2888336181640625
1715093762079230200,8.268230224609376,-0.261932373046875,-5.3316802978515625,-1.607269287109375
1715093762089209300,8.278209228515625,0.0948028564453125,-5.070709228515625,-1.693450927734375
1715093762099158000,8.288157958984375,0.7292633056640625,-5.26702880859375,-1.851470947265625
1715093762109137400,8.298137451171876,1.545684814453125,-5.202392578125,-1.4348907470703125
1715093762119116500,8.308116455078125,2.4315338134765625,-5.2454833984375,-1.2361602783203125
1715093762129096000,8.318095947265626,2.8313751220703125,-5.578277587890625,-0.74774169921875
1715093762139075000,8.328074951171875,3.082763671875,-5.5854644775390625,0.245849609375
1715093762149054500,8.338054443359376,3.245574951171875,-5.5184173583984375,1.5435028076171875
1715093762159003100,8.348003173828126,3.42034912109375,-5.185638427734375,3.7892608642578125
1715093762168982300,8.357982177734375,3.0707855224609375,-4.69482421875,6.3247222900390625
1715093762178961700,8.367961669921876,2.263946533203125,-5.5279998779296875,7.6247711181640625
1715093762188910300,8.377910400390626,1.2799224853515625,-7.654052734375,8.1275634765625
1715093762198889500,8.387889404296875,0.5329437255859375,-9.993194580078125,8.661468505859375
1715093762208868900,8.397868896484376,0.5233612060546875,-11.791229248046875,7.5337982177734375
1715093762218817500,8.407817626953126,1.9814300537109375,-12.442459106445312,4.96002197265625
1715093762228796700,8.417796630859375,2.6805419921875,-13.83587646484375,1.0359344482421875
1715093762238776000,8.427776123046876,2.010162353515625,-16.189376831054688,-2.5505828857421875
1715093762248755200,8.437755126953125,3.7675018310546875,-16.66583251953125,-3.3813629150390625
1715093762258704000,8.447703857421875,6.5064697265625,-14.800750732421875,-0.0462493896484375
1715093762268683300,8.457683349609376,1.112335205078125,-11.465621948242188,4.9408721923828125
1715093762278662400,8.467662353515625,-5.2921600341796875,-15.42083740234375,7.404510498046875
1715093762288611300,8.477611328125,-1.76788330078125,-23.6090087890625,9.022994995117188
1715093762298590500,8.487590576171876,1.133880615234375,-27.777313232421875,7.6080169677734375
1715093762308569600,8.497569580078125,-4.2626495361328125,-22.34967041015625,2.2042999267578125
1715093762318518500,8.5075185546875,-0.5013580322265625,-13.376190185546875,-3.0581512451171875
1715093762328497700,8.51749755859375,-1.2722930908203125,-7.2877349853515625,-3.51544189453125
1715093762338477000,8.52747705078125,-3.8987274169921875,-5.9086761474609375,-1.2672882080078125
1715093762348425700,8.53742578125,-2.553192138671875,-7.977264404296875,1.2011260986328125
1715093762358404900,8.54740478515625,-0.2595367431640625,-11.120849609375,2.63525390625
1715093762368384300,8.55738427734375,-1.085540771484375,-13.273239135742188,2.48681640625
1715093762378333000,8.5673330078125,-3.09906005859375,-13.491119384765625,0.90185546875
1715093762388312000,8.57731201171875,-2.6202239990234375,-12.782440185546875,-0.752532958984375
1715093762398291500,8.58729150390625,-0.2427825927734375,-12.404144287109375,-2.8833770751953125
1715093762408240000,8.597240234375,1.366119384765625,-11.456039428710938,-4.291168212890625
1715093762418219300,8.60721923828125,1.8162384033203125,-10.440902709960938,-5.3757476806640625
1715093762428198700,8.61719873046875,1.48822021484375,-8.970870971679688,-5.8378143310546875
1715093762438177800,8.627177734375,1.6031494140625,-8.015579223632812,-5.89288330078125
1715093762448157200,8.6371572265625,1.1937408447265625,-6.339630126953125,-4.449188232421875
1715093762458105900,8.64710595703125,0.796295166015625,-5.367584228515625,-2.675079345703125
1715093762468085000,8.6570849609375,0.25042724609375,-5.1209869384765625,-1.4683990478515625
1715093762478064400,8.667064453125,-0.087158203125,-5.2694244384765625,-1.2289886474609375
1715093762488043500,8.67704345703125,0.2216949462890625,-5.62615966796875,-1.1499786376953125
1715093762497992400,8.686992431640626,0.6813812255859375,-6.318084716796875,-1.0877227783203125
1715093762507971600,8.6969716796875,1.3182373046875,-7.045928955078125,-1.3989715576171875
1715093762517950700,8.70695068359375,1.05487060546875,-7.5151824951171875,-0.9512481689453125
1715093762527899600,8.716899658203126,-0.0464630126953125,-8.125717163085938,-0.8076019287109375
1715093762537878800,8.726878662109375,-1.08074951171875,-8.755386352539062,-0.5178985595703125
1715093762547858200,8.736858154296876,-1.6122589111328125,-9.042694091796875,0.1907806396484375
1715093762557806800,8.746806884765626,-1.4829864501953125,-8.951705932617188,0.8036956787109375
1715093762567786000,8.756785888671875,-1.2722930908203125,-8.74102783203125,1.2178955078125
1715093762577765400,8.766765380859376,-0.915557861328125,-8.389068603515625,1.8020782470703125
1715093762587714000,8.776714111328126,-0.599517822265625,-7.9892425537109375,2.4532928466796875
1715093762597693200,8.786693115234375,-1.0472412109375,-7.7474212646484375,2.82440185546875
1715093762607672600,8.796672607421876,-0.92034912109375,-7.2661895751953125,3.5402679443359375
1715093762617621200,8.806621337890626,-0.9777984619140625,-8.305282592773438,3.3080291748046875
1715093762627600400,8.816600341796875,-1.83013916015625,-8.49920654296875,2.76214599609375
1715093762637579800,8.826579833984376,-2.6082611083984375,-8.650039672851562,3.32000732421875
1715093762647528400,8.836528564453126,-2.69683837890625,-8.946914672851562,3.801239013671875
1715093762657507600,8.846507568359375,-2.4358673095703125,-9.701095581054688,4.213043212890625
1715093762667487000,8.856487060546876,-1.5476226806640625,-10.179931640625,4.689483642578125
1715093762677435600,8.866435546875,-0.367279052734375,-10.764114379882812,5.4101409912109375
1715093762687433000,8.876432861328125,1.449920654296875,-11.072967529296875,4.6870880126953125
1715093762697412000,8.886412109375,3.1114959716796875,-10.098526000976562,3.166778564453125
1715093762707391200,8.89639111328125,4.60308837890625,-8.578216552734375,2.7310333251953125
1715093762717370600,8.90637060546875,5.608642578125,-7.1919708251953125,2.810028076171875
1715093762727319300,8.9163193359375,5.603851318359375,-7.0554962158203125,2.819610595703125
1715093762737298700,8.926298583984375,4.3588714599609375,-6.306121826171875,1.8547515869140625
1715093762747277800,8.93627783203125,3.07318115234375,-6.0714874267578125,2.2976837158203125
1715093762757257000,8.946257080078125,1.6318817138671875,-7.3499908447265625,3.547454833984375
1715093762767206000,8.956205810546875,0.932769775390625,-9.485610961914062,3.9688262939453125
1715093762777185000,8.96618505859375,-0.6593780517578125,-11.865447998046875,2.9225616455078125
1715093762787164400,8.976164306640625,-0.2978515625,-13.919677734375,1.6009674072265625
1715093762797113000,8.986113037109375,2.1442413330078125,-14.783981323242188,0.6983489990234375
1715093762807092200,8.99609228515625,3.2862701416015625,-13.35943603515625,0.652862548828125
1715093762817071600,9.006071533203125,0.6287078857421875,-11.163955688476562,1.3040771484375
1715093762827020300,9.016020263671875,-0.8916168212890625,-9.373092651367188,2.2306365966796875
1715093762836999400,9.02599951171875,-2.4191131591796875,-7.9078369140625,2.8172149658203125
1715093762846978800,9.035978759765625,-3.5228424072265625,-6.6006011962890625,2.3407745361328125
1715093762856927500,9.045927490234375,-4.2794036865234375,-5.9350128173828125,1.1101531982421875
1715093762866906600,9.05590673828125,-3.80535888671875,-6.069091796875,-1.09490966796875
1715093762876886000,9.065885986328125,-2.933868408203125,-7.2015533447265625,-3.6543121337890625
1715093762886834700,9.075834716796875,-3.3193359375,-9.411392211914062,-6.182586669921875
1715093762896814000,9.08581396484375,-4.298553466796875,-12.25091552734375,-8.83056640625
1715093762906793200,9.095793212890625,-4.497283935546875,-15.3681640625,-10.973388671875
1715093762916742000,9.105741943359375,-4.159698486328125,-18.138259887695312,-12.08428955078125
1715093762926721300,9.11572119140625,-4.3033447265625,-20.558807373046875,-12.414688110351562
1715093762936700400,9.125700439453125,-5.8380279541015625,-23.369598388671875,-10.396377563476562
1715093762946649000,9.135649169921875,-6.1325225830078125,-24.145309448242188,-4.92083740234375
1715093762956628500,9.14562841796875,-7.7438201904296875,-22.390365600585938,0.5810394287109375
1715093762966607600,9.155607666015625,-9.077392578125,-19.380859375,3.727020263671875
1715093762976587000,9.1655869140625,-9.84832763671875,-13.752090454101562,7.8570098876953125
1715093762986535700,9.17553564453125,-8.71826171875,-8.9852294921875,12.087570190429688
1715093762996514800,9.185514892578125,-6.1756134033203125,-7.172821044921875,10.588790893554688
1715093763006494200,9.195494140625,-2.14617919921875,-5.14013671875,10.567245483398438
1715093763016473300,9.205473388671875,-0.56121826171875,-4.1489410400390625,8.7213134765625
1715093763026452700,9.21545263671875,-0.6282501220703125,-5.439422607421875,5.58251953125
1715093763036401400,9.2254013671875,-0.2787017822265625,-7.5558929443359375,3.2601470947265625
1715093763046380500,9.235380615234375,0.8465728759765625,-8.535125732421875,1.62969970703125
1715093763056360000,9.24535986328125,2.4099884033203125,-8.7625732421875,0.0112152099609375
1715093763066308600,9.25530859375,4.1362152099609375,-8.767349243164062,-1.121246337890625
1715093763076287700,9.265287841796875,4.58392333984375,-8.614120483398438,-1.5881195068359375
1715093763086267100,9.27526708984375,3.9303131103515625,-7.05072021484375,-1.554595947265625
1715093763096246300,9.285246337890625,2.994171142578125,-5.4873046875,-1.6431732177734375
1715093763106195000,9.29519482421875,1.6175079345703125,-5.0898590087890625,-1.449249267578125
1715093763116174300,9.30517431640625,0.5257568359375,-4.5774993896484375,-1.260101318359375
1715093763126153500,9.315153564453125,-0.0560302734375,-4.7259368896484375,-1.142791748046875
1715093763136102400,9.325102294921875,-0.4151611328125,-4.80255126953125,-1.12603759765625
1715093763146081500,9.33508154296875,-0.39361572265625,-5.0970458984375,-1.121246337890625
1715093763156060700,9.345060791015625,0.0157928466796875,-5.6333465576171875,-0.9081573486328125
1715093763166009600,9.355009521484375,0.8872833251953125,-5.9302215576171875,-1.099700927734375
1715093763175988700,9.36498876953125,1.8856658935546875,-6.3779449462890625,-1.02069091796875
1715093763185968000,9.374968017578125,2.8050384521484375,-6.3420257568359375,-0.63043212890625
1715093763195916800,9.384916748046875,3.13543701171875,-6.698760986328125,-0.000762939453125
1715093763205896000,9.39489599609375,3.1330413818359375,-7.0219879150390625,1.02874755859375
1715093763215875300,9.404875244140625,2.7667236328125,-7.764190673828125,2.206695556640625
1715093763225824000,9.414823974609375,2.6733551025390625,-7.66363525390625,5.228179931640625
1715093763235803100,9.42480322265625,2.41717529296875,-7.290130615234375,8.2879638671875
1715093763245782500,9.434782470703125,1.6749725341796875,-8.64764404296875,8.654281616210938
1715093763255731200,9.444731201171875,0.7244720458984375,-10.388229370117188,8.757232666015625
1715093763265710300,9.45471044921875,-0.63543701171875,-13.045791625976562,8.843429565429688
1715093763275689700,9.464689697265625,-1.073577880859375,-15.042556762695312,6.81793212890625
1715093763285668900,9.4746689453125,1.0955810546875,-15.444778442382812,3.54266357421875
1715093763295648300,9.484648193359375,2.0508575439453125,-16.34979248046875,-1.037445068359375
1715093763305597000,9.494596923828125,1.069244384765625,-16.378524780273438,-2.823516845703125
1715093763315576000,9.504576171875,2.2184600830078125,-14.281204223632812,-0.740570068359375
1715093763325555500,9.514555419921875,4.30859375,-10.036285400390625,3.918548583984375
1715093763335534600,9.52453466796875,3.3604888916015625,-7.1967620849609375,6.8203277587890625
1715093763345483300,9.534483154296876,1.641448974609375,-9.981216430664062,7.9839019775390625
1715093763355462700,9.544462646484375,1.5480804443359375,-15.928421020507812,9.011016845703125
1715093763365441800,9.55444189453125,-1.561981201171875,-18.923553466796875,5.4628143310546875
1715093763375390700,9.564390625,-5.988861083984375,-20.324172973632812,-0.1420135498046875
1715093763385369900,9.574369873046875,-4.3943328857421875,-19.5723876953125,-1.944854736328125
1715093763395349000,9.584348876953126,-2.4454498291015625,-12.911712646484375,-3.6974029541015625
1715093763405298000,9.5942978515625,-2.316162109375,-6.713134765625,-5.7564239501953125
1715093763415277000,9.604277099609375,-1.2363739013671875,-5.439422607421875,-2.19384765625
1715093763425256400,9.61425634765625,0.0852203369140625,-6.787353515625,0.59539794921875
1715093763435205000,9.624205078125,-0.6282501220703125,-8.61651611328125,2.4006195068359375
1715093763445184300,9.634184326171875,-2.7040252685546875,-10.314010620117188,3.104522705078125
1715093763455163600,9.64416357421875,-3.082305908203125,-11.6595458984375,3.3391571044921875
1715093763465112300,9.6541123046875,-1.4303131103515625,-12.978759765625,2.771728515625
1715093763475091500,9.664091552734375,-0.324188232421875,-13.321121215820312,0.9665069580078125
1715093763485070800,9.67407080078125,0.6191253662109375,-12.729766845703125,-0.7118377685546875
1715093763495019500,9.68401953125,0.6933441162109375,-12.131210327148438,-2.2608795166015625
1715093763504998700,9.69399853515625,0.6550445556640625,-11.307601928710938,-3.8913421630859375
1715093763514978000,9.70397802734375,0.0062103271484375,-10.1488037109375,-5.08843994140625
1715093763524926700,9.7139267578125,-0.2739105224609375,-8.846359252929688,-5.8785247802734375
1715093763534906000,9.723906005859375,-0.5635986328125,-7.45294189453125,-4.95196533203125
1715093763544885200,9.73388525390625,-0.472625732421875,-6.1816253662109375,-3.716552734375
1715093763554864400,9.743864501953125,-0.230804443359375,-5.1999969482421875,-3.2113800048828125
1715093763564843800,9.75384375,0.276763916015625,-5.144927978515625,-3.6327667236328125
1715093763574792400,9.76379248046875,0.7484130859375,-5.6046142578125,-2.9049224853515625
1715093763584771800,9.773771728515625,0.68377685546875,-6.8472137451171875,-2.495513916015625
1715093763594751000,9.7837509765625,-0.1637725830078125,-8.336395263671875,-1.9855499267578125
1715093763604730000,9.793730224609375,-1.1262359619140625,-9.89501953125,-1.39178466796875
1715093763614679000,9.803678955078125,-1.4686126708984375,-11.156768798828125,-0.87225341796875
1715093763624658200,9.813658203125,-1.6218414306640625,-11.855880737304688,-0.719024658203125
1715093763634637300,9.82363720703125,-1.6481781005859375,-11.6787109375,-0.6855010986328125
1715093763644586200,9.833586181640625,-1.1406097412109375,-10.68511962890625,-0.4365081787109375
1715093763654565400,9.8435654296875,-0.4965667724609375,-9.258163452148438,-0.0031585693359375
1715093763664544800,9.853544677734375,-0.166168212890625,-7.82403564453125,0.9257965087890625
1715093763674493400,9.863493408203125,-0.21405029296875,-6.861572265625,1.7398223876953125
1715093763684472600,9.87347265625,-0.6138763427734375,-6.2342987060546875,2.61370849609375
1715093763694452000,9.883451904296875,-1.028076171875,-6.157684326171875,2.9752349853515625
1715093763704400600,9.893400634765625,-0.8772430419921875,-6.3468170166015625,3.1859283447265625
1715093763714379800,9.9033798828125,-0.5851593017578125,-6.7586212158203125,3.401397705078125
1715093763724359200,9.913359130859375,-0.31939697265625,-7.268585205078125,3.401397705078125
1715093763734307800,9.923307861328125,-0.087158203125,-7.754608154296875,3.70068359375
1715093763744287000,9.933286865234376,0.1283111572265625,-8.041915893554688,3.3032379150390625
1715093763754266400,9.943266357421875,0.2480316162109375,-8.24542236328125,3.267333984375
1715093763764215000,9.953215087890625,0.5664520263671875,-7.8791046142578125,3.4133758544921875
1715093763774194400,9.9631943359375,1.334991455078125,-7.364349365234375,3.4828033447265625
1715093763784173600,9.973173583984375,2.022125244140625,-6.9381866455078125,3.6456146240234375
1715093763794122200,9.983122314453125,3.21923828125,-6.6891937255859375,3.813201904296875
1715093763804101600,9.9931015625,3.9375,-7.0818328857421875,4.3878173828125
1715093763814080800,10.003080810546875,2.7906646728515625,-7.8886871337890625,4.5745697021484375
1715093763824029400,10.013029541015625,0.927978515625,-8.405838012695312,3.9472808837890625
1715093763834008800,10.0230087890625,-1.0711822509765625,-9.483230590820312,4.1771240234375
1715093763843988000,10.032988037109375,-2.924285888671875,-11.128036499023438,5.2832489013671875
1715093763853967400,10.04296728515625,-3.4701690673828125,-13.191848754882812,5.3574676513671875
1715093763863946500,10.052946533203125,-3.156524658203125,-14.7552490234375,4.667938232421875
1715093763873895200,10.062895263671875,-0.5516357421875,-15.801528930664062,3.7940521240234375
1715093763883874600,10.07287451171875,2.9462890625,-15.109603881835938,3.633636474609375
1715093763893853700,10.082853759765625,3.7244110107421875,-12.559768676757812,3.90179443359375
1715093763903833000,10.0928330078125,1.4211883544921875,-9.84234619140625,3.57379150390625
1715093763913781800,10.10278173828125,0.6239166259765625,-7.4505462646484375,3.274505615234375
1715093763923761000,10.112760986328125,0.4275970458984375,-5.7243194580078125,2.39105224609375
1715093763933740300,10.122740234375,-1.1238555908203125,-4.5703277587890625,1.0263519287109375
1715093763943689000,10.13268896484375,-2.019287109375,-4.637359619140625,-0.719024658203125
1715093763953668000,10.142668212890625,-2.1342010498046875,-5.5926513671875,-1.882598876953125
1715093763963647500,10.1526474609375,-2.354461669921875,-7.637298583984375,-3.752471923828125
1715093763973596200,10.16259619140625,-2.8668212890625,-10.2421875,-6.6925506591796875
1715093763983575600,10.172575439453125,-3.9609832763671875,-13.493515014648438,-9.340545654296875
1715093763993554700,10.1825546875,-4.9138641357421875,-16.69696044921875,-10.671707153320312
1715093764003503400,10.19250341796875,-5.2346954345703125,-19.790267944335938,-10.95184326171875
1715093764013482800,10.202482666015625,-5.3735504150390625,-23.146926879882812,-10.851272583007812
1715093764023462000,10.2124619140625,-5.5722808837890625,-25.220306396484375,-8.799453735351562
1715093764033410600,10.22241064453125,-6.3384246826171875,-23.546768188476562,-3.1634979248046875
1715093764043390000,10.232389892578125,-6.673614501953125,-18.89483642578125,2.1564178466796875
1715093764053369000,10.242369140625,-8.09576416015625,-12.162338256835938,7.0262298583984375
1715093764063317800,10.25231787109375,-8.8978271484375,-8.645248413085938,8.453170776367188
1715093764073297200,10.262297119140625,-5.5243988037109375,-7.4984283447265625,8.970321655273438
1715093764083276300,10.2722763671875,-2.3353118896484375,-6.7203216552734375,9.518585205078125
1715093764093225000,10.282224853515626,-0.407989501953125,-6.365966796875,7.7827911376953125
1715093764103204400,10.292204345703125,-0.980194091796875,-7.39068603515625,4.8235626220703125
1715093764113183500,10.30218359375,-1.518890380859375,-8.726654052734375,3.1978912353515625
1715093764123163000,10.312162841796875,-0.2643280029296875,-9.076202392578125,2.3407745361328125
1715093764133111600,10.322111572265625,1.6175079345703125,-9.274932861328125,0.717498779296875
1715093764143090700,10.332090576171876,3.14739990234375,-8.896636962890625,-0.3000335693359375
1715093764153070000,10.342070068359375,3.5448455810546875,-8.180770874023438,-0.7980194091796875
1715093764163049200,10.35204931640625,3.3700714111328125,-6.8376312255859375,-0.91534423828125
1715093764173028600,10.362028564453125,2.5991363525390625,-5.494476318359375,-1.0446319580078125
1715093764182977300,10.371977294921875,1.47625732421875,-4.74749755859375,-1.3415069580078125
1715093764192956400,10.381956298828126,0.6502532958984375,-4.5559539794921875,-1.4779815673828125
1715093764202935800,10.391935791015625,0.1809844970703125,-4.764251708984375,-1.5091094970703125
1715093764212915000,10.4019150390625,-0.0009613037109375,-5.2095794677734375,-1.5785369873046875
1715093764222864000,10.41186376953125,-0.0272979736328125,-5.64532470703125,-1.6096649169921875
1715093764232843000,10.421843017578125,0.224090576171875,-5.980499267578125,-1.418121337890625
1715093764242822100,10.431822265625,0.7340545654296875,-6.2295074462890625,-1.2146148681640625
1715093764252771000,10.44177099609375,1.461883544921875,-6.3563995361328125,-1.133209228515625
1715093764262750200,10.451750244140625,2.443511962890625,-6.4473724365234375,-0.9392852783203125
1715093764272729600,10.4617294921875,3.066009521484375,-6.5742645263671875,-0.6112823486328125
1715093764282678300,10.47167822265625,3.1497955322265625,-7.0076141357421875,0.16204833984375
1715093764292657400,10.481657470703125,2.8289794921875,-7.618133544921875,1.371124267578125
1715093764302636800,10.49163671875,2.6087188720703125,-7.93896484375,3.2816925048828125
1715093764312585500,10.50158544921875,2.85052490234375,-6.878326416015625,6.7461090087890625
1715093764322564600,10.511564697265625,2.08917236328125,-6.13372802734375,9.240859985351562
1715093764332544000,10.5215439453125,0.7938995361328125,-7.172821044921875,9.829833984375
1715093764342492700,10.53149267578125,-0.4702301025390625,-9.339569091796875,10.35894775390625
1715093764352471800,10.541471923828125,-2.4406585693359375,-12.279647827148438,10.66302490234375
1715093764362451200,10.551451171875,-1.66253662109375,-14.283599853515625,10.603164672851562
1715093764372399900,10.56139990234375,1.1075439453125,-15.645904541015625,2.5107574462890625
1715093764382379300,10.571379150390625,1.44512939453125,-18.648223876953125,-5.8641510009765625
1715093764392358400,10.5813583984375,2.381256103515625,-19.25634765625,-6.3358154296875
1715093764402337500,10.591337646484375,5.6804656982421875,-16.048126220703125,-0.92730712890625
1715093764412286500,10.601286376953125,6.173675537109375,-9.890243530273438,4.351898193359375
1715093764422265600,10.611265625,-0.54205322265625,-6.602996826171875,5.9727783203125
1715093764432244700,10.62124462890625,-0.5396575927734375,-10.668350219726562,6.4180908203125
1715093764442224000,10.63122412109375,0.7986907958984375,-18.638656616210938,7.2967681884765625
1715093764452203300,10.641203369140625,2.4698486328125,-20.506134033203125,4.94805908203125
1715093764462152200,10.651152099609375,-1.940277099609375,-19.694488525390625,-1.0111083984375
1715093764472131300,10.66113134765625,-3.166107177734375,-16.074462890625,-2.758880615234375
1715093764482110500,10.6711103515625,-4.59783935546875,-10.225418090820312,-3.0940704345703125
1715093764492059400,10.681059326171875,-2.2563018798828125,-7.2973175048828125,-0.6232452392578125
1715093764502038500,10.69103857421875,-0.673736572265625,-8.733840942382812,1.593780517578125
1715093764512018000,10.701017822265625,0.5066070556640625,-10.608505249023438,3.2170562744140625
1715093764521966600,10.710966552734375,-2.100677490234375,-11.764892578125,4.1579742431640625
1715093764531945700,10.72094580078125,-3.642547607421875,-11.7529296875,3.7988433837890625
1715093764541925000,10.730925048828125,-1.887603759765625,-12.016281127929688,3.5139312744140625
1715093764551873800,10.740873779296875,0.2073211669921875,-11.728988647460938,2.89862060546875
1715093764561853000,10.75085302734375,0.858551025390625,-10.83355712890625,1.9122161865234375
1715093764571832300,10.760832275390625,1.2583770751953125,-9.818405151367188,0.83721923828125
1715093764581781000,10.770781005859375,2.0652313232421875,-9.425765991210938,-0.73577880859375
1715093764591760100,10.780760009765626,1.6582183837890625,-9.092971801757812,-2.61761474609375
1715093764601739500,10.790739501953125,1.275146484375,-8.444137573242188,-3.594451904296875
1715093764611688200,10.800688232421875,0.657440185546875,-7.4936370849609375,-4.2049713134765625
1715093764621667600,10.81066748046875,0.140289306640625,-6.571868896484375,-3.85302734375
1715093764631646700,10.820646728515625,0.14508056640625,-5.906280517578125,-2.9623870849609375
1715093764641595400,10.830595458984375,-0.048858642578125,-5.5974273681640625,-2.124420166015625
1715093764651574800,10.84057470703125,0.17620849609375,-5.7243194580078125,-1.8155670166015625
1715093764661554000,10.850553955078125,0.5999755859375,-6.3300628662109375,-1.7054290771484375
1715093764671502600,10.860502685546875,0.415618896484375,-7.0076141357421875,-1.566558837890625
1715093764681482000,10.87048193359375,0.3581695556640625,-7.6109619140625,-1.339111328125
1715093764691461000,10.880461181640625,-0.3792572021484375,-8.21429443359375,-1.1547698974609375
1715093764701440500,10.8904404296875,-1.308197021484375,-8.69073486328125,-0.893798828125
1715093764711419600,10.900419677734375,-1.8229522705078125,-9.109725952148438,-0.53466796875
1715093764721368300,10.910368408203125,-2.162933349609375,-9.327606201171875,0.083038330078125
1715093764731347700,10.92034765625,-1.9019622802734375,-9.26055908203125,0.4709014892578125
1715093764741326800,10.930326904296875,-1.593109130859375,-8.894256591796875,0.770172119140625
1715093764751306200,10.94030615234375,-1.7032470703125,-8.422592163085938,1.318450927734375
1715093764761255000,10.9502548828125,-1.686492919921875,-8.01318359375,1.869110107421875
1715093764771234000,10.960234130859375,-1.676910400390625,-7.6947479248046875,2.4940032958984375
1715093764781213400,10.97021337890625,-1.720001220703125,-7.7091217041015625,3.0757904052734375
1715093764791162000,10.980162109375,-1.720001220703125,-7.986846923828125,3.4133758544921875
1715093764801141200,10.990141357421875,-1.5643768310546875,-8.391464233398438,3.7581329345703125
1715093764811120600,11.00012060546875,-1.2818603515625,-8.75299072265625,3.7437744140625
1715093764821069300,11.0100693359375,-0.8173980712890625,-9.1217041015625,3.79644775390625
1715093764831048400,11.02004833984375,-0.0799713134765625,-9.274932861328125,4.033477783203125
1715093764841027800,11.03002783203125,0.28155517578125,-9.325210571289062,4.0430450439453125
1715093764850976500,11.0399765625,0.1738128662109375,-9.370697021484375,3.712646484375
1715093764860956000,11.049955810546875,0.6861724853515625,-9.18634033203125,3.5713958740234375
1715093764870935000,11.05993505859375,2.0700225830078125,-8.652435302734375,3.240997314453125
1715093764880883700,11.0698837890625,3.6549835205078125,-8.223876953125,2.903411865234375
1715093764890863000,11.079863037109375,4.04522705078125,-7.2805633544921875,3.5881500244140625
1715093764900842200,11.08984228515625,3.9566497802734375,-5.95416259765625,3.87066650390625
1715093764910791000,11.099791015625,2.0867767333984375,-6.6077880859375,0.3703460693359375
1715093764920770300,11.109770263671875,-0.5324859619140625,-8.106552124023438,0.569061279296875
1715093764930749400,11.11974951171875,-2.3496856689453125,-10.397811889648438,1.8595428466796875
1715093764940698000,11.129697998046876,-2.1365966796875,-12.717788696289062,2.5059661865234375
1715093764950677500,11.139677490234375,-0.6330413818359375,-13.771240234375,2.575408935546875
1715093764960656600,11.14965673828125,1.0405120849609375,-13.840667724609375,2.376678466796875
1715093764970605600,11.15960546875,2.4722442626953125,-13.864608764648438,2.2928924560546875
1715093764980584700,11.169584716796875,3.4490814208984375,-13.184661865234375,2.881866455078125
1715093764990563800,11.179563720703126,1.6701812744140625,-11.37225341796875,3.501953125
1715093765000543200,11.189543212890625,0.0684661865234375,-9.459274291992188,3.346343994140625
1715093765010522400,11.1995224609375,-0.175750732421875,-7.4505462646484375,3.267333984375
1715093765020471300,11.20947119140625,-1.3632659912109375,-5.894317626953125,2.7046966552734375
1715093765030450400,11.219450439453125,-2.8955535888671875,-5.3915252685546875,1.435760498046875
1715093765040429600,11.2294296875,-3.2139892578125,-5.640533447265625,-0.26171875
1715093765050409000,11.239408935546875,-2.4023590087890625,-6.4425811767578125,-1.7102203369140625
1715093765060357600,11.249357666015625,-2.241943359375,-7.8144683837890625,-3.5345916748046875
1715093765070337000,11.2593369140625,-3.1804656982421875,-9.667572021484375,-5.9910430908203125
1715093765080316200,11.269316162109375,-4.35601806640625,-12.392181396484375,-8.4906005859375
1715093765090264800,11.279264892578125,-5.2729949951171875,-15.023406982421875,-9.433914184570312
1715093765100244200,11.289244140625,-5.6512908935546875,-18.15740966796875,-10.745941162109375
1715093765110223400,11.299223388671875,-5.78057861328125,-22.280227661132812,-11.62939453125
1715093765120172000,11.309172119140625,-5.469329833984375,-25.088623046875,-9.254348754882812
1715093765130151400,11.3191513671875,-5.4453887939453125,-23.4486083984375,-4.0732879638671875
1715093765140130600,11.329130615234375,-6.0989990234375,-19.146224975585938,0.272186279296875
1715093765150079200,11.339079345703125,-6.9680938720703125,-13.108047485351562,4.8211669921875
1715093765160058600,11.34905859375,-7.932952880859375,-9.47125244140625,7.44281005859375
1715093765170037800,11.359037841796875,-5.4310150146484375,-7.6971435546875,9.456344604492188
1715093765179986700,11.368986572265625,-2.004913330078125,-6.708343505859375,10.715682983398438
1715093765189965800,11.3789658203125,-0.1302490234375,-6.770599365234375,8.764419555664062
1715093765199945000,11.388945068359375,-0.8173980712890625,-7.057891845703125,6.209808349609375
1715093765209894000,11.398893798828125,-1.741546630859375,-8.051483154296875,4.5649871826171875
1715093765219873000,11.408873046875,-1.4039764404296875,-8.401046752929688,3.8586883544921875
1715093765229852200,11.41885205078125,0.5449066162109375,-8.2550048828125,2.63525390625
1715093765239801000,11.428801025390625,2.7427825927734375,-8.051483154296875,1.3208465576171875
1715093765249780200,11.4387802734375,3.8034210205078125,-7.4409637451171875,0.7079315185546875
1715093765259759600,11.448759521484375,3.659759521484375,-6.3851318359375,0.4541473388671875
1715093765269738800,11.45873876953125,2.7308197021484375,-5.144927978515625,0.1764068603515625
1715093765279687400,11.4686875,1.8377838134765625,-4.4338531494140625,-0.34552001953125
1715093765289666800,11.478666748046875,1.1458587646484375,-4.4075164794921875,-0.7381744384765625
1715093765299646000,11.48864599609375,0.83221435546875,-4.6828460693359375,-1.0613861083984375
1715093765309625300,11.498625244140625,0.7388458251953125,-5.0778961181640625,-1.41094970703125
1715093765319604500,11.5086044921875,0.7819366455078125,-5.55194091796875,-1.5833282470703125
1715093765329553200,11.51855322265625,0.710113525390625,-5.91107177734375,-1.60247802734375
1715093765339532500,11.528532470703125,0.779541015625,-6.0810546875,-1.48516845703125
1715093765349511700,11.53851171875,1.1626129150390625,-6.3468170166015625,-1.4300994873046875
1715093765359491000,11.548490966796875,1.9718475341796875,-6.3994903564453125,-1.4013671875
1715093765369439700,11.558439697265625,2.876861572265625,-6.3970947265625,-0.984771728515625
1715093765379419000,11.5684189453125,3.2862701416015625,-6.8280487060546875,-0.108489990234375
1715093765389398300,11.578398193359375,3.1809234619140625,-7.86474609375,0.8515777587890625
1715093765399347000,11.588346923828125,2.85052490234375,-8.93255615234375,2.4892120361328125
1715093765409326000,11.598326171875,2.7308197021484375,-9.150436401367188,5.45562744140625
1715093765419305500,11.608305419921875,2.347747802734375,-9.152816772460938,8.005447387695312
1715093765429254100,11.618254150390625,1.502593994140625,-10.388229370117188,8.680618286132812
1715093765439233300,11.6282333984375,0.880096435546875,-12.14556884765625,9.322265625
1715093765449212700,11.638212646484375,0.5018157958984375,-13.524642944335938,9.23846435546875
1715093765459161300,11.648161376953125,0.2049407958984375,-14.336273193359375,6.738922119140625
1715093765469140700,11.658140625,1.572021484375,-14.477523803710938,3.5211181640625
1715093765479120000,11.668119873046875,1.84735107421875,-15.255645751953125,0.1811981201171875
1715093765489068500,11.678068603515625,4.0524139404296875,-15.152694702148438,-1.4205169677734375
1715093765499048000,11.6880478515625,6.216766357421875,-12.911712646484375,-1.9640045166015625
1715093765509027000,11.698027099609375,5.7858123779296875,-9.878265380859375,-0.678314208984375
1715093765518975700,11.707975830078125,4.0212860107421875,-8.4034423828125,2.438934326171875
1715093765528955100,11.717955078125,0.257598876953125,-9.284500122070312,4.0622100830078125
1715093765538934300,11.727934326171875,-1.973785400390625,-13.519851684570312,5.1156463623046875
1715093765548913700,11.73791357421875,-4.190826416015625,-20.56597900390625,6.877777099609375
1715093765558862300,11.7478623046875,-6.8052825927734375,-23.826889038085938,6.54498291015625
1715093765568841500,11.757841552734375,-8.442916870117188,-22.447830200195312,1.8451690673828125
1715093765578820900,11.76782080078125,-5.301727294921875,-19.088760375976562,-2.26806640625
1715093765588800000,11.777800048828125,-2.079132080078125,-12.813552856445312,-3.69500732421875
1715093765598779400,11.787779296875,-0.367279052734375,-8.008392333984375,-2.6200103759765625
1715093765608728000,11.79772802734375,1.418792724609375,-5.312530517578125,-0.9081573486328125
1715093765618707200,11.807707275390625,2.0867767333984375,-4.0699310302734375,0.4493560791015625
1715093765628686600,11.8176865234375,1.5217437744140625,-3.4737701416015625,0.73187255859375
1715093765638635300,11.82763525390625,0.7484130859375,-3.0930938720703125,-0.4652252197265625
1715093765648614400,11.837614501953125,0.5113983154296875,-2.9709930419921875,-1.4779815673828125
1715093765658593800,11.84759375,0.5856170654296875,-4.4290618896484375,-1.1020965576171875
1715093765668542500,11.85754248046875,0.98065185546875,-7.1776123046875,-1.0829315185546875
1715093765678521600,11.867521484375,1.0931854248046875,-10.184722900390625,-1.386993408203125
1715093765688501000,11.8775009765625,0.4275970458984375,-12.267684936523438,-1.058990478515625
1715093765698449700,11.88744970703125,-1.3776397705078125,-13.39056396484375,-0.3431243896484375
1715093765708429000,11.897428955078125,-3.0775146484375,-13.46478271484375,-1.0494232177734375
1715093765718408200,11.907408203125,-3.0775146484375,-11.736160278320312,-2.390167236328125
1715093765728356900,11.91735693359375,-1.593109130859375,-9.066635131835938,-1.908935546875
1715093765738336300,11.927336181640625,0.17620849609375,-7.010009765625,-2.3015899658203125
1715093765748315400,11.9373154296875,1.2512054443359375,-5.8703765869140625,-2.823516845703125
1715093765758264000,11.94726416015625,1.59356689453125,-5.101837158203125,-3.2592620849609375
1715093765768243500,11.957243408203125,1.11712646484375,-4.943817138671875,-3.297576904296875
1715093765778222600,11.96722265625,-0.0584259033203125,-5.50885009765625,-2.5338287353515625
1715093765788171300,11.977171142578126,-0.7599334716796875,-6.5359649658203125,-1.322357177734375
1715093765798150700,11.987150634765625,-0.6019134521484375,-7.2278900146484375,0.5499114990234375
1715093765808129800,11.9971298828125,-0.3577117919921875,-7.8743133544921875,2.110931396484375
1715093765818078700,12.00707861328125,-0.0416717529296875,-9.277328491210938,2.70709228515625
1715093765828057900,12.017057861328125,0.00860595703125,-10.349929809570312,3.4301300048828125
1715093765838037000,12.027037109375,-0.4486846923828125,-11.293243408203125,3.8778533935546875
1715093765848016400,12.037016357421875,-0.894012451171875,-11.501541137695312,3.8634796142578125
1715093765857995500,12.04699560546875,-1.672119140625,-10.962844848632812,3.801239013671875
1715093765867944400,12.0569443359375,-2.2730712890625,-10.314010620117188,3.7294158935546875
1715093765877923600,12.066923583984375,-2.5890960693359375,-9.808837890625,3.0877685546875
1715093765887902700,12.07690283203125,-2.723175048828125,-9.239013671875,2.649627685546875
1715093765897882000,12.086882080078125,-2.596282958984375,-8.808059692382812,2.7118682861328125
1715093765907830800,12.096830810546875,-2.1294097900390625,-8.618911743164062,2.8746795654296875
1715093765917810000,12.106809814453126,-1.7056427001953125,-8.444137573242188,3.2290191650390625
1715093765927789300,12.116789306640625,-0.7599334716796875,-8.662017822265625,3.600128173828125
1715093765937738000,12.126738037109375,0.8465728759765625,-8.159225463867188,3.4828033447265625
1715093765947717400,12.13671728515625,2.972625732421875,-7.383514404296875,3.5187225341796875
1715093765957696500,12.146696533203125,4.4019622802734375,-6.444976806640625,3.54266357421875
1715093765967645200,12.156645263671875,5.6996307373046875,-6.19598388671875,3.0015716552734375
1715093765977624600,12.16662451171875,5.8049774169921875,-7.23028564453125,1.646453857421875
1715093765987603700,12.176603759765625,3.700469970703125,-7.438568115234375,0.2266845703125
1715093765997552400,12.186552490234375,1.746795654296875,-8.032333374023438,0.739044189453125
1715093766007531800,12.19653173828125,-0.451080322265625,-9.87347412109375,1.5339202880859375
1715093766017511000,12.206510986328125,-1.339324951171875,-12.5765380859375,1.98883056640625
1715093766027459600,12.21645947265625,-0.8030242919921875,-14.973129272460938,1.2681732177734375
1715093766037439000,12.22643896484375,0.7723541259765625,-15.530975341796875,1.277740478515625
1715093766047418000,12.236418212890625,1.9646759033203125,-14.293167114257812,3.14044189453125
1715093766057367000,12.246366943359375,0.3964691162109375,-12.243743896484375,5.1467742919921875
1715093766067346200,12.25634619140625,-1.17413330078125,-9.804046630859375,6.3127593994140625
1715093766077325300,12.2663251953125,-1.2627105712890625,-6.9764862060546875,6.6359710693359375
1715093766087274200,12.276274169921875,-2.7375335693359375,-5.123382568359375,6.559356689453125
1715093766097253400,12.28625341796875,-2.3712310791015625,-4.65411376953125,4.70623779296875
1715093766107232800,12.296232666015625,-0.9777984619140625,-5.5495452880859375,1.3663330078125
1715093766117181400,12.306181396484375,-0.10870361328125,-6.9333953857421875,-1.8490753173828125
1715093766127160600,12.31616064453125,-0.4031982421875,-9.116912841796875,-5.3925018310546875
1715093766137140000,12.326139892578125,-1.5859222412109375,-12.121627807617188,-9.460250854492188
1715093766147119000,12.336119140625,-2.90753173828125,-14.61639404296875,-12.0316162109375
1715093766157098500,12.346098388671875,-3.8029632568359375,-16.979461669921875,-13.482513427734375
1715093766167047200,12.356047119140625,-4.360809326171875,-19.725616455078125,-14.880722045898438
1715093766177026300,12.3660263671875,-6.0056304931640625,-21.784637451171875,-13.824874877929688
1715093766187005700,12.376005615234375,-6.4701080322265625,-22.083908081054688,-8.832962036132812
1715093766196984800,12.38598486328125,-5.354400634765625,-20.12066650390625,-1.4037628173828125
1715093766206933500,12.39593359375,-5.205963134765625,-17.635482788085938,3.9041900634765625
1715093766216913000,12.405912841796875,-6.6185455322265625,-13.85504150390625,7.5194244384765625
1715093766226892000,12.41589208984375,-8.2537841796875,-12.109664916992188,10.349380493164062
1715093766236840700,12.4258408203125,-6.664031982421875,-10.766510009765625,12.918350219726562
1715093766246820000,12.435820068359375,-3.980133056640625,-8.286117553710938,14.462615966796875
1715093766256799200,12.44579931640625,-1.540435791015625,-6.698760986328125,12.212066650390625
1715093766266748200,12.455748046875,-1.47100830078125,-6.15289306640625,8.038970947265625
1715093766276727300,12.465727294921875,-1.33453369140625,-6.8280487060546875,5.6280059814453125
1715093766286706400,12.47570654296875,-0.060821533203125,-7.85516357421875,3.6096954345703125
1715093766296655400,12.4856552734375,1.4834442138671875,-8.355560302734375,1.8116607666015625
1715093766306634500,12.495634521484375,3.3868255615234375,-8.520751953125,0.2219085693359375
1715093766316613600,12.505613525390626,4.145782470703125,-8.24542236328125,-0.4963531494140625
1715093766326562600,12.5155625,3.4849853515625,-7.436187744140625,-0.730987548828125
1715093766336541700,12.525541748046875,2.785888671875,-6.3468170166015625,-0.963226318359375
1715093766346521000,12.53552099609375,2.2615509033203125,-5.25506591796875,-1.0877227783203125
1715093766356469800,12.5454697265625,1.6845550537109375,-4.563140869140625,-0.9775848388671875
1715093766366449000,12.555448974609375,1.081207275390625,-4.3500518798828125,-0.687896728515625
1715093766376428300,12.56542822265625,0.6646270751953125,-4.64215087890625,-0.7070465087890625
1715093766386377000,12.575376953125,0.4395599365234375,-4.9605712890625,-0.9440765380859375
1715093766396356000,12.585356201171875,0.54730224609375,-5.19281005859375,-1.2457427978515625
1715093766406335500,12.59533544921875,0.9351654052734375,-5.1521148681640625,-1.449249267578125
1715093766416314600,12.605314697265625,1.830596923828125,-5.0156402587890625,-1.513885498046875
1715093766426294000,12.6152939453125,2.898406982421875,-5.377166748046875,-1.64556884765625
1715093766436242700,12.62524267578125,3.4490814208984375,-6.0547332763671875,-1.133209228515625
1715093766446221800,12.635221923828125,3.7028656005859375,-6.8017120361328125,-0.508331298828125
1715093766456201200,12.645201171875,3.66455078125,-7.60137939453125,0.442169189453125
1715093766466180400,12.655180419921875,3.43231201171875,-8.166412353515625,2.237823486328125
1715093766476129000,12.66512890625,2.934326171875,-8.357955932617188,4.825958251953125
1715093766486108400,12.6751083984375,2.31182861328125,-8.966079711914062,6.6527252197265625
1715093766496087600,12.685087646484375,1.30865478515625,-10.754547119140625,7.720550537109375
1715093766506067000,12.69506689453125,0.542510986328125,-12.918899536132812,9.183395385742188
1715093766516015600,12.705015625,-1.2675018310546875,-15.222122192382812,9.102005004882812
1715093766525994800,12.714994873046875,-3.4965057373046875,-16.457534790039062,6.6790618896484375
1715093766535974100,12.72497412109375,-2.447845458984375,-16.70892333984375,2.1085357666015625
1715093766545922800,12.7349228515625,1.3589324951171875,-17.218887329101562,-0.2425689697265625
1715093766555902200,12.744902099609375,7.02362060546875,-15.988265991210938,-0.43890380859375
1715093766565881300,12.75488134765625,7.5958404541015625,-11.846298217773438,-0.2186279296875
1715093766575830000,12.764830078125,4.3899993896484375,-8.233444213867188,1.129302978515625
1715093766585809400,12.774809326171875,3.214447021484375,-8.580612182617188,5.3574676513671875
1715093766595788500,12.78478857421875,2.254364013671875,-10.857498168945312,8.345428466796875
1715093766605737200,12.7947373046875,0.0804290771484375,-10.488784790039062,7.720550537109375
1715093766615716600,12.804716552734375,-6.5323486328125,-13.385772705078125,5.1563568115234375
1715093766625695700,12.81469580078125,-8.234634399414062,-19.215652465820312,3.252960205078125
1715093766635644400,12.82464453125,-8.308853149414062,-22.622604370117188,0.7103271484375
1715093766645623800,12.834623779296875,-5.3615875244140625,-20.166152954101562,-4.386932373046875
1715093766655603000,12.84460302734375,-1.2627105712890625,-13.924468994140625,-5.27996826171875
1715093766665552000,12.8545517578125,0.573638916015625,-9.011566162109375,-1.7293701171875
1715093766675531000,12.864531005859375,2.1729736328125,-5.95416259765625,0.2219085693359375
1715093766685510100,12.87451025390625,2.8217926025390625,-3.813751220703125,0.8874969482421875
1715093766695489500,12.884489501953125,2.0915679931640625,-2.7962188720703125,0.4924468994140625
1715093766705438200,12.894438232421875,1.260772705078125,-2.33892822265625,-0.455657958984375
1715093766715417300,12.904417236328126,1.1410675048828125,-3.0284576416015625,-0.393402099609375
1715093766725396700,12.914396728515625,1.4666748046875,-4.9677581787109375,-0.2808837890625
1715093766735376000,12.9243759765625,1.7013092041015625,-7.6109619140625,-0.53466796875
1715093766745324800,12.93432470703125,1.7515869140625,-9.981216430664062,-0.213836669921875
