time,seconds_elapsed,z,y,x
1715093241070421500,0.18142138671875,-5.205083847045898,-0.17116641998291016,10.655903816223145
1715093241080401000,0.19140087890625,-4.8556013107299805,0.164839506149292,10.264057159423828
1715093241090380000,0.201380126953125,-4.642247200012207,0.24478411674499512,9.774596214294434
1715093241100359200,0.211359130859375,-4.684079170227051,0.27270054817199707,9.058168411254883
1715093241110338600,0.221338623046875,-5.020359992980957,0.17772626876831055,8.26079273223877
1715093241120317700,0.231317626953125,-5.572256088256836,0.1229095458984375,7.506147384643555
1715093241130297000,0.241297119140625,-5.766739845275879,0.11010622978210449,6.942563533782959
1715093241140276200,0.251276123046875,-5.356891632080078,0.16449904441833496,6.601515293121338
1715093241150255600,0.261255615234375,-4.886285781860352,0.19369292259216309,6.259827136993408
1715093241160204300,0.271204345703125,-4.617427825927734,0.23210406303405762,5.956923484802246
1715093241170183400,0.281183349609375,-4.586363792419434,0.13184022903442383,5.5829572677612305
1715093241180162800,0.291162841796875,-4.549352645874023,0.006726980209350586,5.376650810241699
1715093241190142000,0.301141845703125,-4.35869026184082,0.03721356391906738,5.256094932556152
1715093241200090600,0.311090576171875,-4.080539703369141,0.12577319145202637,5.0666399002075195
1715093241210070000,0.321070068359375,-3.864396095275879,0.19039344787597656,4.753578186035156
1715093241220049200,0.331049072265625,-3.754251480102539,0.18348073959350586,4.469315052032471
1715093241229998000,0.340998046875,-3.750652313232422,0.1613306999206543,4.174225807189941
1715093241239977200,0.350977294921875,-3.7858972549438477,0.11644268035888672,3.891416072845459
1715093241249956400,0.360956298828125,-3.598196029663086,0.13393115997314453,3.5500404834747314
1715093241259905300,0.3709052734375,-3.225560188293457,0.022888660430908203,3.5461575984954834
1715093241269884400,0.380884521484375,-2.9335575103759766,-0.022253036499023438,3.4366588592529297
1715093241279833000,0.3908330078125,-2.8244247436523438,-0.007699489593505859,3.5695371627807617
1715093241289812500,0.4008125,-2.768495559692383,0.12812471389770508,3.866262912750244
1715093241299791600,0.41079150390625,-2.78029727935791,0.14705276489257812,3.5217411518096924
1715093241309740300,0.420740234375,-2.674391746520996,-0.21970272064208984,2.806884288787842
1715093241319719700,0.4307197265625,-1.9625635147094727,-0.4416956901550293,2.7148337364196777
1715093241329698800,0.44069873046875,-1.7426061630249023,-0.5715842247009277,3.1231560707092285
1715093241339647700,0.450647705078125,-1.7327251434326172,-0.48499250411987305,3.4129345417022705
1715093241349627000,0.460626953125,-2.1657772064208984,-0.34384775161743164,3.812903642654419
1715093241359606000,0.47060595703125,-2.8354692459106445,-0.261629581451416,3.8214380741119385
1715093241369585400,0.48058544921875,-3.2772464752197266,-0.2082200050354004,3.105050802230835
1715093241379534000,0.4905341796875,-3.2719955444335938,-0.21660947799682617,2.4298126697540283
1715093241389513500,0.500513427734375,-2.988894462585449,-0.19799423217773438,2.4864578247070312
1715093241399492600,0.51049267578125,-2.5411109924316406,-0.10061120986938477,2.5587854385375977
1715093241409471700,0.5204716796875,-2.1000680923461914,-0.0772242546081543,2.4795382022857666
1715093241419420700,0.530420654296875,-1.9085664749145508,-0.06752967834472656,2.4605205059051514
1715093241429399800,0.54039990234375,-1.7900104522705078,-0.028173446655273438,2.4348251819610596
1715093241439379000,0.55037890625,-1.6439800262451172,-0.046669960021972656,2.2089648246765137
1715093241449327900,0.560327880859375,-1.5742864608764648,-0.13147258758544922,1.9796288013458252
1715093241459307000,0.57030712890625,-1.5140161514282227,-0.14502716064453125,1.9652206897735596
1715093241469286400,0.580286376953125,-0.8390035629272461,-0.01098012924194336,2.0450382232666016
1715093241479235000,0.590235107421875,-0.4659566879272461,0.03287839889526367,2.0412487983703613
1715093241489214200,0.600214111328125,-0.6601753234863281,-0.07505321502685547,2.042757987976074
1715093241499193600,0.610193603515625,-0.9598274230957031,-0.11662960052490234,1.696452021598816
1715093241509142300,0.620142333984375,-1.017807960510254,-0.15223979949951172,1.5421133041381836
1715093241519121400,0.630121337890625,-1.149104118347168,-0.16271066665649414,1.639981746673584
1715093241529100800,0.640100830078125,-1.204904556274414,-0.16653060913085938,1.7146137952804565
1715093241539049500,0.650049560546875,-1.304840087890625,-0.1467294692993164,1.7395973205566406
1715093241549028600,0.660028564453125,-1.5152158737182617,0.028397083282470703,1.7282836437225342
1715093241559008000,0.670008056640625,-1.8406257629394531,0.13312625885009766,1.7875570058822632
1715093241568956700,0.679956787109375,-1.9926815032958984,0.10843563079833984,1.7760804891586304
1715093241578936000,0.68993603515625,-1.7254304885864258,0.11117982864379883,1.6106971502304077
1715093241588915200,0.699915283203125,-1.3285140991210938,-0.007546901702880859,1.4676833152770996
1715093241598864000,0.70986376953125,-1.0825796127319336,-0.15097379684448242,1.511039137840271
1715093241608843300,0.71984326171875,-1.0130195617675781,-0.16941261291503906,1.5813277959823608
1715093241618822400,0.729822509765625,-0.92803955078125,-0.19522523880004883,1.6692917346954346
1715093241628771000,0.73977099609375,-1.0689916610717773,-0.08748483657836914,1.802090048789978
1715093241638750500,0.74975048828125,-1.3991031646728516,0.021337032318115234,1.8528732061386108
1715093241648729600,0.7597294921875,-1.619760513305664,-0.017452239990234375,1.7121005058288574
1715093241658709000,0.769708984375,-1.584157943725586,-0.052767276763916016,1.5793579816818237
1715093241668657700,0.77965771484375,-1.5173263549804688,-0.0009222030639648438,1.5388221740722656
1715093241678636800,0.78963671875,-1.4739933013916016,0.0024394989013671875,1.6436909437179565
1715093241688616200,0.7996162109375,-1.320892333984375,-0.024768829345703125,1.6623862981796265
1715093241698564900,0.80956494140625,-1.2265748977661133,-0.026784896850585938,1.5015095472335815
1715093241708544000,0.8195439453125,-1.3159914016723633,-0.11149024963378906,1.4417378902435303
1715093241718523400,0.8295234375,-1.4597759246826172,-0.07084798812866211,1.4650588035583496
1715093241728472000,0.83947216796875,-1.3308792114257812,-0.0631256103515625,1.4727201461791992
1715093241738451500,0.849451416015625,-1.016190528869629,-0.07468891143798828,1.5324150323867798
1715093241748430600,0.8594306640625,-1.0309820175170898,-0.02603006362915039,1.7072032690048218
1715093241758379300,0.869379150390625,-1.0501556396484375,-0.10907793045043945,1.7061430215835571
1715093241768358700,0.879358642578125,-0.9223718643188477,-0.0966639518737793,1.518298864364624
1715093241778337800,0.889337890625,-0.8217020034790039,-0.11887693405151367,1.3547950983047485
1715093241788286500,0.899286376953125,-0.6692228317260742,-0.2646493911743164,1.3422356843948364
1715093241798265900,0.909265869140625,-0.5188522338867188,-0.26113033294677734,1.2842679023742676
1715093241808245000,0.919244873046875,-0.747685432434082,-0.23214244842529297,1.2622089385986328
1715093241818193700,0.929193603515625,-0.9049224853515625,-0.13010931015014648,1.3270734548568726
1715093241828173000,0.939173095703125,-1.1103401184082031,-0.17320585250854492,1.2045294046401978
1715093241838152200,0.949152099609375,-1.100992202758789,-0.0872502326965332,0.9806137084960938
1715093241848100900,0.959100830078125,-1.1400823593139648,-0.1088409423828125,1.0139975547790527
1715093241858080300,0.969080322265625,-0.9185857772827148,-0.054863929748535156,1.112229824066162
1715093241868059400,0.979059326171875,-0.7439641952514648,-0.14729547500610352,1.1833597421646118
1715093241878008300,0.98900830078125,-0.5773839950561523,-0.1789536476135254,1.2440037727355957
1715093241887987500,0.998987548828125,-0.501042366027832,-0.12306642532348633,1.2174570560455322
1715093241897966600,1.008966552734375,-0.7659940719604492,-0.07836008071899414,1.2000608444213867
1715093241907915500,1.01891552734375,-1.2567739486694336,-0.006031513214111328,1.200192928314209
1715093241917894700,1.028894775390625,-1.600295066833496,0.05060720443725586,1.1750041246414185
1715093241927874000,1.0388740234375,-1.7891902923583984,0.07623052597045898,1.199986219406128
1715093241937822700,1.04882275390625,-1.8892860412597656,0.055150508880615234,1.1184331178665161
1715093241947801900,1.0588017578125,-1.7515583038330078,-0.05832099914550781,0.9393644332885742
1715093241957781200,1.06878125,-1.557352066040039,-0.13985919952392578,0.9634323716163635
1715093241967760400,1.078760498046875,-1.2868547439575195,-0.2041330337524414,1.1173875331878662
1715093241977709000,1.088708984375,-1.1148786544799805,-0.32286882400512695,1.073531985282898
1715093241987688400,1.0986884765625,-1.287379264831543,-0.3125472068786621,1.03562593460083
1715093241997667600,1.10866748046875,-1.6767148971557617,-0.1909198760986328,1.197895884513855
1715093242007616300,1.1186162109375,-1.8929462432861328,-0.09897804260253906,1.2435612678527832
1715093242017595600,1.128595703125,-1.9903373718261719,-0.10160446166992188,1.1587157249450684
1715093242027574800,1.13857470703125,-2.665591239929199,-0.31433677673339844,1.4032227993011475
1715093242037523700,1.148523681640625,-2.624640464782715,-0.09327507019042969,1.1551127433776855
1715093242047502800,1.1585029296875,-2.237746238708496,-0.03369760513305664,0.9934620261192322
1715093242057482000,1.16848193359375,-1.7937593460083008,-0.19578313827514648,1.0682423114776611
1715093242067431000,1.178430908203125,-1.5315332412719727,-0.25266027450561523,1.0426710844039917
1715093242077410000,1.18841015625,-1.479959487915039,-0.3986344337463379,0.9861871004104614
1715093242087392800,1.198392822265625,-1.4499750137329102,-1.0865693092346191,1.058612585067749
1715093242097341700,1.208341796875,-0.3558645248413086,-0.7083752155303955,0.4646722078323364
1715093242107320800,1.21832080078125,0.19567108154296875,-0.2927684783935547,0.2509534955024719
1715093242117300200,1.22830029296875,0.006228446960449219,-0.14223527908325195,0.44106632471084595
1715093242127249000,1.238248779296875,-0.6895561218261719,-0.34318113327026367,0.8036561012268066
1715093242137228000,1.24822802734375,-1.5606555938720703,-0.7760646343231201,0.9533126354217529
1715093242147207400,1.25820751953125,-2.3427820205688477,-1.1488745212554932,0.8129162192344666
1715093242157156000,1.268156005859375,-2.9030532836914062,-1.722992181777954,0.587906539440155
1715093242167135200,1.27813525390625,-3.3824644088745117,-2.2590529918670654,0.4977710545063019
1715093242177114600,1.288114501953125,-3.938654899597168,-2.6953744888305664,0.5731443166732788
1715093242187063300,1.298063232421875,-4.490233421325684,-3.6327805519104004,0.5656192302703857
1715093242197042400,1.30804248046875,-5.675411224365234,-4.678774833679199,0.29107666015625
1715093242207021800,1.318021728515625,-7.217479705810547,-5.3686652183532715,0.056744158267974854
1715093242216970500,1.327970458984375,-9.253788948059082,-6.427355766296387,-0.654389500617981
1715093242226949600,1.33794970703125,-10.307682991027832,-6.717177867889404,-0.03118455410003662
1715093242236929000,1.347928955078125,-11.503372192382812,-5.299633026123047,1.5766520500183105
1715093242246908200,1.357908203125,-11.968801498413086,-5.24288272857666,2.363136053085327
1715093242256857000,1.367857177734375,-12.562094688415527,-5.41429328918457,2.8017327785491943
1715093242266836200,1.377836181640625,-13.214760780334473,-6.604751110076904,1.6917033195495605
1715093242276815400,1.3878154296875,-11.589715003967285,-7.6121673583984375,1.122542381286621
1715093242286764300,1.397764404296875,-9.478107452392578,-6.7920122146606445,3.1563472747802734
1715093242296743400,1.407743408203125,-6.988677024841309,-5.3139166831970215,5.87660551071167
1715093242306722800,1.417722900390625,-6.451470375061035,-6.007627010345459,4.806704998016357
1715093242316671500,1.42767138671875,-6.130043029785156,-7.728348731994629,2.3697566986083984
1715093242326644200,1.437644287109375,-6.430957317352295,-7.877979278564453,0.9236030578613281
1715093242336623400,1.447623291015625,-7.96319580078125,-7.154598712921143,0.5394415855407715
1715093242346572000,1.457572021484375,-9.326432228088379,-6.696557521820068,0.8080520629882812
1715093242356551400,1.467551513671875,-10.015859603881836,-7.087355136871338,0.5805416107177734
1715093242366530600,1.477530517578125,-9.690879821777344,-7.753115653991699,-0.3100738525390625
1715093242376479500,1.4874794921875,-8.882701873779297,-8.933134078979492,-1.4224433898925781
1715093242386458600,1.497458740234375,-7.729794979095459,-10.738262176513672,-2.845346450805664
1715093242396437800,1.507437744140625,-5.143050193786621,-12.608783721923828,-3.398588180541992
1715093242406386700,1.51738671875,-0.31882619857788086,-14.473587036132812,-3.263960361480713
1715093242416365800,1.52736572265625,5.771108150482178,-15.50916862487793,-3.700918197631836
1715093242426345200,1.53734521484375,10.922835350036621,-15.87781810760498,-4.951404094696045
1715093242436294000,1.5472939453125,12.030899047851562,-18.873842239379883,-5.124302387237549
1715093242446273000,1.55727294921875,12.703489303588867,-20.826370239257812,-1.964594841003418
1715093242456252400,1.56725244140625,16.49097442626953,-19.798002243041992,1.3400778770446777
1715093242466201000,1.577201171875,17.70265007019043,-18.544166564941406,4.597108364105225
1715093242476180200,1.58718017578125,17.05438804626465,-19.246421813964844,6.602765083312988
1715093242486159600,1.59715966796875,16.05728530883789,-19.789833068847656,8.485027313232422
1715093242496108300,1.6071083984375,16.366701126098633,-19.09160614013672,10.570450782775879
1715093242506087400,1.61708740234375,17.32967185974121,-19.596500396728516,12.38417911529541
1715093242516066800,1.62706689453125,20.075403213500977,-19.089664459228516,13.639521598815918
1715093242526046000,1.6370458984375,22.45551109313965,-17.140865325927734,14.148106575012207
1715093242536025300,1.647025390625,19.699575424194336,-17.747596740722656,13.012101173400879
1715093242545974000,1.65697412109375,16.53622055053711,-16.98833656311035,12.797318458557129
1715093242555953200,1.666953125,13.238081932067871,-14.904838562011719,13.379589080810547
1715093242565902000,1.676902099609375,9.473590850830078,-12.65932559967041,15.03775405883789
1715093242575881200,1.686881103515625,6.017108917236328,-9.612425804138184,17.548200607299805
1715093242585860400,1.6968603515625,2.7626571655273438,-6.024024963378906,18.537765502929688
1715093242595809300,1.706809326171875,-4.839086055755615,-0.2034473419189453,20.158971786499023
1715093242605788400,1.716788330078125,-43.435367584228516,26.607173919677734,41.60415267944336
1715093242615767800,1.726767822265625,20.352266311645508,10.270228385925293,10.777036666870117
1715093242625716500,1.736716552734375,-13.201981544494629,6.196536064147949,-9.324999809265137
1715093242635695600,1.746695556640625,-7.561197757720947,0.24018192291259766,-6.132218360900879
1715093242645682700,1.7566826171875,1.1109356880187988,0.3891868591308594,4.798592567443848
1715093242655631400,1.76663134765625,1.4012861251831055,-1.8327455520629883,4.181616306304932
1715093242665609700,1.776609619140625,-0.10728025436401367,2.620309829711914,4.4645304679870605
1715093242675588900,1.7865888671875,-0.779681921005249,4.111577987670898,4.525020599365234
1715093242685537500,1.79653759765625,1.1677138805389404,0.9169960021972656,4.390710830688477
1715093242695517000,1.806516845703125,1.9678664207458496,-0.33503150939941406,3.385944366455078
1715093242705496000,1.81649609375,3.74493670463562,-1.4489669799804688,2.2197165489196777
1715093242715444700,1.82644482421875,2.5039989948272705,-2.308412551879883,1.0874135494232178
1715093242725424000,1.836424072265625,2.831918478012085,-2.5472583770751953,-1.2521507740020752
1715093242735403300,1.8464033203125,0.2549285888671875,-2.3608665466308594,-1.7180094718933105
1715093242745352200,1.856352294921875,0.20876026153564453,-1.4403314590454102,-2.8446946144104004
1715093242755331300,1.866331298828125,2.4734461307525635,-2.238308906555176,-5.206731796264648
1715093242765310500,1.876310546875,5.87119197845459,-2.767411231994629,-6.748452186584473
1715093242775259400,1.88625927734375,4.472521781921387,-1.5115966796875,-3.81535267829895
1715093242785238500,1.896238525390625,0.12206077575683594,0.8503246307373047,0.08431577682495117
1715093242795218000,1.906218017578125,-2.2055556774139404,2.256633758544922,0.37206220626831055
1715093242805197000,1.916197021484375,-3.764507293701172,1.928065299987793,-1.0935420989990234
1715093242815145700,1.926145751953125,-5.3860273361206055,1.9410743713378906,-0.811619758605957
1715093242825125000,1.936125,-6.442910671234131,2.9858503341674805,0.987907886505127
1715093242835104300,1.946104248046875,-4.78416633605957,3.853485107421875,3.716402053833008
1715093242845070600,1.956070556640625,-3.100759983062744,4.432838439941406,5.775617599487305
1715093242855019300,1.966019287109375,0.8383035659790039,5.239774703979492,4.49825382232666
1715093242864998700,1.97599853515625,-1.2971770763397217,5.124584197998047,5.352353572845459
1715093242874977800,1.985977783203125,-7.334009170532227,8.241876602172852,6.7498016357421875
1715093242884926500,1.995926513671875,-3.2220346927642822,6.967545509338379,2.7844371795654297
1715093242894905900,2.00590576171875,-3.0559582710266113,5.771739959716797,2.412994861602783
1715093242904885000,2.015885009765625,-2.390906810760498,6.725973129272461,3.2243194580078125
1715093242914834000,2.025833984375,-2.567425489425659,7.287685394287109,5.29172945022583
1715093242924813000,2.03581298828125,-2.7557549476623535,7.638296127319336,7.508059024810791
1715093242934792200,2.045792236328125,-2.1869022846221924,7.428071975708008,8.510892868041992
1715093242944745200,2.0557451171875,-2.2129557132720947,6.46810245513916,9.035916328430176
1715093242954724400,2.065724365234375,-3.6893815994262695,5.502573013305664,9.556944847106934
1715093242964703500,2.075703369140625,-5.372136116027832,4.984133720397949,8.894136428833008
1715093242974652400,2.08565234375,-5.5089311599731445,3.7979049682617188,8.064651489257812
1715093242984631600,2.095631591796875,-5.175529956817627,-0.17317581176757812,7.483438968658447
1715093242994595000,2.105594970703125,-3.9635345935821533,-5.620726585388184,5.757307529449463
1715093243004574200,2.11557421875,-0.2702504098415375,-6.344016075134277,2.080461025238037
1715093243014553300,2.12555322265625,1.6553987264633179,-5.971956253051758,0.7099676132202148
1715093243024502300,2.135502197265625,1.651936650276184,-7.098544120788574,2.3256256580352783
1715093243034481400,2.1454814453125,3.209900379180908,-6.315958023071289,2.1206862926483154
1715093243044460500,2.15546044921875,-0.011154770851135254,-7.86934757232666,0.5157368183135986
1715093243054409500,2.165409423828125,1.0501115322113037,-7.697025299072266,-0.698540210723877
1715093243064388600,2.175388671875,2.4870047569274902,-4.566729545593262,2.334000825881958
1715093243074368000,2.185367919921875,-0.5421587228775024,-4.702080726623535,2.4694910049438477
1715093243084347100,2.19534716796875,-1.761542797088623,-3.6917924880981445,2.7631547451019287
1715093243094295800,2.2052958984375,-0.23681938648223877,-2.8191146850585938,1.4313886165618896
1715093243104275200,2.215275146484375,1.9534549713134766,-3.7275590896606445,-0.4751927852630615
1715093243114254300,2.22525439453125,1.5173892974853516,-6.432795524597168,-4.181490421295166
1715093243124233700,2.235233642578125,0.9655982255935669,-6.847148895263672,-4.633938312530518
1715093243134182400,2.245182373046875,-0.790084719657898,-4.056791305541992,-2.48846435546875
1715093243144161500,2.25516162109375,0.5379478335380554,-0.1297292709350586,2.1444644927978516
1715093243154141000,2.265140869140625,0.5974201560020447,1.112534523010254,2.7311699390411377
1715093243164089600,2.275089599609375,-0.033317744731903076,0.9457626342773438,2.171473741531372
1715093243174068700,2.28506884765625,0.03029733896255493,0.24088668823242188,-0.07801556587219238
1715093243184053000,2.295052978515625,0.5147451162338257,0.12857723236083984,-2.3815526962280273
1715093243194001700,2.305001708984375,0.11192592978477478,-0.08937644958496094,-3.3393142223358154
1715093243203981000,2.31498095703125,2.253002166748047,1.470290184020996,-5.05190896987915
1715093243213960200,2.324960205078125,1.1305012702941895,2.2778501510620117,-3.8939085006713867
1715093243223909000,2.3349091796875,-0.013363122940063477,2.259298324584961,-1.4539328813552856
1715093243233888300,2.34488818359375,-1.0225588083267212,1.7887697219848633,-0.5250959396362305
1715093243243867400,2.354867431640625,-1.5008540153503418,0.6509456634521484,-0.8203221559524536
1715093243253816300,2.36481640625,-2.043905258178711,0.16089916229248047,-0.1779436469078064
1715093243263795500,2.37479541015625,-2.3153483867645264,-0.5115079879760742,-0.298708438873291
1715093243273774800,2.38477490234375,-1.6912062168121338,-0.8841238021850586,0.592056930065155
1715093243283723500,2.3947236328125,-2.2272722721099854,1.2725229263305664,3.602107048034668
1715093243293702700,2.40470263671875,-1.576597809791565,0.9214191436767578,0.7865359783172607
1715093243303651300,2.4146513671875,-1.2998526096343994,1.1387596130371094,0.8971216082572937
1715093243313630700,2.424630615234375,-0.876922070980072,1.6011075973510742,1.0020570755004883
1715093243323609900,2.43460986328125,-0.06645432114601135,1.0848093032836914,0.5871286988258362
1715093243333558800,2.444558837890625,-0.017369747161865234,0.16571712493896484,0.965877890586853
1715093243343538000,2.454537841796875,0.3272247016429901,1.674067497253418,1.456629991531372
1715093243353517000,2.46451708984375,0.5863604545593262,2.6595077514648438,0.9430080056190491
1715093243363496400,2.474496337890625,-0.2310987412929535,2.2322301864624023,0.36103445291519165
1715093243373445000,2.484445068359375,-1.1795179843902588,0.4740943908691406,0.4900240898132324
1715093243383424300,2.49442431640625,-1.1066826581954956,1.2000436782836914,0.3401598334312439
1715093243393403600,2.504403564453125,-1.5404599905014038,2.4812145233154297,0.9007256031036377
1715093243403382800,2.5143828125,-4.1613874435424805,5.778392791748047,3.174159526824951
1715093243413331700,2.524331787109375,-0.34086352586746216,1.9458818435668945,1.7028155326843262
1715093243423310800,2.534310791015625,-0.1224365234375,2.18802547454834,0.829887866973877
1715093243433290000,2.5442900390625,-0.01228111982345581,2.6972217559814453,-0.26923567056655884
1715093243443239000,2.554239013671875,0.4820651412010193,2.3418502807617188,-0.4798758924007416
1715093243453218000,2.564218017578125,0.6326028108596802,2.5623674392700195,-0.18858259916305542
1715093243463197400,2.574197509765625,0.5862549543380737,4.538887977600098,-0.04469135403633118
1715093243473146000,2.58414599609375,0.21429359912872314,6.209494590759277,-0.10290686786174774
1715093243483125200,2.594125244140625,-0.2387988567352295,6.432903289794922,-0.5363361835479736
1715093243493104600,2.604104736328125,-0.5207132697105408,6.072572708129883,-1.0368506908416748
1715093243503053300,2.61405322265625,-0.944522500038147,5.51126766204834,-0.9986749291419983
1715093243513032400,2.624032470703125,-1.3577640056610107,4.628598213195801,-1.0399268865585327
1715093243523011800,2.63401171875,-0.8858937621116638,3.042163848876953,-0.8659955859184265
1715093243532960500,2.64396044921875,-0.5863685607910156,1.1212434768676758,-0.8094961047172546
1715093243542939600,2.653939697265625,-0.5904550552368164,-1.5629386901855469,-0.5460202693939209
1715093243552919000,2.6639189453125,-2.428619384765625,-9.104061126708984,6.340597629547119
1715093243562867700,2.67386767578125,-1.6192021369934082,-19.148143768310547,8.120965957641602
1715093243572847000,2.68384716796875,-0.9066851139068604,-16.504112243652344,-5.7323832511901855
1715093243582795800,2.693795654296875,-0.6387444734573364,-4.4745941162109375,-3.0270509719848633
1715093243592775000,2.70377490234375,1.5919580459594727,-1.3801946640014648,0.9945805072784424
1715093243602754300,2.71375439453125,1.8481682538986206,-2.39288330078125,-0.0033789873123168945
1715093243612703000,2.723702880859375,0.0025781989097595215,-4.027826309204102,-1.3821849822998047
1715093243622682000,2.73368212890625,-0.7639399766921997,-3.5451622009277344,-0.9177118539810181
1715093243632661500,2.74366162109375,-0.9546881914138794,-1.7145185470581055,0.16795384883880615
1715093243642614500,2.753614501953125,-0.9937602877616882,1.9164857864379883,0.9377381801605225
1715093243652563200,2.763563232421875,0.3648630976676941,2.9452056884765625,1.0014595985412598
1715093243662542600,2.77354248046875,0.045227229595184326,2.0098514556884766,1.4024298191070557
1715093243672521700,2.783521728515625,-1.636813759803772,2.77890682220459,1.1541844606399536
1715093243682501000,2.793501220703125,-0.9728795289993286,3.090017318725586,1.3130782842636108
1715093243692449800,2.80344970703125,-0.31771737337112427,2.8070640563964844,1.2196483612060547
1715093243702429000,2.813428955078125,-0.022312819957733154,2.3075504302978516,0.6644930839538574
1715093243712408300,2.823408203125,0.3786886930465698,1.3582258224487305,0.6358397006988525
1715093243722357000,2.83335693359375,0.5353484749794006,0.41333675384521484,0.2077946662902832
1715093243732336400,2.84333642578125,0.06009948253631592,0.00018787384033203125,-0.050749778747558594
1715093243742315500,2.8533154296875,-0.468350887298584,0.11632633209228516,-0.302498459815979
1715093243752264200,2.86326416015625,-0.7723533511161804,1.7376861572265625,-0.6439900398254395
1715093243762243600,2.87324365234375,-0.9670273065567017,-0.3036918640136719,-0.657642126083374
1715093243772222700,2.88322265625,-1.663097858428955,-1.1575994491577148,-0.41513335704803467
1715093243782171400,2.89317138671875,-1.8646581172943115,-0.9812917709350586,-0.20055830478668213
1715093243792150800,2.90315087890625,-1.7117724418640137,-0.31482696533203125,0.02166008949279785
1715093243802130000,2.9131298828125,-1.5290385484695435,0.3342599868774414,0.2118293046951294
1715093243812078600,2.92307861328125,-0.9668194651603699,0.7320737838745117,0.24834442138671875
1715093243822058000,2.93305810546875,-0.22645580768585205,1.108952522277832,0.6234290599822998
1715093243832037000,2.943037109375,0.5051285624504089,1.3537607192993164,1.353140950202942
1715093243841986000,2.952986083984375,0.8433405756950378,1.4392061233520508,2.12861967086792
1715093243851965200,2.962965087890625,0.7969722747802734,1.3850717544555664,2.538477897644043
1715093243861944300,2.9729443359375,0.42411357164382935,1.2700586318969727,2.722757339477539
1715093243871893200,2.982893310546875,-0.05091750621795654,1.1941404342651367,2.8121285438537598
1715093243881872400,2.992872314453125,-0.47471028566360474,1.0280847549438477,2.7003402709960938
1715093243891851800,3.002851806640625,-0.7008796334266663,0.798253059387207,2.4793877601623535
1715093243901800400,3.012800537109375,-0.7770803570747375,0.45465660095214844,2.2550384998321533
1715093243911779600,3.022779541015625,-0.7387649416923523,0.3480682373046875,2.0272586345672607
1715093243921759000,3.032759033203125,-0.6913908123970032,0.11283397674560547,1.8851021528244019
1715093243931707600,3.042707763671875,-0.7606280446052551,-0.5303869247436523,1.5994826555252075
1715093243941686800,3.052686767578125,-1.0443081855773926,-0.1889324188232422,1.6746350526809692
1715093243951666200,3.062666259765625,-1.1120561361312866,0.09591388702392578,1.4671581983566284
1715093243961645300,3.072645263671875,-1.0469974279403687,0.1981821060180664,1.5059642791748047
1715093243971594000,3.082593994140625,-0.9676218628883362,0.4980440139770508,1.3600468635559082
1715093243981573400,3.092573486328125,-0.8138576149940491,0.6557865142822266,1.3294986486434937
1715093243991573500,3.102573486328125,-0.5463113784790039,0.6192846298217773,1.324510931968689
1715093244001529300,3.112529296875,-0.2940220832824707,0.501408576965332,1.352561354637146
1715093244011508500,3.122508544921875,-0.08302247524261475,0.18110275268554688,1.4003396034240723
1715093244021487900,3.13248779296875,-0.014320015907287598,-0.35713768005371094,1.5528475046157837
1715093244031436500,3.1424365234375,-0.04821425676345825,-1.264556884765625,1.616528034210205
1715093244041415700,3.152415771484375,-0.31798940896987915,-2.5843887329101562,1.9316391944885254
1715093244051395000,3.16239501953125,-0.6028590202331543,-4.021378517150879,2.1939778327941895
1715093244061343700,3.17234375,-0.8644136786460876,-4.884796142578125,1.2725437879562378
1715093244071323000,3.182322998046875,-0.6870628595352173,-4.5520429611206055,-0.26976776123046875
1715093244081302300,3.19230224609375,-0.32321393489837646,-3.534724235534668,-0.594019889831543
1715093244091251000,3.2022509765625,-0.02033364772796631,-2.4786691665649414,0.1716618537902832
1715093244101230000,3.21222998046875,0.19449198246002197,-1.5105934143066406,1.4919743537902832
1715093244111209500,3.22220947265625,0.08619022369384766,-1.1604461669921875,2.433713912963867
1715093244121158100,3.232158203125,-0.16357207298278809,-0.6534528732299805,2.107612133026123
1715093244131137300,3.24213720703125,-0.30097103118896484,1.3900871276855469,1.1335195302963257
1715093244141116700,3.25211669921875,-0.47278451919555664,3.349966049194336,1.4372087717056274
1715093244151065300,3.2620654296875,-0.5242218971252441,4.815149307250977,1.5755047798156738
1715093244161044700,3.272044677734375,-0.2963390350341797,5.88214111328125,0.4697173833847046
1715093244171024000,3.28202392578125,0.2423841953277588,6.578619956970215,0.13240468502044678
1715093244180972500,3.29197265625,0.4188089370727539,7.5307464599609375,-0.6709122657775879
1715093244190952000,3.301951904296875,1.0425001382827759,7.827492713928223,-0.19061124324798584
1715093244200931000,3.31193115234375,1.005831241607666,6.403445243835449,0.10702157020568848
1715093244210879700,3.321879638671875,1.3746227025985718,4.1378173828125,-0.014246106147766113
1715093244220859100,3.331859130859375,1.4207942485809326,3.16180419921875,-0.6071110963821411
1715093244230838300,3.34183837890625,1.3439279794692993,2.9849796295166016,-0.40886759757995605
1715093244240817700,3.351817626953125,0.9103379249572754,2.7885828018188477,-0.18029284477233887
1715093244250766300,3.361766357421875,0.030255913734436035,2.896702766418457,-0.021539807319641113
1715093244260745500,3.371745361328125,-0.7542469501495361,2.9256715774536133,-0.01929008960723877
1715093244270724900,3.381724853515625,-0.9355756044387817,2.627382278442383,-0.1376889944076538
1715093244280704000,3.3917041015625,-0.7635061740875244,1.974989891052246,0.2688390016555786
1715093244290652700,3.401652587890625,-0.5997014045715332,0.7789096832275391,0.5783371925354004
1715093244300632000,3.411632080078125,-0.3926013708114624,-0.6307792663574219,0.3787503242492676
1715093244310611200,3.421611083984375,-0.1401660442352295,-1.9368896484375,0.39266443252563477
1715093244320560000,3.43156005859375,-0.2227264642715454,-3.3666887283325195,1.193918228149414
1715093244330539300,3.441539306640625,-0.21843671798706055,-5.074410438537598,1.8748682737350464
1715093244340518400,3.451518310546875,-0.12407946586608887,-5.638917922973633,1.6107068061828613
1715093244350467300,3.46146728515625,-0.057979464530944824,-3.993454933166504,1.4922103881835938
1715093244360446500,3.471446533203125,-0.22092843055725098,-2.453857421875,-0.04269444942474365
1715093244370425900,3.48142578125,0.20843493938446045,-1.1429576873779297,-0.7316708564758301
1715093244380374500,3.49137451171875,0.9826263189315796,-0.3661041259765625,-1.273087739944458
1715093244390353700,3.501353759765625,1.827886700630188,-0.2047443389892578,-0.8927426338195801
1715093244400333000,3.5113330078125,2.675361156463623,-0.9499530792236328,-0.22804570198059082
1715093244410281700,3.52128173828125,3.3277645111083984,-1.3939542770385742,0.5557959079742432
1715093244420260900,3.5312607421875,3.044893741607666,-1.535517692565918,1.2359479665756226
1715093244430240300,3.541240234375,2.3516714572906494,-1.5457649230957031,1.0467969179153442
1715093244440189000,3.55118896484375,1.4468257427215576,-0.7936248779296875,1.1015750169754028
1715093244450168000,3.56116796875,0.17372024059295654,0.10474777221679688,1.4393117427825928
1715093244460117000,3.571116943359375,-0.8955073356628418,0.8546590805053711,1.7433366775512695
1715093244470096100,3.58109619140625,-1.5503041744232178,1.2271308898925781,1.9684034585952759
1715093244480075300,3.5910751953125,-1.5765259265899658,1.2421979904174805,2.0026965141296387
1715093244490024200,3.601024169921875,-1.1107673645019531,1.1036300659179688,1.7820156812667847
1715093244500003300,3.61100341796875,-0.25206923484802246,0.9576883316040039,1.5208992958068848
1715093244509982700,3.620982666015625,0.573796272277832,0.921809196472168,1.2480627298355103
1715093244519961900,3.6309619140625,1.2329277992248535,0.9938850402832031,1.039754033088684
1715093244529910500,3.64091064453125,1.7214021682739258,0.999237060546875,0.9963339567184448
1715093244539890000,3.650889892578125,1.8621896505355835,1.0602102279663086,1.152791142463684
1715093244549869000,3.660869140625,1.7478798627853394,1.138437271118164,1.3978773355484009
1715093244559848400,3.670848388671875,1.3915154933929443,1.2573280334472656,1.7808178663253784
1715093244569797000,3.680797119140625,1.015061616897583,1.289693832397461,2.135377883911133
1715093244579776300,3.6907763671875,0.6769604682922363,1.1708688735961914,2.4195775985717773
1715093244589755600,3.700755615234375,0.3328019380569458,0.9533281326293945,2.618460178375244
1715093244599704300,3.710704345703125,0.09986317157745361,0.6775703430175781,2.669276237487793
1715093244609683500,3.720683349609375,-0.04653477668762207,0.41735076904296875,2.672614574432373
1715093244619662800,3.730662841796875,-0.14807283878326416,0.1601858139038086,2.6438865661621094
1715093244629611500,3.740611572265625,-0.233964204788208,-0.08262348175048828,2.535660743713379
1715093244639590700,3.750590576171875,-0.24533939361572266,-0.24008655548095703,2.283602714538574
1715093244649570000,3.760570068359375,0.23415923118591309,-0.2938270568847656,2.0144989490509033
1715093244659518700,3.770518798828125,1.2060794830322266,-0.19843006134033203,1.791603684425354
1715093244669498000,3.780498046875,2.3897464275360107,-0.06350326538085938,1.6920229196548462
1715093244679477200,3.790477294921875,3.1396002769470215,0.4021921157836914,1.3789350986480713
1715093244689426000,3.800426025390625,4.626708984375,1.229832649230957,2.142322540283203
1715093244699405300,3.8104052734375,4.796234130859375,1.1836471557617188,2.175920009613037
1715093244709384400,3.820384521484375,4.353997707366943,1.8950529098510742,2.170225143432617
1715093244719333000,3.8303330078125,4.473719596862793,2.326383590698242,2.9521536827087402
1715093244729312500,3.8403125,4.227818965911865,1.635396957397461,3.3628201484680176
1715093244739291600,3.850291748046875,3.1997029781341553,0.7457818984985352,3.9914286136627197
1715093244749240300,3.860240234375,2.3963301181793213,-0.26774024963378906,4.432007789611816
1715093244759219700,3.8702197265625,1.6891822814941406,-1.4436111450195312,4.1755170822143555
1715093244769168400,3.88016845703125,1.1698098182678223,-2.4394006729125977,4.093427658081055
1715093244779147800,3.890147705078125,2.2905943393707275,-3.3535633087158203,3.483193874359131
1715093244789127000,3.900126953125,3.638730525970459,-4.37980842590332,3.0048317909240723
1715093244799106000,3.91010595703125,4.27692174911499,-5.4731245040893555,2.8714466094970703
1715093244809085400,3.92008544921875,4.611077308654785,-6.0375776290893555,2.8384406566619873
1715093244819034000,3.9300341796875,4.50656795501709,-5.468853950500488,2.4153594970703125
1715093244829013500,3.940013427734375,3.2195394039154053,-3.7880477905273438,1.6672533750534058
1715093244838992600,3.94999267578125,1.381300449371338,-2.4979705810546875,0.7216534614562988
1715093244848941300,3.95994140625,-0.19608068466186523,-1.2744712829589844,0.03328144550323486
1715093244858920700,3.969920654296875,-1.5122771263122559,0.42840099334716797,-0.1437084674835205
1715093244868899800,3.97989990234375,-2.340297222137451,2.2723073959350586,-0.4578338861465454
1715093244878848500,3.9898486328125,-2.6920406818389893,3.6048355102539062,-1.6424667835235596
1715093244888828000,3.999827880859375,-2.504375457763672,3.9063873291015625,-2.9433038234710693
1715093244898807000,4.00980712890625,-1.7642353773117065,3.378114700317383,-3.8598546981811523
1715093244908755700,4.019755615234375,-0.5374654531478882,2.1810760498046875,-4.594520568847656
1715093244918735000,4.029735107421875,0.7736648321151733,0.4712076187133789,-5.2009429931640625
1715093244928714200,4.03971435546875,1.4958500862121582,-1.0940265655517578,-4.831840515136719
1715093244938663000,4.049662841796875,1.0737073421478271,-2.304941177368164,-3.6089928150177
1715093244948642300,4.059642333984375,0.37065258622169495,-3.651103973388672,-2.068509101867676
1715093244958621400,4.069621337890625,-0.3352798819541931,-4.561169624328613,0.29816102981567383
1715093244968570400,4.0795703125,-2.993135690689087,-3.333375930786133,4.483072280883789
1715093244978549500,4.089549560546875,-5.642879486083984,-1.6817054748535156,6.798879623413086
1715093244988528600,4.099528564453125,-8.262812614440918,-2.9436960220336914,3.8406434059143066
1715093244998477600,4.1094775390625,-9.198933601379395,-3.0103235244750977,4.760818004608154
1715093245008456700,4.119456787109375,-8.136910438537598,-1.9773178100585938,5.195896625518799
1715093245018436000,4.12943603515625,-6.3238420486450195,-0.7224960327148438,4.409729480743408
1715093245028384800,4.139384765625,-3.933598756790161,0.1072702407836914,3.0403904914855957
1715093245038364000,4.149364013671875,-1.7635077238082886,0.44374656677246094,2.1854119300842285
1715093245048343300,4.15934326171875,-0.1657070517539978,0.3245582580566406,1.4218204021453857
1715093245058292000,4.1692919921875,0.5842010974884033,-0.3364906311035156,0.6266926527023315
1715093245068271000,4.17927099609375,-0.08571946620941162,-0.7118806838989258,0.019192934036254883
1715093245078250500,4.18925048828125,-0.4894205927848816,-0.071258544921875,0.26642367243766785
1715093245088199200,4.19919921875,-0.9082760214805603,0.727757453918457,0.22159598767757416
1715093245098178300,4.20917822265625,-0.8915320634841919,1.8018054962158203,-0.19009709358215332
1715093245108157700,4.21915771484375,-0.10828137397766113,2.4260435104370117,-0.46980351209640503
1715093245118136800,4.22913671875,0.28617143630981445,2.8710479736328125,-0.8912661075592041
1715093245128116200,4.2391162109375,0.2194976806640625,3.068178176879883,-1.2704752683639526
1715093245138065000,4.24906494140625,-0.17419886589050293,2.8897743225097656,-1.9205822944641113
1715093245148044000,4.2590439453125,-0.7000623941421509,2.9036645889282227,-1.6678880453109741
1715093245158023400,4.2690234375,-0.7959111928939819,2.720932960510254,-1.7623176574707031
1715093245167972000,4.27897216796875,-0.6682480573654175,2.4433765411376953,-2.037475824356079
1715093245177951500,4.288951416015625,-1.0075416564941406,2.554938316345215,-2.503265857696533
1715093245187930600,4.2989306640625,-0.42816948890686035,3.1306934356689453,-1.3664627075195312
1715093245197879300,4.30887939453125,-0.04281628131866455,2.984590530395508,-1.8499528169631958
1715093245207858700,4.318858642578125,0.18845224380493164,2.9664478302001953,-1.8664058446884155
1715093245217807400,4.328807373046875,0.37989354133605957,2.9641952514648438,-1.8368629217147827
1715093245227786500,4.338786376953125,0.42388880252838135,2.927915573120117,-1.7630226612091064
1715093245237766000,4.348765869140625,0.3640545606613159,2.8437137603759766,-1.6127599477767944
1715093245247714600,4.358714599609375,0.254213809967041,2.5543699264526367,-1.3575361967086792
1715093245257693700,4.368693603515625,0.26100850105285645,2.239680290222168,-1.0580542087554932
1715093245267673000,4.378673095703125,0.3556821346282959,1.957061767578125,-0.6445941925048828
1715093245277621800,4.388621826171875,0.5612378120422363,1.6752071380615234,-0.12665033340454102
1715093245287601200,4.39860107421875,0.9644371271133423,1.4693317413330078,0.7028051614761353
1715093245297580300,4.408580322265625,0.6393977403640747,0.802398681640625,1.3860111236572266
1715093245307529000,4.418529052734375,0.8355413675308228,0.6373910903930664,2.8406338691711426
1715093245317508400,4.42850830078125,0.801546573638916,0.47507667541503906,4.304952144622803
1715093245327487500,4.438487548828125,0.639241099357605,0.22775650024414062,5.288439750671387
1715093245337436200,4.448436279296875,0.27514660358428955,0.16825199127197266,5.905520439147949
1715093245347415600,4.45841552734375,-0.3946540355682373,0.15178394317626953,5.782524108886719
1715093245357394700,4.468394775390625,-1.321262240409851,-0.4008312225341797,4.613457679748535
1715093245367374000,4.4783740234375,-1.4731602668762207,-1.572641372680664,3.03049898147583
1715093245377322800,4.48832275390625,-1.3108406066894531,-2.9385595321655273,1.0896707773208618
1715093245387302000,4.498302001953125,-1.1542434692382812,-4.560932159423828,-0.9928171634674072
1715093245397281300,4.50828125,-0.48489415645599365,-6.575884819030762,-2.6041557788848877
1715093245407260400,4.518260498046875,0.7719186544418335,-7.852267265319824,-3.3728065490722656
1715093245417209000,4.528208984375,4.255021572113037,-7.983944892883301,-2.5342798233032227
1715093245427188500,4.5381884765625,6.783728122711182,-7.668343544006348,0.6854660511016846
1715093245437167600,4.548167724609375,1.8561209440231323,-7.310964584350586,2.8854713439941406
1715093245447116300,4.5581162109375,-1.6377928256988525,-6.011733055114746,2.2369132041931152
1715093245457095700,4.568095703125,-2.4570724964141846,-4.376262664794922,2.548645496368408
1715093245467074800,4.57807470703125,-1.3502651453018188,-3.831277847290039,1.9853110313415527
1715093245477023700,4.588023681640625,-3.1519532203674316,-4.180612564086914,-2.035646677017212
1715093245487003000,4.5980029296875,-4.0312113761901855,-2.9487810134887695,-3.6449875831604004
1715093245496982000,4.60798193359375,-2.4796504974365234,0.12342643737792969,-3.036646842956543
1715093245506931000,4.617930908203125,-1.866786003112793,1.6166419982910156,-0.830009937286377
1715093245516910000,4.62791015625,-1.1433192491531372,2.841567039489746,0.9032199382781982
1715093245526889500,4.637889404296875,-0.9830752611160278,3.994622230529785,2.271790027618408
1715093245536838100,4.647838134765625,-0.8929669260978699,4.889520645141602,2.320768117904663
1715093245546817300,4.6578173828125,-0.4759853184223175,5.717730522155762,0.7717452049255371
1715093245556796700,4.667796630859375,-0.2207256257534027,5.457497596740723,-0.7896003723144531
1715093245566745300,4.677745361328125,0.264144629240036,3.586790084838867,-1.8194671869277954
1715093245576724500,4.687724365234375,0.8380775451660156,1.824437141418457,-3.377932548522949
1715093245586704000,4.697703857421875,1.1853959560394287,0.49286460876464844,-4.622203826904297
1715093245596652500,4.707652587890625,1.2113701105117798,-0.47186756134033203,-5.614971160888672
1715093245606631700,4.717631591796875,0.5531139969825745,-0.4410858154296875,-6.025411605834961
1715093245616611000,4.727611083984375,-0.6700106859207153,0.4451255798339844,-5.8360419273376465
1715093245626559700,4.737559814453125,-1.6457884311676025,1.421137809753418,-4.5454535484313965
1715093245636539100,4.7475390625,-0.22088855504989624,2.097949981689453,-2.6517648696899414
1715093245646518300,4.757518310546875,1.0539777278900146,2.880072593688965,-2.077845335006714
1715093245656467000,4.767467041015625,1.6670008897781372,3.549325942993164,-2.0569231510162354
1715093245666446300,4.7774462890625,1.958413004875183,3.9682531356811523,-2.413658618927002
1715093245676425500,4.787425537109375,1.699051022529602,3.7811336517333984,-2.5452487468719482
1715093245686404900,4.79740478515625,1.1936225891113281,3.1347808837890625,-2.6309475898742676
1715093245696353500,4.807353515625,0.6851078867912292,2.744333267211914,-2.4901695251464844
1715093245706332700,4.817332763671875,-0.15419209003448486,1.902566909790039,-1.657789707183838
1715093245716312000,4.82731201171875,-0.32866835594177246,0.81597900390625,-1.3544399738311768
1715093245726260700,4.8372607421875,-0.6659141778945923,0.44744110107421875,-0.027788739651441574
1715093245736239900,4.847239990234375,-0.9626451730728149,0.20445632934570312,0.8039315342903137
1715093245746219300,4.85721923828125,-0.9950028657913208,-0.07789230346679688,1.2543388605117798
1715093245756168000,4.86716796875,-0.8470525741577148,0.0043087005615234375,1.7838016748428345
1715093245766147000,4.87714697265625,-0.4070535898208618,0.15417957305908203,2.1925058364868164
1715093245776126500,4.88712646484375,-0.010576963424682617,0.4122762680053711,2.395697832107544
1715093245786075100,4.8970751953125,0.23326170444488525,0.7330217361450195,2.461726665496826
1715093245796054300,4.90705419921875,0.2516913414001465,0.9565753936767578,2.544785499572754
1715093245806033700,4.91703369140625,0.14631831645965576,1.1095895767211914,2.3775253295898438
1715093245815982300,4.926982421875,-0.11157464981079102,1.1107091903686523,2.289477825164795
1715093245825961700,4.936961669921875,-0.6258167028427124,0.9642238616943359,2.21049165725708
1715093245835940900,4.94694091796875,-0.9275184869766235,0.6552629470825195,2.122382402420044
1715093245845889500,4.9568896484375,-0.9681529998779297,0.22413349151611328,2.3086366653442383
1715093245855869000,4.966868896484375,-0.7133649587631226,-0.14363574981689453,2.3029017448425293
1715093245865848000,4.97684814453125,-0.5922015905380249,-0.5378484725952148,2.47103214263916
1715093245875796700,4.986796630859375,-0.13170909881591797,-0.884857177734375,2.6286988258361816
1715093245885776100,4.996776123046875,0.7271823883056641,-0.884033203125,2.201007604598999
1715093245895755300,5.00675537109375,1.9058988094329834,-0.5776529312133789,1.5298116207122803
1715093245905704000,5.016703857421875,2.9583706855773926,0.2093524932861328,1.7433159351348877
1715093245915683300,5.026683349609375,5.120397090911865,-0.046905517578125,1.834811806678772
1715093245925662500,5.036662353515625,8.043079376220703,1.1221809387207031,1.9148766994476318
1715093245935611400,5.046611328125,9.073281288146973,2.6022109985351562,2.3413186073303223
1715093245945590500,5.056590576171875,8.19687271118164,3.8561058044433594,3.068312168121338
1715093245955569700,5.066569580078125,5.384010314941406,2.9487991333007812,2.8471269607543945
1715093245965549000,5.076549072265625,2.270852565765381,0.7344188690185547,2.1065526008605957
1715093245975497700,5.086497802734375,1.0027263164520264,-1.9592666625976562,0.9340605735778809
1715093245985477000,5.09647705078125,1.1470954418182373,-4.009757995605469,-0.15190714597702026
1715093245995456300,5.106456298828125,2.525604486465454,-5.393054008483887,-0.9322096705436707
1715093246005435400,5.116435302734375,4.286090850830078,-4.726274490356445,-0.8990168571472168
1715093246015384300,5.12638427734375,3.4682810306549072,-3.2048988342285156,0.3360220193862915
1715093246025363500,5.136363525390625,2.7150540351867676,-1.589737892150879,1.7467894554138184
1715093246035342800,5.1463427734375,1.7320904731750488,0.02210712432861328,3.214594841003418
1715093246045291500,5.15629150390625,0.44596004486083984,1.5517578125,3.4984564781188965
1715093246055270700,5.166270751953125,-1.0032182931900024,2.718264579772949,2.281200647354126
1715093246065250000,5.17625,-1.2979627847671509,3.1053428649902344,0.03847229480743408
1715093246075198700,5.18619873046875,-1.6179174184799194,2.901092529296875,-2.0562777519226074
1715093246085177900,5.196177734375,-1.2245665788650513,2.5519189834594727,-3.9885895252227783
1715093246095157200,5.2061572265625,-1.8165924549102783,1.529648780822754,-5.78828239440918
1715093246105106000,5.21610595703125,-2.8779518604278564,-0.13142967224121094,-7.155947208404541
1715093246115085000,5.2260849609375,-3.5764241218566895,-2.486204147338867,-7.837292671203613
1715093246125034000,5.236033935546875,-3.44484543800354,-5.117121696472168,-7.540166854858398
1715093246135013000,5.24601318359375,-3.752718925476074,-7.736272811889648,-6.680809020996094
1715093246144992500,5.255992431640625,-5.306732177734375,-9.763948440551758,-4.162513256072998
1715093246154941200,5.265941162109375,-6.744483947753906,-10.376773834228516,0.357120156288147
1715093246164920300,5.27592041015625,-8.853317260742188,-9.714760780334473,3.2188141345977783
1715093246174899700,5.285899658203125,-10.595393180847168,-7.370449066162109,5.616294860839844
1715093246184848400,5.295848388671875,-10.245138168334961,-4.098942756652832,7.886848449707031
1715093246194827500,5.30582763671875,-10.219467163085938,-1.3604698181152344,6.62784481048584
1715093246204807000,5.315806884765625,-7.30376672744751,1.749053955078125,7.05302095413208
1715093246214755600,5.325755615234375,-3.3613524436950684,3.4373159408569336,6.6384663581848145
1715093246224734700,5.335734619140625,-0.6265841722488403,3.5855112075805664,4.540822982788086
1715093246234714000,5.345714111328125,-0.22166991233825684,2.9605255126953125,2.441457748413086
1715093246244693200,5.355693359375,-0.05760300159454346,1.9879331588745117,1.9420026540756226
1715093246254642000,5.365641845703125,-0.02663445472717285,1.2587547302246094,1.4337193965911865
1715093246264621300,5.375621337890625,0.12974810600280762,0.8842544555664062,0.8494197130203247
1715093246274600400,5.385600341796875,0.4835113286972046,0.8209810256958008,-0.33217358589172363
1715093246284579800,5.395579833984375,0.8708723783493042,1.2114191055297852,-1.580067753791809
1715093246294528500,5.405528564453125,0.5873620510101318,2.0229530334472656,-2.4625072479248047
1715093246304507600,5.415507568359375,0.011806368827819824,2.7167367935180664,-3.1094515323638916
1715093246314487000,5.425487060546875,-0.6725790500640869,3.045628547668457,-3.6674938201904297
1715093246324435700,5.435435791015625,-1.0825865268707275,3.07177734375,-3.746762275695801
1715093246334415000,5.4454150390625,-1.6235209703445435,3.0877037048339844,-3.7382326126098633
1715093246344394200,5.455394287109375,-1.7816113233566284,3.2432146072387695,-3.640408515930176
1715093246354343000,5.465343017578125,-1.624493956565857,3.422591209411621,-3.120598793029785
1715093246364322300,5.475322265625,-1.3524391651153564,3.3410158157348633,-2.9937214851379395
1715093246374301400,5.485301513671875,-0.7437152862548828,3.3094940185546875,-2.832186698913574
1715093246384250000,5.49525,-0.04989027976989746,3.230666160583496,-2.988215923309326
1715093246394229500,5.5052294921875,0.4548461437225342,3.1068191528320312,-3.3202433586120605
1715093246404208600,5.515208740234375,0.8588836193084717,3.2118587493896484,-3.1872363090515137
1715093246414157300,5.5251572265625,1.166296124458313,3.3034114837646484,-2.9387197494506836
1715093246424136700,5.53513671875,1.3312735557556152,3.450662612915039,-2.50679874420166
1715093246434115800,5.54511572265625,1.4741322994232178,3.424351692199707,-1.8185385465621948
1715093246444064800,5.555064697265625,1.4044625759124756,3.146538734436035,-0.8064378499984741
1715093246454044000,5.5650439453125,1.1612805128097534,2.5344810485839844,0.7008099555969238
1715093246464023000,5.57502294921875,1.2530887126922607,2.2415714263916016,3.164015531539917
1715093246473972000,5.584971923828125,1.377050518989563,2.2908449172973633,5.870594024658203
1715093246483951000,5.594951171875,0.5572364330291748,1.2169723510742188,7.580848693847656
1715093246493899800,5.604899658203125,0.25062644481658936,-0.5535411834716797,8.92764949798584
1715093246503879200,5.614879150390625,-0.3301734924316406,-2.6226882934570312,9.477577209472656
1715093246513858300,5.6248583984375,-2.1050243377685547,-4.728658676147461,7.521718978881836
1715093246523837700,5.634837646484375,-3.4003586769104004,-6.828274726867676,3.964216947555542
1715093246533816800,5.64481689453125,-3.3830180168151855,-8.005977630615234,0.7209261655807495
1715093246543765500,5.654765625,-2.730213165283203,-7.778095245361328,-1.2797188758850098
1715093246553745000,5.664744873046875,0.45783114433288574,-7.449275970458984,-2.285895347595215
1715093246563724000,5.67472412109375,4.870098114013672,-4.792111396789551,-2.050394058227539
1715093246573672700,5.684672607421875,4.488707542419434,-1.7273797988891602,0.12620031833648682
1715093246583652000,5.694652099609375,4.051952362060547,-2.353757858276367,2.347383737564087
1715093246593631200,5.70463134765625,2.6866846084594727,-5.294858932495117,3.5302600860595703
1715093246603580000,5.714579833984375,1.0033690929412842,-6.087697982788086,2.7546892166137695
1715093246613559300,5.724559326171875,-3.0605130195617676,-5.614253044128418,0.4319828748703003
1715093246623538400,5.734538330078125,-6.262514114379883,-6.395744323730469,-2.5703823566436768
1715093246633487400,5.7444873046875,-6.08512020111084,-8.057124137878418,-3.710435628890991
1715093246643466500,5.754466552734375,-5.0342698097229,-6.068559646606445,-4.442488670349121
1715093246653445600,5.764445556640625,-2.8962650299072266,-1.1452465057373047,-4.188690662384033
1715093246663394600,5.77439453125,-0.7168707251548767,1.2527198791503906,-1.783380150794983
1715093246673373700,5.784373779296875,0.46303948760032654,2.390059471130371,0.2291339635848999
1715093246683353000,5.79435302734375,0.22374168038368225,3.7368268966674805,1.4020200967788696
1715093246693301800,5.8043017578125,-0.45971783995628357,5.538677215576172,1.41274094581604
1715093246703281000,5.814281005859375,-0.4930764436721802,6.858524322509766,-0.5089950561523438
1715093246713260300,5.82426025390625,-0.10598397254943848,7.187884330749512,-2.1247100830078125
1715093246723209000,5.834208984375,0.07221680879592896,5.367429733276367,-2.138085126876831
1715093246733188000,5.84418798828125,0.5459681153297424,2.1276140213012695,-4.073153018951416
1715093246743167500,5.85416748046875,1.1409239768981934,0.32917308807373047,-5.670155048370361
1715093246753116200,5.8641162109375,0.6693589091300964,-1.5528068542480469,-7.784123420715332
1715093246763095300,5.87409521484375,-0.7746573686599731,-2.8108396530151367,-9.54135513305664
1715093246773074700,5.88407470703125,-1.9603698253631592,-2.43575382232666,-9.63853931427002
1715093246783023400,5.8940234375,-1.0426020622253418,-0.21918296813964844,-7.411253929138184
1715093246793002800,5.904002685546875,0.7643951773643494,2.440749168395996,-4.417006015777588
1715093246802982000,5.91398193359375,1.9762349128723145,4.190486907958984,-2.9900295734405518
1715093246812961000,5.9239609375,2.713064670562744,5.049860000610352,-2.2868812084198
1715093246822910000,5.933909912109375,2.9334545135498047,4.637935638427734,-2.435296058654785
1715093246832889000,5.94388916015625,2.5319225788116455,4.639263153076172,-1.1995346546173096
1715093246842868500,5.953868408203125,1.9522888660430908,3.0962724685668945,-1.316765546798706
1715093246852847600,5.96384765625,0.9993114471435547,1.3055963516235352,-0.23144474625587463
1715093246862796300,5.97379638671875,-0.0266340970993042,-0.07463550567626953,1.1672396659851074
1715093246872775700,5.983775634765625,-0.8450625538825989,-1.3374710083007812,1.6767531633377075
1715093246882754800,5.9937548828125,-1.5087133646011353,-1.8534584045410156,2.3637046813964844
1715093246892703500,6.003703369140625,-1.457122564315796,-1.340662956237793,2.674163579940796
1715093246902683000,6.013682861328125,-1.2718172073364258,-0.5561208724975586,2.323575019836426
1715093246912662000,6.023662109375,-1.1660566329956055,0.3226642608642578,2.1647419929504395
1715093246922610700,6.033610595703125,-0.7939895987510681,1.0183191299438477,2.136714220046997
1715093246932590000,6.043590087890625,-0.3357415795326233,1.4430103302001953,2.0416972637176514
1715093246942569200,6.0535693359375,-0.010967552661895752,1.6787395477294922,2.0163233280181885
1715093246952518100,6.06351806640625,0.11277949810028076,1.778696060180664,2.2329070568084717
1715093246962497300,6.073497314453125,0.0804673433303833,1.7505598068237305,2.8065505027770996
1715093246972446000,6.083446044921875,0.1337580680847168,1.6832218170166016,3.1036739349365234
1715093246982425300,6.09342529296875,-0.15509867668151855,1.494924545288086,3.2817137241363525
1715093246992404500,6.103404541015625,-0.5965409278869629,1.232813835144043,3.7108311653137207
1715093247002353200,6.113353271484375,-0.6412891149520874,0.8840484619140625,3.7408030033111572
1715093247012332500,6.12333251953125,-0.347861647605896,0.36899280548095703,3.5067508220672607
1715093247022311700,6.133311767578125,-0.16668438911437988,0.016939163208007812,3.1920604705810547
1715093247032260400,6.14326025390625,0.20357275009155273,-0.15812206268310547,3.083683490753174
1715093247042239700,6.15323974609375,0.9569239616394043,-0.26146984100341797,2.558671474456787
1715093247052219000,6.163218994140625,2.2291080951690674,-0.2842531204223633,1.731275200843811
1715093247062167600,6.17316748046875,3.7304391860961914,0.10248279571533203,1.4713389873504639
1715093247072147000,6.18314697265625,5.432688236236572,0.8425254821777344,1.041675329208374
1715093247082126000,6.1931259765625,7.206297874450684,1.915853500366211,0.9438736438751221
1715093247092105500,6.20310546875,7.641356468200684,2.454941749572754,1.0960420370101929
1715093247102054100,6.21305419921875,7.3551483154296875,2.523036003112793,0.2869812250137329
1715093247112033300,6.223033203125,5.655703544616699,1.3572196960449219,-0.33637675642967224
1715093247122012700,6.2330126953125,3.2243480682373047,-0.6070089340209961,-0.40525075793266296
1715093247131991800,6.24299169921875,1.6617183685302734,-2.388005256652832,-0.2592727839946747
1715093247141940700,6.252940673828125,1.2539777755737305,-3.5505237579345703,-0.18778672814369202
1715093247151919900,6.262919921875,2.3230042457580566,-4.102295875549316,-0.3546193540096283
1715093247161899000,6.27289892578125,3.2009224891662598,-3.8850784301757812,-0.2035263478755951
1715093247171848000,6.282847900390625,3.1741065979003906,-2.693683624267578,0.8457479476928711
1715093247181827000,6.2928271484375,1.943373441696167,-0.9583358764648438,2.0366051197052
1715093247191806500,6.302806396484375,1.2574882507324219,0.03866386413574219,2.463210344314575
1715093247201755100,6.312755126953125,1.6692135334014893,1.1468334197998047,3.3055450916290283
1715093247211734300,6.322734375,1.7545195817947388,2.2546491622924805,3.2048449516296387
1715093247221713700,6.332713623046875,0.5370789766311646,2.4577255249023438,1.9396612644195557
1715093247231662300,6.342662353515625,0.042838454246520996,2.1033878326416016,0.04027983546257019
1715093247241641500,6.352641357421875,-0.1884443759918213,1.607386589050293,-1.5188318490982056
1715093247251620900,6.362620849609375,-0.8083318471908569,0.5828781127929688,-2.895691394805908
1715093247261569500,6.372569580078125,-1.8643875122070312,-0.6191835403442383,-4.598124027252197
1715093247271548700,6.382548583984375,-3.4828085899353027,-2.4801759719848633,-6.143918514251709
1715093247281528000,6.392528076171875,-4.687532901763916,-4.5755815505981445,-6.449131488800049
1715093247291476700,6.402476806640625,-5.877387523651123,-5.6240386962890625,-6.622069358825684
1715093247301456100,6.4124560546875,-6.845776081085205,-7.659457206726074,-5.28462028503418
1715093247311435300,6.422435302734375,-6.539684295654297,-9.495375633239746,-0.9023522138595581
1715093247321384000,6.432384033203125,-6.169201374053955,-10.100605964660645,2.8052022457122803
1715093247331363300,6.44236328125,-6.741946697235107,-9.527393341064453,3.8616271018981934
1715093247341312000,6.45231201171875,-7.747705459594727,-7.704519271850586,5.872690677642822
1715093247351291100,6.462291015625,-7.149602890014648,-4.133980751037598,9.727810859680176
1715093247361270500,6.4722705078125,-6.065951347351074,-0.5709953308105469,8.205859184265137
1715093247371249700,6.482249755859375,-4.156749248504639,2.5648183822631836,6.511196136474609
1715093247381198300,6.4921982421875,-1.3552918434143066,4.155118942260742,4.165040493011475
1715093247391177700,6.502177734375,-0.27141273021698,4.504062652587891,3.0619707107543945
1715093247401156900,6.512156982421875,-0.6882023811340332,3.4486637115478516,2.623079538345337
1715093247411136300,6.52213623046875,-1.435890555381775,2.182741165161133,1.752690076828003
1715093247421085000,6.5320849609375,-1.2555170059204102,1.7983360290527344,1.1556684970855713
1715093247431064000,6.54206396484375,-0.1627260446548462,1.8007497787475586,0.1940833330154419
1715093247441043500,6.55204345703125,1.0837297439575195,1.8937997817993164,-0.7456483840942383
1715093247450992000,6.5619921875,1.901728630065918,2.4093151092529297,-1.6040849685668945
1715093247460971300,6.57197119140625,1.755530834197998,3.177645683288574,-2.434508800506592
1715093247470950700,6.58195068359375,1.0582456588745117,3.6228437423706055,-3.272139549255371
1715093247480899300,6.5918994140625,0.2460230588912964,3.6590728759765625,-3.9382216930389404
1715093247490878700,6.601878662109375,-0.30170392990112305,3.3491268157958984,-4.3162031173706055
1715093247500857900,6.61185791015625,-0.5674415826797485,3.0828371047973633,-4.299617767333984
1715093247510806500,6.621806640625,-0.39837074279785156,2.789849281311035,-4.38802433013916
1715093247520786000,6.631785888671875,-0.9397517442703247,2.5136070251464844,-4.676705360412598
1715093247530765000,6.64176513671875,-0.8941032886505127,2.66292667388916,-4.361608505249023
1715093247540713700,6.651713623046875,-0.16292190551757812,2.688047409057617,-4.336706638336182
1715093247550693000,6.661693115234375,0.5609748363494873,2.716719627380371,-4.405773162841797
1715093247560672300,6.67167236328125,1.1582201719284058,2.55734920501709,-4.171916961669922
1715093247570621000,6.681620849609375,1.4332048892974854,2.2911605834960938,-3.417527437210083
1715093247580600300,6.691600341796875,1.4814544916152954,1.9159631729125977,-2.4995126724243164
1715093247590579500,6.701579345703125,1.3009605407714844,1.2435417175292969,-1.3591711521148682
1715093247600528400,6.7115283203125,0.8154952526092529,0.6545381546020508,0.08399403095245361
1715093247610507500,6.721507568359375,0.38463103771209717,0.6212263107299805,1.788089394569397
1715093247620486700,6.731486572265625,0.2306804656982422,1.029561996459961,4.442468643188477
1715093247630435600,6.741435546875,-0.18507838249206543,1.157393455505371,6.903843879699707
1715093247640414700,6.751414794921875,-0.8029451370239258,0.21759605407714844,8.089033126831055
1715093247650394000,6.76139404296875,-0.6539368629455566,-1.054509162902832,8.539046287536621
1715093247660373200,6.771373291015625,-0.4251154661178589,-2.4418439865112305,7.87203311920166
1715093247670322000,6.781322021484375,-0.11311209201812744,-3.6516799926757812,6.31776237487793
1715093247680301300,6.79130126953125,-0.553342342376709,-4.726410865783691,3.435349941253662
1715093247690280400,6.801280517578125,-1.9211021661758423,-5.870121002197266,0.1595982313156128
1715093247700259800,6.811259765625,-2.0250561237335205,-6.765295028686523,-2.4083480834960938
1715093247710208500,6.82120849609375,1.6075050830841064,-6.3048906326293945,-4.436733245849609
1715093247720187600,6.831187744140625,5.027791500091553,-3.144749641418457,-4.615922451019287
1715093247730167000,6.8411669921875,6.911859512329102,1.4634428024291992,-1.2974220514297485
1715093247740115700,6.85111572265625,3.7808327674865723,3.596238136291504,3.1329550743103027
1715093247750094800,6.8610947265625,0.6360846161842346,1.8899545669555664,5.333247184753418
1715093247760074200,6.87107421875,0.3311382532119751,0.2259378433227539,5.692849159240723
1715093247770023000,6.88102294921875,-0.4925804138183594,-1.1369800567626953,6.000916481018066
1715093247780002000,6.891001953125,-6.411120414733887,-5.069394111633301,3.326451063156128
1715093247789981400,6.9009814453125,-7.755301475524902,-9.59056282043457,0.47916948795318604
1715093247799930000,6.91093017578125,-7.7285308837890625,-11.808403015136719,-2.8462789058685303
1715093247809909500,6.920909423828125,-5.135014057159424,-8.43637466430664,-5.491477012634277
1715093247819888600,6.930888671875,-0.9708689451217651,-2.4159164428710938,-3.9831466674804688
1715093247829837300,6.94083740234375,1.1133075952529907,0.6108312606811523,-2.1052370071411133
1715093247839816700,6.950816650390625,2.2911603450775146,3.1956701278686523,-0.9715194702148438
1715093247849795800,6.9607958984375,2.2236249446868896,5.67692756652832,-1.8757832050323486
1715093247859744500,6.97074462890625,1.5518996715545654,6.904385566711426,-3.643242597579956
1715093247869724000,6.980723876953125,1.5180187225341797,6.687143325805664,-5.460057258605957
1715093247879703000,6.990703125,2.014209270477295,5.599674224853516,-5.427253723144531
1715093247889651700,7.000651611328125,2.0303335189819336,2.5417709350585938,-6.151803016662598
1715093247899631000,7.010631103515625,1.8036824464797974,-0.3380470275878906,-6.490851402282715
1715093247909610200,7.0206103515625,1.3670039176940918,-2.5001707077026367,-5.610691547393799
1715093247919559000,7.030558837890625,0.23311644792556763,-3.9753284454345703,-5.3484368324279785
1715093247929538300,7.040538330078125,-1.4785892963409424,-3.232541084289551,-5.185896396636963
1715093247939517400,7.050517333984375,-1.6300917863845825,-1.3608417510986328,-4.437302112579346
1715093247949466400,7.06046630859375,-0.04737168550491333,0.35823822021484375,-3.876413345336914
1715093247959445500,7.070445556640625,0.9359715580940247,1.7231559753417969,-3.3080639839172363
1715093247969424600,7.080424560546875,1.7808547019958496,2.6688289642333984,-2.9487040042877197
1715093247979404000,7.090404052734375,2.3448050022125244,3.4473752975463867,-2.7161569595336914
1715093247989352700,7.100352783203125,2.0673208236694336,3.3379039764404297,-3.2173261642456055
1715093247999332000,7.11033203125,1.1271710395812988,2.8191823959350586,-3.0776305198669434
1715093248009311200,7.120311279296875,0.014739274978637695,2.265871047973633,-1.6848971843719482
1715093248019260000,7.130260009765625,-1.2144007682800293,1.2109813690185547,-0.8218026161193848
1715093248029239300,7.1402392578125,-1.663673758506775,0.22359371185302734,-0.03986319899559021
1715093248039218400,7.150218505859375,-1.2570536136627197,-0.48854732513427734,0.8611382246017456
1715093248049167000,7.1601669921875,-0.4591250419616699,-0.723027229309082,1.8512494564056396
1715093248059146500,7.170146484375,-0.014910459518432617,-0.7194700241088867,2.384406089782715
1715093248069125600,7.180125732421875,0.0965956449508667,-0.1802520751953125,2.7496955394744873
1715093248079074300,7.19007421875,0.1941828727722168,0.6445846557617188,2.7357466220855713
1715093248089053700,7.2000537109375,0.045841217041015625,1.4148893356323242,2.8905909061431885
1715093248099032800,7.21003271484375,-0.027636170387268066,1.9943056106567383,2.83129620552063
1715093248108981800,7.219981689453125,-0.03163480758666992,2.3450746536254883,2.6981968879699707
1715093248118961000,7.2299609375,-0.10898113250732422,2.3410520553588867,2.482496500015259
1715093248128940000,7.23993994140625,-0.16998982429504395,2.227010726928711,2.675596237182617
1715093248138889000,7.249888916015625,0.14103662967681885,2.0272321701049805,2.8497567176818848
1715093248148868000,7.2598681640625,0.0692061185836792,1.578291893005371,3.0168542861938477
1715093248158847500,7.269847412109375,-0.13294363021850586,1.0152196884155273,3.2443466186523438
1715093248168796200,7.279796142578125,0.44690918922424316,0.6002674102783203,3.0172274112701416
1715093248178775300,7.289775390625,1.1557741165161133,0.3134183883666992,2.3755810260772705
1715093248188754700,7.299754638671875,1.9470045566558838,0.3061866760253906,1.8985826969146729
1715093248198703400,7.309703369140625,3.7843565940856934,0.6034374237060547,0.8649227023124695
1715093248208682500,7.3196826171875,5.691194534301758,1.0140695571899414,0.074888214468956
1715093248218662000,7.329661865234375,7.591614723205566,1.442337989807129,-0.06815502047538757
1715093248228641000,7.33964111328125,7.970152854919434,1.7876462936401367,-0.34068337082862854
1715093248238589700,7.349589599609375,7.250159740447998,1.820648193359375,0.01234358549118042
1715093248248569000,7.359569091796875,5.137755393981934,1.293543815612793,0.7797963619232178
1715093248258548200,7.36954833984375,4.0066633224487305,-0.3082876205444336,1.0156819820404053
1715093248268527600,7.379527587890625,3.663267135620117,-2.454094886779785,1.0906822681427002
1715093248278476300,7.389476318359375,3.261056423187256,-4.004703521728516,1.2191669940948486
1715093248288455400,7.399455322265625,3.92218279838562,-4.673147201538086,1.4341709613800049
1715093248298434800,7.409434814453125,5.262314796447754,-3.9138431549072266,2.3490138053894043
1715093248308383500,7.419383544921875,3.8584728240966797,-2.5462989807128906,3.833669900894165
1715093248318362600,7.429362548828125,1.2839722633361816,-1.7881479263305664,5.059988498687744
1715093248328342000,7.439342041015625,0.06467723846435547,-0.9841518402099609,5.395297527313232
1715093248338290700,7.449290771484375,-1.4398980140686035,0.07232666015625,5.457764625549316
1715093248348270000,7.45927001953125,-2.877251625061035,0.9108190536499023,4.1463422775268555
1715093248358249200,7.469249267578125,-2.812227725982666,1.9648752212524414,1.5911452770233154
1715093248368198000,7.479197998046875,-1.553096890449524,2.3722591400146484,-1.5521537065505981
1715093248378177300,7.48917724609375,-0.928654670715332,1.8288698196411133,-4.450018405914307
1715093248388156400,7.499156494140625,-1.0882234573364258,0.5993480682373047,-7.011806964874268
1715093248398105000,7.50910498046875,-1.5940871238708496,-1.3838682174682617,-9.327607154846191
1715093248408084500,7.51908447265625,-1.9777567386627197,-4.036135673522949,-11.088885307312012
1715093248418063600,7.529063720703125,-2.9653537273406982,-6.399862289428711,-11.183679580688477
1715093248428012300,7.53901220703125,-3.928414821624756,-8.574174880981445,-10.535890579223633
1715093248437991700,7.54899169921875,-4.349946022033691,-9.473721504211426,-7.302362442016602
1715093248447970800,7.558970703125,-4.651535987854004,-8.988454818725586,-1.2193758487701416
1715093248457919700,7.568919677734375,-6.351034164428711,-7.561086654663086,2.7408885955810547
1715093248467899000,7.57889892578125,-8.670003890991211,-5.239123344421387,5.267274856567383
1715093248477847600,7.58884765625,-10.474706649780273,-2.282428741455078,8.226301193237305
1715093248487827000,7.598826904296875,-10.21220588684082,-0.432342529296875,10.142029762268066
1715093248497806000,7.60880615234375,-7.813127517700195,1.6212644577026367,11.025738716125488
1715093248507785500,7.618785400390625,-4.095174789428711,3.0950307846069336,9.387676239013672
1715093248517734100,7.628734130859375,-2.304046154022217,3.650859832763672,6.726596355438232
1715093248527713300,7.63871337890625,-1.0667335987091064,3.0648889541625977,4.202360153198242
1715093248537692700,7.648692626953125,-0.1334899663925171,2.1827011108398438,1.9196994304656982
1715093248547671800,7.658671875,0.004742264747619629,1.3373146057128906,0.5702815055847168
1715093248557620500,7.668620361328125,0.20420551300048828,0.6837310791015625,-0.45599544048309326
1715093248567599900,7.678599853515625,0.5736637115478516,0.6348552703857422,-1.3599201440811157
1715093248577579000,7.6885791015625,0.9067968130111694,0.7910480499267578,-2.3507442474365234
1715093248587527700,7.698527587890625,0.9081265926361084,1.5736188888549805,-2.727527141571045
1715093248597507000,7.708507080078125,0.2639700174331665,2.485743522644043,-2.7475504875183105
1715093248607486200,7.718486328125,-0.5660663843154907,2.9809188842773438,-2.797342300415039
1715093248617435100,7.72843505859375,-1.1890568733215332,3.016918182373047,-2.835811138153076
1715093248627414300,7.738414306640625,-1.8733704090118408,2.7928857803344727,-2.971372127532959
1715093248637393400,7.748393310546875,-2.1835825443267822,2.6247711181640625,-3.076125144958496
1715093248647342300,7.75834228515625,-2.195892810821533,2.7212772369384766,-3.0633246898651123
1715093248657321500,7.768321533203125,-1.9797143936157227,2.810601234436035,-3.1488113403320312
1715093248667300600,7.778300537109375,-1.2700868844985962,2.9604644775390625,-2.8227994441986084
1715093248677249500,7.78824951171875,-0.5434842109680176,3.0465993881225586,-2.760237693786621
1715093248687228700,7.798228759765625,0.3961852788925171,2.920445442199707,-2.8511364459991455
1715093248697208000,7.8082080078125,1.223671555519104,2.830066680908203,-2.4081335067749023
1715093248707156700,7.81815673828125,1.663877010345459,2.600170135498047,-1.7055084705352783
1715093248717136000,7.828135986328125,1.6442030668258667,2.2214717864990234,-0.8837780952453613
1715093248727115300,7.838115234375,1.3327195644378662,1.587076187133789,0.39076662063598633
1715093248737064000,7.84806396484375,1.1527409553527832,1.6157121658325195,2.562411308288574
1715093248747043000,7.85804296875,0.727886438369751,2.160797119140625,4.9329328536987305
1715093248757022500,7.8680224609375,0.21934199333190918,1.628021240234375,6.39653205871582
1715093248766971100,7.87797119140625,-0.352239727973938,-0.04858684539794922,7.346654415130615
1715093248776950300,7.8879501953125,0.006259441375732422,-1.876582145690918,7.766904354095459
1715093248786929700,7.8979296875,0.21505796909332275,-3.6137800216674805,6.965456008911133
1715093248796878300,7.90787841796875,0.0011718273162841797,-5.201213836669922,5.444043159484863
1715093248806857700,7.917857666015625,-1.3046720027923584,-6.634468078613281,3.0560216903686523
1715093248816836900,7.9278369140625,-2.8074307441711426,-7.723891258239746,-0.2164783477783203
1715093248826816000,7.93781591796875,-0.22988879680633545,-8.014189720153809,-2.872546911239624
1715093248836795400,7.94779541015625,4.9492926597595215,-5.893073081970215,-4.192795753479004
1715093248846744000,7.957744140625,4.744738578796387,-0.7738637924194336,-2.5463531017303467
1715093248856723500,7.967723388671875,4.526919841766357,2.9766855239868164,0.06750738620758057
1715093248866702600,7.97770263671875,1.4636461734771729,1.5879802703857422,3.290172815322876
1715093248876651300,7.9876513671875,0.17550349235534668,-1.3664608001708984,4.326996803283691
1715093248886630700,7.997630615234375,-0.5444443821907043,-1.8490333557128906,3.4019293785095215
1715093248896609800,8.00760986328125,-6.577373504638672,-4.3774614334106445,1.0043389797210693
1715093248906558500,8.017558349609375,-7.6603522300720215,-9.169376373291016,-0.6207789182662964
1715093248916537900,8.027537841796875,-8.044425010681152,-11.460858345031738,-2.0736289024353027
1715093248926517000,8.03751708984375,-4.994535446166992,-8.68516731262207,-4.918464660644531
1715093248936465700,8.047465576171875,-2.0284016132354736,-2.773312568664551,-4.892764568328857
1715093248946445000,8.057445068359375,-0.23608773946762085,0.2277069091796875,-1.9153119325637817
1715093248956424200,8.067424072265625,1.7385070323944092,2.477071762084961,0.6482125520706177
1715093248966373000,8.077373046875,2.184736728668213,4.711516380310059,0.6340231895446777
1715093248976352300,8.087352294921875,1.3551983833312988,6.093457221984863,-1.183503270149231
1715093248986331400,8.097331298828125,0.660630464553833,6.849913597106934,-2.773327350616455
1715093248996280300,8.1072802734375,1.0367923974990845,6.178958892822266,-3.8617196083068848
1715093249006259500,8.117259521484375,1.9754960536956787,4.201603889465332,-4.4726948738098145
1715093249016238800,8.12723876953125,1.891904354095459,1.2843313217163086,-5.450782775878906
1715093249026187500,8.1371875,1.2106478214263916,-1.6785659790039062,-6.019095420837402
1715093249036166700,8.147166748046875,0.09824621677398682,-3.5275440216064453,-5.379115104675293
1715093249046146000,8.15714599609375,-1.6663222312927246,-3.8120899200439453,-5.702144145965576
1715093249056094700,8.1670947265625,-2.1540424823760986,-2.0491151809692383,-6.882499694824219
1715093249066073900,8.177073974609375,-0.541375994682312,0.5137529373168945,-5.261282920837402
1715093249076022800,8.187022705078125,1.2020050287246704,2.5816335678100586,-4.139547348022461
1715093249086002000,8.197001953125,2.4513559341430664,3.596524238586426,-3.9424333572387695
1715093249095981000,8.20698095703125,3.3386693000793457,4.232095718383789,-3.423503875732422
1715093249105960400,8.21696044921875,3.1898510456085205,4.088140487670898,-3.2010903358459473
1715093249115939600,8.226939697265625,2.2199554443359375,3.50539493560791,-2.3524882793426514
1715093249125888300,8.23688818359375,0.7332233190536499,2.5008888244628906,-1.050517201423645
1715093249135867600,8.24686767578125,-0.2778555154800415,1.2969684600830078,0.39401859045028687
1715093249145846800,8.2568466796875,-0.5787746906280518,0.2447671890258789,1.6325336694717407
1715093249155795700,8.266795654296875,-0.6209698915481567,-0.7294445037841797,2.2263083457946777
1715093249165774800,8.27677490234375,-0.4959932565689087,-1.3726282119750977,2.8611409664154053
1715093249175754000,8.28675390625,-0.3839658498764038,-1.3543119430541992,3.1102495193481445
1715093249185703000,8.296702880859375,-0.29624855518341064,-0.519282341003418,2.9335851669311523
1715093249195682000,8.30668212890625,-0.1485062837600708,0.6258525848388672,2.7340965270996094
1715093249205661400,8.316661376953125,0.035936594009399414,1.4854860305786133,2.5163774490356445
1715093249215610000,8.326610107421875,0.19659721851348877,1.9648990631103516,2.287477970123291
1715093249225589200,8.33658935546875,0.35854268074035645,2.192009925842285,2.3656973838806152
1715093249235568600,8.346568603515625,0.7676903009414673,2.347336769104004,2.5812482833862305
1715093249245517300,8.356517333984375,1.0502341985702515,2.466914176940918,2.8829028606414795
1715093249255496400,8.366496337890625,1.2582948207855225,2.3187971115112305,3.347672462463379
1715093249265475800,8.376475830078125,1.1599631309509277,1.938807487487793,3.7556419372558594
1715093249275424500,8.386424560546875,0.9383237361907959,1.4890661239624023,4.210787773132324
1715093249285403600,8.396403564453125,1.240664005279541,1.0548830032348633,4.061079025268555
1715093249295383000,8.406383056640625,1.8392586708068848,0.7711706161499023,4.105380058288574
1715093249305331700,8.416331787109375,2.9762942790985107,0.7573947906494141,4.013267993927002
1715093249315311000,8.42631103515625,4.356503963470459,0.9204549789428711,2.9773612022399902
1715093249325290200,8.436290283203125,5.79398250579834,1.0186691284179688,1.8671917915344238
1715093249335239000,8.446239013671875,6.666377067565918,0.7482099533081055,0.7749589681625366
1715093249345218300,8.45621826171875,6.4732184410095215,-0.0029888153076171875,-0.9288311004638672
1715093249355197400,8.466197509765625,5.183102607727051,-0.8583869934082031,-1.1243308782577515
1715093249365146000,8.47614599609375,2.8741233348846436,-1.7055225372314453,-0.2693638205528259
1715093249375125500,8.48612548828125,1.50742769241333,-2.208547592163086,0.20381200313568115
1715093249385104600,8.496104736328125,1.771456241607666,-2.890477180480957,0.4291037321090698
1715093249395084000,8.506083984375,2.8636937141418457,-3.052633285522461,0.577302873134613
1715093249405063200,8.516063232421875,3.9562246799468994,-2.336688995361328,1.695878505706787
1715093249415011800,8.52601171875,4.302570343017578,-1.1007747650146484,3.160618305206299
1715093249424991200,8.5359912109375,3.5943851470947266,-0.07206153869628906,4.191364288330078
1715093249434970400,8.545970458984375,2.275221824645996,0.45652008056640625,4.64169454574585
1715093249444919000,8.5559189453125,1.186168909072876,0.9112167358398438,4.705074310302734
1715093249454898400,8.5658984375,-0.028705358505249023,1.468374252319336,4.227100372314453
1715093249464877600,8.575877685546875,-0.4620208740234375,1.4727344512939453,1.9430959224700928
1715093249474826500,8.585826416015625,-0.1693345308303833,1.3329153060913086,-0.8074610233306885
1715093249484805600,8.5958056640625,0.07536888122558594,1.0064964294433594,-3.1569583415985107
1715093249494784800,8.60578466796875,-0.31629931926727295,0.2109994888305664,-5.755510330200195
1715093249504733700,8.615733642578125,-1.3660472631454468,-1.129974365234375,-8.385506629943848
1715093249514712800,8.625712890625,-2.4903886318206787,-3.401381492614746,-11.027953147888184
1715093249524692000,8.63569189453125,-3.2280919551849365,-5.786821365356445,-12.419997215270996
1715093249534641000,8.645640869140625,-3.980123281478882,-7.478187561035156,-12.199657440185547
1715093249544620000,8.6556201171875,-4.430323600769043,-9.087244987487793,-11.185979843139648
1715093249554599400,8.665599365234375,-4.900943756103516,-9.61489486694336,-6.5040202140808105
1715093249564548000,8.675548095703125,-5.678102016448975,-8.537495613098145,-0.4364125728607178
1715093249574527200,8.68552734375,-7.153330326080322,-5.0604095458984375,5.476809501647949
1715093249584506600,8.695506591796875,-8.70807933807373,-3.296444892883301,6.82333517074585
1715093249594455300,8.705455322265625,-8.395238876342773,-2.967890739440918,7.871859073638916
1715093249604434400,8.715434326171875,-8.283465385437012,-1.8396825790405273,10.312713623046875
1715093249614413800,8.725413818359375,-7.438164234161377,-0.23879623413085938,10.474288940429688
1715093249624362500,8.735362548828125,-5.030652046203613,0.9716730117797852,7.535429954528809
1715093249634341600,8.745341552734375,-2.6458497047424316,1.8847570419311523,6.245827674865723
1715093249644290600,8.75529052734375,-1.6347230672836304,1.3103857040405273,4.140650749206543
1715093249654269700,8.765269775390625,-0.8427579402923584,0.4232187271118164,1.975810170173645
1715093249664249000,8.7752490234375,0.2961667776107788,0.3365325927734375,0.7022162675857544
1715093249674228200,8.785228271484375,1.4228928089141846,0.8412847518920898,-0.6338187456130981
1715093249684207400,8.795207275390625,1.6303960084915161,1.3120441436767578,-1.1720995903015137
1715093249694156300,8.80515625,1.6648491621017456,1.7866830825805664,-1.952850580215454
1715093249704135400,8.815135498046875,1.188086986541748,2.6012868881225586,-2.6790807247161865
1715093249714114800,8.82511474609375,0.22748804092407227,3.284961700439453,-3.1817286014556885
1715093249724063500,8.8350634765625,-0.6963769197463989,3.7105350494384766,-3.5225934982299805
1715093249734042600,8.845042724609375,-1.2381699085235596,3.8897485733032227,-3.7197113037109375
1715093249744022000,8.85502197265625,-1.50449538230896,4.02338981628418,-3.8282790184020996
1715093249753970700,8.864970703125,-1.6869007349014282,4.111176490783691,-3.9681830406188965
1715093249763949800,8.87494970703125,-1.6839803457260132,4.180853843688965,-4.053021430969238
1715093249773929200,8.88492919921875,-1.2515478134155273,4.194512367248535,-4.090743064880371
1715093249783878000,8.8948779296875,-0.3452486991882324,4.220909118652344,-4.109776496887207
1715093249793857000,8.90485693359375,0.584906816482544,4.044045448303223,-4.240874290466309
1715093249803836400,8.91483642578125,1.487021565437317,3.6750383377075195,-4.26078462600708
1715093249813785000,8.92478515625,1.9859904050827026,3.3325252532958984,-3.5770554542541504
1715093249823764500,8.934764404296875,2.148134231567383,2.984600067138672,-2.6667237281799316
1715093249833743600,8.94474365234375,2.056093215942383,2.3802499771118164,-1.4653759002685547
1715093249843692300,8.9546923828125,1.9883131980895996,1.5056991577148438,0.00982356071472168
1715093249853671700,8.964671630859375,1.689336895942688,0.9175491333007812,2.173940658569336
1715093249863650800,8.97465087890625,1.2593861818313599,0.5943527221679688,4.753267288208008
1715093249873599500,8.984599609375,0.6112608909606934,-0.544102668762207,6.743884086608887
1715093249883579000,8.994578857421875,-0.33707094192504883,-2.304865837097168,8.728793144226074
1715093249893558000,9.00455810546875,-0.41441214084625244,-3.9276676177978516,10.310856819152832
1715093249903506700,9.014506591796875,-0.8526538610458374,-4.984798431396484,9.396404266357422
1715093249913486000,9.024486083984375,-1.4958714246749878,-4.768843650817871,5.910492897033691
1715093249923465200,9.03446533203125,-2.546377658843994,-3.643260955810547,2.9938015937805176
1715093249933414000,9.044413818359375,-2.0656681060791016,-3.208118438720703,1.003890872001648
1715093249943393300,9.054393310546875,1.4487491846084595,-3.0902976989746094,-0.12371504306793213
1715093249953372400,9.064372314453125,4.420008659362793,-3.6735782623291016,-2.052968978881836
1715093249963351800,9.074351806640625,3.41245698928833,-3.6441173553466797,-1.0409983396530151
1715093249973300500,9.084300537109375,2.183436393737793,-4.448942184448242,1.9626712799072266
1715093249983279600,9.094279541015625,1.5872386693954468,-7.1687164306640625,2.7482104301452637
1715093249993259000,9.104259033203125,1.0460577011108398,-7.979233741760254,0.8448233604431152
1715093250003238100,9.114238037109375,-3.597778797149658,-5.684925079345703,-0.6553876399993896
1715093250013187000,9.12418701171875,-7.44984769821167,-4.963227272033691,-2.913142204284668
1715093250023166200,9.134166259765625,-5.157862663269043,-7.381731033325195,-3.8756818771362305
1715093250033145300,9.144145263671875,-4.6684746742248535,-5.729493141174316,-6.378374099731445
1715093250043094300,9.15409423828125,-2.5803534984588623,-1.2949838638305664,-6.102291584014893
1715093250053073400,9.164073486328125,0.23720526695251465,1.250279426574707,-3.001614809036255
1715093250063052800,9.174052734375,1.4837921857833862,2.4761486053466797,-0.16861438751220703
1715093250073001500,9.18400146484375,1.2056646347045898,4.017722129821777,1.8622827529907227
1715093250082980600,9.193980712890625,0.36167624592781067,5.5807600021362305,1.475738525390625
1715093250092960000,9.2039599609375,-0.6724026203155518,6.2631683349609375,-0.48009490966796875
1715093250102908700,9.21390869140625,-0.5987003445625305,5.327474594116211,-1.49009370803833
1715093250112887800,9.2238876953125,0.11712706089019775,2.7939462661743164,-2.220494270324707
1715093250122867200,9.2338671875,0.5619946122169495,0.055995941162109375,-4.079422950744629
1715093250132816000,9.24381591796875,1.2655725479125977,-2.404937744140625,-5.511296272277832
1715093250142795000,9.253794921875,1.1657328605651855,-4.17170524597168,-6.41790771484375
1715093250152774400,9.2637744140625,0.19235625863075256,-4.027007102966309,-6.955476760864258
1715093250162723000,9.27372314453125,-0.988288164138794,-1.389155387878418,-5.985156059265137
1715093250172702500,9.283702392578125,-0.8049763441085815,1.4517316818237305,-3.6902015209198
1715093250182681600,9.293681640625,-0.010301202535629272,3.15297794342041,-2.5156447887420654
1715093250192630300,9.30363037109375,0.7223674058914185,4.038710594177246,-2.1774191856384277
1715093250202609700,9.313609619140625,1.1165943145751953,4.167000770568848,-2.3171072006225586
1715093250212558300,9.323558349609375,1.2175313234329224,3.5733518600463867,-2.3976664543151855
1715093250222537500,9.333537353515625,0.994683027267456,2.7351417541503906,-2.3231863975524902
1715093250232516900,9.343516845703125,0.5669389963150024,1.6941328048706055,-2.180051803588867
1715093250242496000,9.35349609375,-0.04924321174621582,0.5889291763305664,-1.680402159690857
1715093250252475400,9.363475341796875,-0.7956957817077637,-0.5284242630004883,-1.3535456657409668
1715093250262424000,9.373424072265625,-1.5672017335891724,-1.2646369934082031,-0.9082150459289551
1715093250272403200,9.3834033203125,-1.8299355506896973,-1.478114128112793,-0.07930415868759155
1715093250282382600,9.393382568359375,-1.7360985279083252,-1.254312515258789,0.636997640132904
1715093250292331300,9.403331298828125,-1.5809147357940674,-0.8169536590576172,1.2012858390808105
1715093250302310400,9.413310302734375,-1.3377161026000977,0.3248882293701172,1.7397112846374512
1715093250312289800,9.423289794921875,-0.9373059868812561,1.032327651977539,1.979590892791748
1715093250322238500,9.433238525390625,-0.3696725368499756,1.624298095703125,2.1725125312805176
1715093250332217600,9.443217529296875,0.19240522384643555,2.075511932373047,2.386564254760742
1715093250342197000,9.453197021484375,0.8254311084747314,2.322934150695801,2.6011312007904053
1715093250352145700,9.463145751953125,1.3799402713775635,2.3945436477661133,2.6440045833587646
1715093250362125000,9.473125,1.629589319229126,2.5902671813964844,2.638178825378418
1715093250372104200,9.483104248046875,1.6433542966842651,2.358454704284668,2.8412652015686035
1715093250382052900,9.493052978515625,1.2788652181625366,2.1674461364746094,2.7857398986816406
1715093250392032300,9.5030322265625,1.122302532196045,1.915450096130371,2.924076795578003
1715093250402011400,9.513011474609375,1.1682212352752686,1.4203405380249023,2.960432291030884
1715093250411960000,9.5229599609375,1.0376079082489014,0.9877538681030273,2.9861738681793213
1715093250421939500,9.532939453125,1.4730205535888672,0.6886377334594727,2.905390739440918
1715093250431918600,9.542918701171875,1.7967979907989502,0.5275917053222656,2.6719024181365967
1715093250441867300,9.5528671875,2.585733652114868,0.4840402603149414,2.3780367374420166
1715093250451846700,9.5628466796875,3.7185397148132324,0.4315958023071289,2.6654398441314697
1715093250461825800,9.57282568359375,4.978137493133545,0.2623262405395508,2.670387029647827
1715093250471774700,9.582774658203125,6.411989212036133,-0.28744983673095703,1.8547698259353638
1715093250481753900,9.59275390625,6.304676055908203,-0.9808940887451172,0.2723519206047058
1715093250491733000,9.60273291015625,4.135557174682617,-1.502655029296875,-0.49884670972824097
1715093250501682000,9.612681884765625,1.7576520442962646,-2.0114974975585938,-0.09119731187820435
1715093250511661000,9.6226611328125,0.9750659465789795,-2.4806880950927734,0.06112098693847656
1715093250521640400,9.632640380859375,1.7541351318359375,-2.625067710876465,0.14676183462142944
1715093250531619600,9.64261962890625,3.0201995372772217,-2.702707290649414,0.4576273560523987
1715093250541568300,9.652568359375,4.223349571228027,-2.674288749694824,1.224574089050293
1715093250551547600,9.662547607421875,4.701516628265381,-1.541935920715332,2.591733455657959
1715093250561526800,9.67252685546875,4.041194438934326,-0.16405200958251953,4.012833595275879
1715093250571506200,9.682506103515625,3.2146530151367188,0.8129119873046875,5.181162357330322
1715093250581454800,9.692454833984375,3.082122802734375,1.5381574630737305,5.850925922393799
1715093250591434000,9.70243408203125,2.816448450088501,2.44577693939209,5.3287353515625
1715093250601413400,9.712413330078125,0.7725911140441895,2.478297233581543,3.7488272190093994
1715093250611362000,9.722362060546875,-0.3283989429473877,2.3589296340942383,1.8360618352890015
1715093250621341200,9.732341064453125,-0.33006060123443604,2.165999412536621,-0.18054243922233582
1715093250631320600,9.742320556640625,-0.35421860218048096,1.2531394958496094,-2.7933545112609863
1715093250641269200,9.752269287109375,-1.2269434928894043,-0.3439598083496094,-5.149363994598389
1715093250651248400,9.762248291015625,-2.878920316696167,-2.760225296020508,-7.187400817871094
1715093250661227800,9.772227783203125,-4.045567512512207,-6.400321006774902,-8.661968231201172
1715093250671176400,9.782176513671875,-5.160863876342773,-9.759733200073242,-9.685535430908203
1715093250681155800,9.79215576171875,-6.126871109008789,-12.53149127960205,-10.051843643188477
1715093250691135000,9.802135009765625,-7.038971900939941,-13.283126831054688,-7.451656818389893
1715093250701083600,9.812083740234375,-7.570165634155273,-10.330608367919922,-1.6506969928741455
1715093250711063000,9.82206298828125,-8.339032173156738,-5.911792755126953,3.18951678276062
1715093250721042200,9.832042236328125,-6.872333526611328,-0.9997930526733398,7.223214626312256
1715093250730990800,9.841990966796875,-7.318690776824951,0.1604328155517578,5.661999225616455
1715093250740970200,9.85197021484375,-5.352785110473633,1.7821550369262695,7.4081292152404785
1715093250750949400,9.861949462890625,-2.7846829891204834,3.0434961318969727,8.047372817993164
1715093250760898000,9.87189794921875,-1.204315185546875,3.494964599609375,5.937856674194336
1715093250770877400,9.88187744140625,-1.3840913772583008,2.9485292434692383,3.3460824489593506
1715093250780826000,9.891826171875,-1.908219814300537,2.040180206298828,1.4061756134033203
1715093250790805200,9.90180517578125,-2.203810691833496,1.3956975936889648,0.6434468030929565
1715093250800784600,9.91178466796875,-1.4242644309997559,1.2674541473388672,-0.42467260360717773
1715093250810763800,9.921763671875,0.12989389896392822,1.7006139755249023,-1.511583924293518
1715093250820743200,9.9317431640625,1.102934718132019,2.1361351013183594,-2.015933036804199
1715093250830691800,9.94169189453125,1.6160938739776611,2.773331642150879,-2.386867046356201
1715093250840671000,9.9516708984375,1.450210690498352,3.4704294204711914,-2.9743409156799316
1715093250850650400,9.961650390625,0.6925362348556519,3.9153852462768555,-3.4444468021392822
1715093250860599000,9.97159912109375,-0.169197678565979,3.8267297744750977,-3.9224584102630615
1715093250870578400,9.981578369140625,-0.7081778049468994,3.4869956970214844,-4.119028568267822
1715093250880557600,9.9915576171875,-0.8926316499710083,3.1517744064331055,-4.296382427215576
1715093250890506200,10.00150634765625,-0.9858304262161255,2.9752235412597656,-4.301068305969238
1715093250900485600,10.011485595703125,-0.8775304555892944,2.890829086303711,-4.367761611938477
1715093250910464800,10.02146484375,-0.49228811264038086,2.8624868392944336,-4.421141147613525
1715093250920413400,10.031413330078125,0.25070667266845703,2.9065427780151367,-4.675163269042969
1715093250930392800,10.041392822265625,1.2004064321517944,2.7709760665893555,-4.593760967254639
1715093250940372000,10.0513720703125,1.7247525453567505,2.730380058288574,-4.511697769165039
1715093250950320600,10.061320556640625,1.7964205741882324,2.418272018432617,-3.928936719894409
1715093250960300000,10.071300048828125,1.4992402791976929,1.8159904479980469,-2.96368408203125
1715093250970279200,10.081279052734375,1.1881613731384277,1.1299066543579102,-1.535102128982544
1715093250980228000,10.09122802734375,1.4096003770828247,1.2320060729980469,1.0871052742004395
1715093250990207200,10.101207275390625,1.4040887355804443,1.4991178512573242,4.142477035522461
1715093251000186400,10.111186279296875,0.7879838943481445,0.8513975143432617,6.151893615722656
1715093251010135300,10.12113525390625,0.39531052112579346,-0.3172187805175781,7.932481288909912
1715093251020114400,10.131114501953125,-0.184861421585083,-1.8907089233398438,9.179339408874512
1715093251030093800,10.14109375,-1.0222492218017578,-3.3699264526367188,9.234790802001953
1715093251040042500,10.15104248046875,-0.5766178369522095,-3.918890953063965,7.753267288208008
1715093251050021600,10.161021728515625,-2.2223658561706543,-4.722042083740234,5.241042137145996
1715093251060001000,10.1710009765625,-2.142353057861328,-5.913036346435547,1.9012577533721924
1715093251069949700,10.18094970703125,1.2141309976577759,-6.889741897583008,-1.0973970890045166
1715093251079928800,10.1909287109375,4.186501502990723,-5.736764907836914,-3.1814916133880615
1715093251089908200,10.200908203125,3.0890355110168457,-2.2749500274658203,-1.976134181022644
1715093251099887400,10.210887451171875,2.2928004264831543,-0.42990684509277344,0.9260355234146118
1715093251109836000,10.2208359375,1.579253077507019,-2.4195384979248047,2.1826705932617188
1715093251119815400,10.2308154296875,0.3302398920059204,-3.409451484680176,2.88419508934021
1715093251129794600,10.240794677734375,-4.994349002838135,-5.940586090087891,1.7366915941238403
1715093251139774000,10.25077392578125,-5.582336902618408,-10.270408630371094,0.6949992179870605
1715093251149722600,10.26072265625,-7.488225936889648,-12.70514965057373,-0.48142504692077637
1715093251159701800,10.27070166015625,-6.874160289764404,-9.505061149597168,-4.741533279418945
1715093251169681200,10.28068115234375,-2.960813283920288,-2.7114715576171875,-5.503918647766113
1715093251179629800,10.2906298828125,-1.2729172706604004,0.5148534774780273,-2.6240251064300537
1715093251189609000,10.30060888671875,0.8944178819656372,2.6374120712280273,-0.12559127807617188
1715093251199588400,10.31058837890625,2.3963632583618164,4.129846572875977,0.6335673332214355
1715093251209537000,10.320537109375,1.9122121334075928,5.835539817810059,0.7123479843139648
1715093251219516400,10.330516357421875,0.6353607773780823,6.661407470703125,-2.1190919876098633
1715093251229495600,10.34049560546875,0.2359941601753235,6.766599655151367,-3.5673372745513916
1715093251239444200,10.3504443359375,0.615700364112854,4.858610153198242,-3.0535407066345215
1715093251249423600,10.360423583984375,1.1505508422851562,2.1863975524902344,-3.6351654529571533
1715093251259402800,10.37040283203125,1.2094454765319824,-0.6781082153320312,-4.875689506530762
1715093251269351400,10.380351318359375,1.0785664319992065,-2.794109344482422,-5.2319560050964355
1715093251279330800,10.390330810546875,0.4660210609436035,-3.591991424560547,-5.579090118408203
1715093251289310000,10.40031005859375,-1.0023791790008545,-3.0511512756347656,-6.585821628570557
1715093251299258600,10.410258544921875,-1.2505828142166138,-0.9282417297363281,-6.247837066650391
1715093251309238000,10.420238037109375,-0.04155242443084717,1.6957321166992188,-4.342153549194336
1715093251319217200,10.430217041015625,1.7185102701187134,3.427891731262207,-4.128929138183594
1715093251329166000,10.440166015625,3.1107335090637207,4.6330060958862305,-3.851722478866577
1715093251339145200,10.450145263671875,3.460869789123535,5.038358688354492,-3.384705066680908
1715093251349124400,10.460124267578125,2.5834126472473145,4.412022590637207,-2.8653173446655273
1715093251359073300,10.4700732421875,1.7991740703582764,3.446324348449707,-1.0439562797546387
1715093251369052400,10.480052490234375,1.1841961145401,2.3059797286987305,0.9607974290847778
1715093251379031800,10.49003173828125,0.8345543146133423,0.8690624237060547,2.468299388885498
1715093251389011000,10.500010986328125,0.3890714645385742,-0.622462272644043,3.219268798828125
1715093251398959600,10.509959716796875,-0.15239298343658447,-1.6099004745483398,3.647289276123047
1715093251408939000,10.51993896484375,-0.5393170118331909,-1.7370128631591797,3.852766513824463
1715093251418918100,10.529918212890625,-0.41012024879455566,-1.240626335144043,3.77888822555542
1715093251428897500,10.5398974609375,-0.5350697040557861,-0.26134586334228516,3.395009994506836
1715093251438846200,10.54984619140625,-0.8059742450714111,0.5831880569458008,2.9552974700927734
1715093251448825300,10.559825439453125,-1.0024737119674683,0.9508838653564453,2.4855902194976807
1715093251458774000,10.56977392578125,-0.9967586994171143,1.0715265274047852,1.9685487747192383
1715093251468753400,10.57975341796875,-0.6986478567123413,0.9495649337768555,1.8966537714004517
1715093251478732500,10.589732666015625,-0.03724312782287598,0.7834863662719727,1.891729712486267
1715093251488681500,10.599681396484375,1.1937525272369385,0.746586799621582,2.0974340438842773
1715093251498660600,10.60966064453125,2.138773202896118,0.5987911224365234,2.0823287963867188
1715093251508639700,10.6196396484375,2.4515292644500732,0.5254402160644531,2.251319169998169
1715093251518588700,10.629588623046875,2.58908748626709,0.687108039855957,2.127232074737549
1715093251528567800,10.63956787109375,3.325744390487671,1.241800308227539,1.8690844774246216
1715093251538547200,10.649547119140625,4.0813798904418945,1.899235725402832,1.8933348655700684
1715093251548496000,10.659495849609375,5.341768264770508,2.6533632278442383,1.8382179737091064
1715093251558475000,10.66947509765625,6.311480522155762,3.404263496398926,1.2276184558868408
1715093251568454400,10.679454345703125,7.175525665283203,3.5121192932128906,0.6679791212081909
1715093251578403000,10.689403076171875,7.067777633666992,2.5903406143188477,-0.6316651105880737
1715093251588382200,10.69938232421875,6.008398056030273,1.1833324432373047,-0.9187688827514648
1715093251598361600,10.709361572265625,4.021625518798828,-0.5593948364257812,-0.5287532806396484
1715093251608310300,10.719310302734375,2.844123363494873,-2.470428466796875,0.006793498992919922
1715093251618289400,10.729289306640625,2.1313869953155518,-4.345637321472168,-0.07212328910827637
1715093251628268800,10.739268798828125,2.752894878387451,-4.986110687255859,-0.01955091953277588
1715093251638217500,10.749217529296875,4.446378707885742,-4.703306198120117,0.9087938070297241
1715093251648196600,10.759196533203125,4.434475898742676,-3.3846988677978516,2.822526454925537
1715093251658176000,10.769176025390625,2.6228771209716797,-1.6101493835449219,4.489572525024414
1715093251668155100,10.779155029296875,1.3290059566497803,0.023721694946289062,4.749176025390625
1715093251678134500,10.789134521484375,0.09886765480041504,1.3796205520629883,4.734192371368408
1715093251688083200,10.799083251953125,-1.1552002429962158,2.2512693405151367,4.341081142425537
1715093251698062300,10.809062255859375,-1.1125025749206543,2.5283021926879883,2.4392011165618896
1715093251708041700,10.819041748046875,-0.2687009572982788,2.3525476455688477,-0.22585803270339966
1715093251717990400,10.828990478515625,-0.07134795188903809,1.6166200637817383,-2.7623422145843506
1715093251727969800,10.8389697265625,-0.5890312194824219,0.23240089416503906,-5.577942848205566
1715093251737949000,10.848948974609375,-1.7384660243988037,-1.7367095947265625,-8.40023136138916
1715093251747897600,10.858897705078125,-2.8304603099823,-4.538260459899902,-10.724878311157227
1715093251757877000,10.868876953125,-3.2894558906555176,-7.577065467834473,-11.705986022949219
1715093251767856000,10.878856201171875,-4.058233261108398,-10.204748153686523,-11.854354858398438
1715093251777804800,10.8888046875,-5.868709564208984,-11.687803268432617,-9.76456356048584
1715093251787784200,10.8987841796875,-6.401487350463867,-10.858112335205078,-3.895101547241211
1715093251797763300,10.908763427734375,-7.010977745056152,-8.563033103942871,2.274853229522705
1715093251807712000,10.9187119140625,-9.445333480834961,-5.906486511230469,5.555139064788818
1715093251817691400,10.92869140625,-8.844311714172363,-2.2996063232421875,9.648916244506836
1715093251827670500,10.93867041015625,-8.598073959350586,-1.1236076354980469,9.770478248596191
1715093251837619500,10.948619384765625,-7.397784233093262,0.6475868225097656,10.614925384521484
1715093251847598600,10.9585986328125,-4.386692523956299,2.4604501724243164,10.163681030273438
1715093251857577700,10.96857763671875,-1.5942928791046143,2.998342514038086,7.207427501678467
1715093251867526700,10.978526611328125,-0.778778076171875,2.3205947875976562,4.449141502380371
1715093251877505800,10.988505859375,0.023548483848571777,0.9994707107543945,1.87015700340271
1715093251887485200,10.998485107421875,0.3931431770324707,0.41549205780029297,0.4129638671875
1715093251897433900,11.008433837890625,0.5175045728683472,0.30287647247314453,-0.8661919832229614
1715093251907413000,11.0184130859375,1.1555026769638062,0.3486166000366211,-1.952133059501648
1715093251917392400,11.028392333984375,1.6490098237991333,0.8659858703613281,-2.244809150695801
1715093251927341000,11.038341064453125,1.7855544090270996,1.8772821426391602,-2.3947081565856934
1715093251937320200,11.0483203125,1.4031076431274414,3.1263914108276367,-2.559075117111206
1715093251947299600,11.058299560546875,0.5244594812393188,3.951272964477539,-2.8418619632720947
1715093251957278700,11.06827880859375,-0.2754901647567749,4.218087196350098,-3.1900525093078613
1715093251967227400,11.078227294921875,-0.6709524393081665,4.163826942443848,-3.577548027038574
1715093251977206800,11.088206787109375,-0.9385640621185303,3.9538955688476562,-4.129166603088379
1715093251987186000,11.09818603515625,-0.9214015007019043,3.879227638244629,-4.493531227111816
1715093251997165300,11.108165283203125,-0.6663352251052856,3.9232616424560547,-4.6783294677734375
1715093252007114000,11.118114013671875,-0.143296480178833,4.154017448425293,-4.703277587890625
1715093252017093000,11.128093017578125,0.40289008617401123,4.245224952697754,-4.818580627441406
1715093252027072500,11.138072509765625,0.7607283592224121,3.9179258346557617,-5.138972282409668
1715093252037021200,11.148021240234375,1.198297381401062,3.719676971435547,-5.015494346618652
1715093252047000300,11.158000244140625,1.5048072338104248,3.5491342544555664,-4.342247009277344
1715093252056979700,11.167979736328125,1.6316168308258057,3.1905088424682617,-3.3327231407165527
1715093252066928400,11.177928466796875,1.6175079345703125,2.555440902709961,-2.188406229019165
1715093252076907800,11.18790771484375,1.38206946849823,1.8516368865966797,-0.5523533821105957
1715093252086887000,11.197886962890625,1.0244873762130737,1.264474868774414,1.4940683841705322
1715093252096835600,11.207835693359375,0.6590367555618286,1.066370964050293,4.243964195251465
1715093252106815000,11.21781494140625,-0.03799843788146973,0.40759849548339844,6.832563877105713
1715093252116794000,11.227794189453125,-0.834848165512085,-1.069509506225586,8.866161346435547
1715093252126742800,11.23774267578125,-0.9360369443893433,-2.665060043334961,9.59012508392334
1715093252136722200,11.24772216796875,-1.312398076057434,-3.5788135528564453,7.989502906799316
1715093252146701300,11.257701416015625,-0.401395320892334,-4.0101823806762695,4.924280166625977
1715093252156650000,11.26764990234375,1.414172887802124,-4.778872489929199,0.8577358722686768
1715093252166629400,11.27762939453125,3.0414185523986816,-5.879199981689453,-1.9464380741119385
1715093252176608500,11.2876083984375,6.3743109703063965,-5.554693222045898,-2.6677184104919434
1715093252186557400,11.297557373046875,9.226423263549805,-4.021205902099609,-3.6066737174987793
1715093252196536600,11.30753662109375,4.723288536071777,-1.5962457656860352,-1.9347153902053833
1715093252206485200,11.3174853515625,0.9702458381652832,0.0008106231689453125,2.061328411102295
1715093252216464600,11.327464599609375,0.5610021352767944,0.4369478225708008,4.535867214202881
1715093252226443800,11.33744384765625,-1.9201093912124634,-0.18416595458984375,6.828912734985352
1715093252236423200,11.347423095703125,-6.538791656494141,-4.161581039428711,6.811458110809326
1715093252246402300,11.35740234375,-7.633266925811768,-10.527406692504883,5.5729875564575195
1715093252256351000,11.36735107421875,-9.348628997802734,-15.009917259216309,2.2157578468322754
1715093252266330400,11.377330322265625,-8.945908546447754,-15.997644424438477,-3.7277486324310303
1715093252276309500,11.3873095703125,-3.687046527862549,-9.271927833557129,-7.904633522033691
1715093252286289000,11.397288818359375,-1.4951517581939697,-1.0826959609985352,-6.2715020179748535
1715093252296237600,11.407237548828125,1.2765382528305054,2.6160974502563477,-3.5447239875793457
1715093252306216700,11.417216796875,2.860912799835205,5.442617416381836,-1.741368055343628
1715093252316196000,11.427196044921875,2.2135794162750244,6.688535690307617,-1.4660394191741943
1715093252326144800,11.437144775390625,1.09114408493042,7.1387481689453125,-3.197077989578247
1715093252336124000,11.4471240234375,0.3102414608001709,6.922665596008301,-5.346077919006348
1715093252346103300,11.457103271484375,0.6529592871665955,5.190178871154785,-5.3494415283203125
1715093252356052000,11.467052001953125,1.3907420635223389,2.655543327331543,-5.246316432952881
1715093252366031000,11.477031005859375,1.625074863433838,-0.3049001693725586,-5.044276237487793
1715093252376010500,11.487010498046875,0.9182400703430176,-2.58695125579834,-3.1871509552001953
1715093252385959200,11.496959228515625,-1.5711575746536255,-4.672896385192871,-3.204489231109619
1715093252395938300,11.506938232421875,-3.017181396484375,-4.407383918762207,-3.655503749847412
1715093252405887200,11.51688720703125,-1.3979554176330566,-2.4180526733398438,-3.8333935737609863
1715093252415866400,11.526866455078125,1.2291451692581177,0.2311420440673828,-2.955648422241211
1715093252425845800,11.536845703125,2.2333619594573975,2.5610227584838867,-2.9767448902130127
1715093252435794400,11.54679443359375,2.9056334495544434,4.3492279052734375,-3.6397509574890137
1715093252445773600,11.556773681640625,3.1204028129577637,4.987179756164551,-3.6979188919067383
1715093252455753000,11.5667529296875,2.2135820388793945,4.270784378051758,-2.9641222953796387
1715093252465701600,11.57670166015625,1.200535535812378,3.002901077270508,-2.367241382598877
1715093252475680800,11.5866806640625,0.5545644760131836,1.9291181564331055,-0.8653392791748047
1715093252485660200,11.59666015625,0.09528529644012451,0.9136800765991211,0.5402091145515442
1715093252495608800,11.60660888671875,0.05511438846588135,-0.18534088134765625,1.5409982204437256
1715093252505588000,11.616587890625,0.03227031230926514,-0.8018121719360352,2.1853771209716797
1715093252515567400,11.6265673828125,-0.03258979320526123,-0.8725557327270508,2.4961612224578857
1715093252525546500,11.63654638671875,-0.2339996099472046,-0.4350767135620117,2.6475791931152344
1715093252535495400,11.646495361328125,-0.0542529821395874,0.21072959899902344,2.6268162727355957
1715093252545474600,11.656474609375,0.1554269790649414,0.5729169845581055,2.583422899246216
1715093252555453700,11.66645361328125,-0.08565783500671387,0.9342937469482422,2.6244847774505615
1715093252565433000,11.67643310546875,-0.21629869937896729,1.265890121459961,3.111539602279663
1715093252575381800,11.6863818359375,-0.17571043968200684,1.4963006973266602,3.768169641494751
1715093252585361200,11.696361083984375,-0.1599900722503662,1.6638097763061523,4.200286388397217
1715093252595340300,11.70634033203125,0.0029909610748291016,1.7515926361083984,4.434770584106445
1715093252605289000,11.7162890625,-0.19179987907409668,1.5347614288330078,4.449394702911377
1715093252615268400,11.726268310546875,-0.35909438133239746,1.1869621276855469,4.3887248039245605
1715093252625247500,11.73624755859375,-0.03758645057678223,1.0038557052612305,4.124431133270264
1715093252635196200,11.746196044921875,0.7824862003326416,1.190460205078125,3.5961191654205322
1715093252645144000,11.75614404296875,2.44645619392395,1.1878185272216797,3.226810932159424
1715093252655123200,11.766123291015624,4.255448341369629,1.4159479141235352,2.817422389984131
1715093252665071900,11.77607177734375,5.880549430847168,1.8038740158081055,2.8583614826202393
1715093252675051300,11.78605126953125,7.885477542877197,2.250576972961426,2.0984175205230713
1715093252685030400,11.796030517578124,8.975229263305664,2.2052488327026367,0.5672279000282288
1715093252694979000,11.80597900390625,7.408170700073242,1.7892980575561523,-0.5886136293411255
1715093252704958500,11.81595849609375,3.8101651668548584,0.9372663497924805,-0.6692429780960083
1715093252714937600,11.8259375,2.039194345474243,-0.8702144622802734,-0.4322260618209839
1715093252724886300,11.83588623046875,1.8989300727844238,-2.6055479049682617,-0.47752541303634644
1715093252734865700,11.84586572265625,2.2695271968841553,-3.0785722732543945,-1.2914485931396484
1715093252744844800,11.8558447265625,4.242098808288574,-3.3307132720947266,-1.5093022584915161
1715093252754793700,11.865793701171874,4.815365314483643,-2.599644660949707,-0.3942961096763611
1715093252764772900,11.87577294921875,3.305248737335205,-1.307295799255371,1.677059292793274
1715093252774752000,11.885751953125,1.0165882110595703,-0.062346458435058594,4.537472248077393
1715093252784701000,11.895700927734374,0.2508583068847656,0.8833332061767578,5.082155227661133
1715093252794680000,11.90568017578125,-0.6141386032104492,1.3766460418701172,4.182851791381836
1715093252804659500,11.915659423828124,-1.0422937870025635,1.2729196548461914,2.1510982513427734
1715093252814608100,11.925608154296874,-0.7588170766830444,1.5862436294555664,-0.5010838508605957
1715093252824587300,11.935587158203125,-0.5764687061309814,0.9036064147949219,-3.1860547065734863
1715093252834566700,11.945566650390624,-1.2088884115219116,-0.6924724578857422,-5.381638526916504
1715093252844545800,11.9555458984375,-2.8610470294952393,-3.2987146377563477,-7.77913236618042
1715093252854525200,11.965525146484374,-4.040712833404541,-6.50075626373291,-9.468658447265625
1715093252864473900,11.975473876953124,-4.442378997802734,-8.536413192749023,-9.751778602600098
1715093252874453000,11.985452880859375,-4.8716278076171875,-10.197060585021973,-9.629179954528809
1715093252884432400,11.995432373046874,-4.913290500640869,-11.911314964294434,-7.038072109222412
1715093252894381000,12.005381103515624,-4.976471900939941,-11.7612886428833,-1.2996826171875
1715093252904360200,12.015360107421875,-6.403298854827881,-9.928841590881348,3.2617175579071045
1715093252914339600,12.025339599609374,-8.943610191345215,-5.912815093994141,6.411679744720459
1715093252924288300,12.035288330078124,-9.30250358581543,-1.9639644622802734,9.831485748291016
1715093252934267400,12.045267333984375,-8.682186126708984,-0.8832912445068359,9.938200950622559
1715093252944246800,12.055246826171874,-6.986030578613281,1.0978622436523438,10.046813011169434
1715093252954195500,12.065195556640624,-4.519371509552002,2.357119560241699,8.528779983520508
1715093252964174800,12.0751748046875,-2.10636568069458,3.3800735473632812,6.734133720397949
1715093252974154000,12.085154052734374,-1.2917248010635376,2.685429573059082,4.102867126464844
1715093252984102700,12.0951025390625,-1.7002454996109009,0.9912633895874023,1.4956618547439575
1715093252994082000,12.10508203125,-1.3699617385864258,-0.027672767639160156,0.30311155319213867
1715093253004061200,12.115061279296874,-0.18329095840454102,0.015429496765136719,-1.1226738691329956
1715093253014009900,12.125009765625,1.0637071132659912,0.5517454147338867,-2.27693247795105
1715093253023989200,12.1349892578125,1.766419768333435,1.3147506713867188,-2.7520008087158203
1715093253033968400,12.144968505859374,1.927396297454834,2.425212860107422,-3.220857858657837
1715093253043917000,12.1549169921875,1.0812819004058838,3.593815803527832,-3.664940357208252
1715093253053896400,12.164896484375,-0.08040106296539307,4.2746076583862305,-3.7559170722961426
1715093253063845000,12.17484521484375,-0.9023782014846802,4.389676094055176,-3.7300522327423096
1715093253073824500,12.184824462890624,-1.3386003971099854,4.1688947677612305,-3.594510078430176
1715093253083803600,12.1948037109375,-1.7247604131698608,3.9796142578125,-3.430363655090332
1715093253093782800,12.20478271484375,-1.8466564416885376,3.8748779296875,-3.3104429244995117
1715093253103762200,12.21476220703125,-1.8368890285491943,3.869805335998535,-3.2100179195404053
1715093253113710800,12.2247109375,-1.254440188407898,3.7895145416259766,-3.027395725250244
1715093253123690000,12.23468994140625,-0.308758020401001,3.583712577819824,-3.286655902862549
1715093253133669400,12.24466943359375,1.0037018060684204,3.5118818283081055,-3.4292168617248535
1715093253143648500,12.2546484375,1.851248025894165,3.43634033203125,-3.2185733318328857
1715093253153597400,12.264597412109374,2.0598368644714355,3.5207643508911133,-2.831796407699585
1715093253163576600,12.27457666015625,1.9135873317718506,3.4802446365356445,-2.174618721008301
1715093253173555700,12.2845556640625,1.6032806634902954,3.175980567932129,-0.8978126049041748
1715093253183504600,12.294504638671874,1.8219016790390015,3.313413619995117,1.3714449405670166
1715093253193483800,12.30448388671875,2.0723252296447754,3.4351015090942383,4.009378433227539
1715093253203463200,12.314463134765624,1.8375115394592285,1.7643280029296875,5.687290191650391
1715093253213411800,12.324411865234374,1.3992950916290283,-0.31504058837890625,7.359340190887451
1715093253223391000,12.334390869140625,1.2837402820587158,-2.4310216903686523,9.248271942138672
1715093253233370400,12.344370361328124,0.3997034430503845,-4.961565017700195,9.409955978393555
1715093253243319000,12.354319091796874,-1.4766331911087036,-7.006499290466309,7.387189865112305
1715093253253298200,12.364298095703125,-2.6026320457458496,-7.4326677322387695,3.56847882270813
1715093253263247000,12.3742470703125,-2.6135363578796387,-7.667591094970703,0.4755239486694336
1715093253273226200,12.384226318359374,1.247087836265564,-7.51878547668457,-0.513115406036377
1715093253283205400,12.394205322265625,4.857330799102783,-4.7551984786987305,-0.06906628608703613
1715093253293154300,12.404154296875,2.3722586631774902,-1.2283849716186523,0.5984690189361572
1715093253303133400,12.414133544921874,0.9658373594284058,-1.219773292541504,2.8803412914276123
1715093253313112800,12.42411279296875,2.7911500930786133,-4.255521774291992,4.479362964630127
1715093253323061500,12.4340615234375,3.765255928039551,-5.345569610595703,2.3822073936462402
1715093253333040600,12.44404052734375,-4.956780910491943,-6.593202590942383,-1.4512650966644287
1715093253343020000,12.45402001953125,-8.405903816223145,-10.195558547973633,-4.750618934631348
1715093253352968700,12.46396875,-6.412922382354736,-12.699641227722168,-4.690986633300781
1715093253362947800,12.47394775390625,-5.199869155883789,-6.370429992675781,-7.177761077880859
1715093253372927200,12.48392724609375,-2.324345350265503,0.44060230255126953,-5.957845687866211
1715093253382906400,12.49390625,0.06277529895305634,2.4156265258789062,-2.9102394580841064
1715093253392855000,12.50385498046875,1.6562790870666504,3.464261054992676,0.042153358459472656
1715093253402834400,12.51383447265625,1.410202980041504,5.067790985107422,2.054083824157715
1715093253412813600,12.5238134765625,1.028782606124878,6.005621910095215,2.4204485416412354
1715093253422793000,12.53379296875,0.19965553283691406,6.452203750610352,-0.45293688774108887
1715093253432741600,12.54374169921875,-0.5268939733505249,6.29390811920166,-3.028175115585327
1715093253442720800,12.553720703125,0.21538794040679932,4.638055801391602,-2.863217353820801
1715093253452700200,12.5637001953125,1.1329973936080933,1.8377456665039062,-3.690743923187256
1715093253462648800,12.57364892578125,1.5963404178619385,-1.337916374206543,-5.805649757385254
1715093253472628200,12.583628173828124,1.3276519775390625,-4.141121864318848,-7.542671203613281
1715093253482607400,12.593607421875,-0.12746846675872803,-5.850407600402832,-8.403436660766602
1715093253492556000,12.60355615234375,-1.848710536956787,-5.416497230529785,-8.593608856201172
1715093253502535400,12.613535400390624,-1.090555191040039,-1.6560392379760742,-6.128889083862305
1715093253512514600,12.6235146484375,0.7546662092208862,2.175663948059082,-3.8218793869018555
1715093253522463200,12.633463134765625,2.4981167316436768,4.554892539978027,-3.130894660949707
1715093253532442600,12.643442626953124,2.9210076332092285,5.235661506652832,-3.049259662628174
1715093253542421800,12.653421875,2.8714847564697266,5.522998809814453,-2.246443271636963
1715093253552370400,12.663370361328125,2.739745855331421,4.365696907043457,-1.6844522953033447
1715093253562349800,12.673349853515624,2.2441611289978027,2.8625049591064453,-0.824410080909729
1715093253572329000,12.683328857421875,1.4352401494979858,1.0623531341552734,0.21048986911773682
1715093253582277600,12.693277587890625,0.5243221521377563,-0.6173667907714844,0.9875870943069458
1715093253592257000,12.703257080078124,-0.2063971757888794,-1.6674156188964844,1.5024782419204712
1715093253602236200,12.713236083984375,-0.7933124303817749,-2.0454883575439453,1.891095757484436
1715093253612185000,12.72318505859375,-1.1734497547149658,-1.9073057174682617,1.9810184240341187
1715093253622164200,12.733164306640624,-1.2576740980148315,-1.0851287841796875,1.906310796737671
1715093253632143400,12.743143310546875,-1.08925461769104,0.026868820190429688,1.9520224332809448
1715093253642092300,12.75309228515625,-0.4952625036239624,0.8696374893188477,1.9374079704284668
1715093253652071400,12.763071533203124,0.03373241424560547,1.625849723815918,1.697327733039856
1715093253662050800,12.77305078125,0.31292295455932617,2.085855484008789,1.6882057189941406
1715093253672030000,12.783030029296874,0.6823011636734009,2.3967084884643555,1.8539961576461792
1715093253681978600,12.792978515625,0.9735004901885986,2.556520462036133,2.1236963272094727
