time,seconds_elapsed,z,y,x
1715093240951168000,0.06216796875,16.971527099609375,2.154998779296875,-12.43145751953125
1715093240970485800,0.08148583984375,13.475997924804688,-1.6350250244140625,-5.8473968505859375
1715093240980495400,0.091495361328125,11.63006591796875,-2.2742767333984375,-2.4476318359375
1715093240990505200,0.101505126953125,12.37945556640625,0.7424163818359375,-1.6527557373046875
1715093241000515000,0.11151513671875,11.725830078125,1.226043701171875,0.463714599609375
1715093241010494200,0.121494140625,10.91180419921875,1.3816680908203125,1.5075836181640625
1715093241020504000,0.131504150390625,10.5311279296875,2.040069580078125,1.3256378173828125
1715093241030484000,0.14148388671875,10.703506469726562,2.71044921875,0.537933349609375
1715093241040477000,0.151476806640625,10.61492919921875,2.4015960693359375,-0.055816650390625
1715093241050463000,0.161462890625,10.744216918945312,2.157379150390625,-0.1827239990234375
1715093241060442400,0.1714423828125,11.043487548828125,2.2387847900390625,-0.2832794189453125
1715093241070421500,0.18142138671875,11.079391479492188,2.504547119140625,-0.1252593994140625
1715093241080401000,0.19140087890625,11.050674438476562,2.7295989990234375,0.305694580078125
1715093241090380000,0.201380126953125,10.947723388671875,2.980987548828125,0.674407958984375
1715093241100359200,0.211359130859375,10.588592529296875,3.1868896484375,0.683990478515625
1715093241110338600,0.221338623046875,9.918212890625,3.2611083984375,0.494842529296875
1715093241120317700,0.231317626953125,9.013198852539062,3.361663818359375,0.2602081298828125
1715093241130297000,0.241297119140625,8.476898193359375,3.486175537109375,0.1596527099609375
1715093241140276200,0.251276123046875,8.5870361328125,3.6633453369140625,0.2386627197265625
1715093241150255600,0.261255615234375,8.795333862304688,3.804595947265625,0.272186279296875
1715093241160204300,0.271204345703125,8.824066162109375,3.9482421875,0.3032989501953125
1715093241170183400,0.281183349609375,8.625335693359375,3.9386749267578125,0.22430419921875
1715093241180162800,0.291162841796875,8.443374633789062,3.8860015869140625,0.284149169921875
1715093241190142000,0.301141845703125,8.431411743164062,3.9769744873046875,0.40386962890625
1715093241200090600,0.311090576171875,8.5247802734375,4.1182403564453125,0.4254150390625
1715093241210070000,0.321070068359375,8.570281982421875,4.2307586669921875,0.293731689453125
1715093241220049200,0.331049072265625,8.519989013671875,4.2666778564453125,0.1692352294921875
1715093241229998000,0.340998046875,8.369155883789062,4.281036376953125,0.01361083984375
1715093241239977200,0.350977294921875,8.184814453125,4.2642822265625,-0.1468048095703125
1715093241249956400,0.360956298828125,8.23748779296875,4.30499267578125,-0.3790435791015625
1715093241259905300,0.3709052734375,8.49365234375,4.21160888671875,-0.2736968994140625
1715093241269884400,0.380884521484375,8.68280029296875,4.185272216796875,-0.276092529296875
1715093241279833000,0.3908330078125,8.697174072265625,4.2235870361328125,-0.0247039794921875
1715093241289812500,0.4008125,8.663650512695312,4.3887786865234375,0.4014739990234375
1715093241299791600,0.41079150390625,8.56549072265625,4.439056396484375,0.178802490234375
1715093241309740300,0.420740234375,8.591827392578125,4.0966949462890625,-0.4269256591796875
1715093241319719700,0.4307197265625,9.245437622070312,3.900360107421875,-0.4053802490234375
1715093241329698800,0.44069873046875,9.41064453125,3.8022003173828125,0.126129150390625
1715093241339647700,0.450647705078125,9.360366821289062,3.931488037109375,0.53314208984375
1715093241349627000,0.460626953125,8.852783203125,4.120635986328125,1.045501708984375
1715093241359606000,0.47060595703125,8.096221923828125,4.2451324462890625,1.16522216796875
1715093241369585400,0.48058544921875,7.567108154296875,4.3289337158203125,0.5547027587890625
1715093241379534000,0.4905341796875,7.4952850341796875,4.3385009765625,-0.01751708984375
1715093241389513500,0.500513427734375,7.715545654296875,4.3624420166015625,0.145294189453125
1715093241399492600,0.51049267578125,8.115371704101562,4.45343017578125,0.3128814697265625
1715093241409471700,0.5204716796875,8.519989013671875,4.460601806640625,0.3080902099609375
1715093241419420700,0.530420654296875,8.680404663085938,4.4462432861328125,0.346405029296875
1715093241429399800,0.54039990234375,8.771392822265625,4.4558258056640625,0.3631591796875
1715093241439379000,0.55037890625,8.89349365234375,4.4031524658203125,0.1644439697265625
1715093241449327900,0.560327880859375,8.941375732421875,4.281036376953125,-0.0462493896484375
1715093241459307000,0.57030712890625,8.982070922851562,4.2307586669921875,-0.0390625
1715093241469286400,0.580286376953125,9.650054931640625,4.3385009765625,0.073455810546875
1715093241479235000,0.590235107421875,10.018768310546875,4.3720245361328125,0.109375
1715093241489214200,0.600214111328125,9.8128662109375,4.2642822265625,0.157257080078125
1715093241499193600,0.610193603515625,9.494430541992188,4.2307586669921875,-0.139617919921875
1715093241509142300,0.620142333984375,9.415420532226562,4.2092132568359375,-0.24017333984375
1715093241519121400,0.630121337890625,9.259811401367188,4.216400146484375,-0.0845489501953125
1715093241529100800,0.640100830078125,9.17840576171875,4.2307586669921875,0.047119140625
1715093241539049500,0.650049560546875,9.051513671875,4.2666778564453125,0.123748779296875
1715093241549028600,0.660028564453125,8.812088012695312,4.4558258056640625,0.157257080078125
1715093241559008000,0.670008056640625,8.455352783203125,4.5683441162109375,0.2578125
1715093241568956700,0.679956787109375,8.273391723632812,4.5420074462890625,0.284149169921875
1715093241578936000,0.68993603515625,8.517608642578125,4.5372161865234375,0.1500701904296875
1715093241588915200,0.699915283203125,8.898284912109375,4.407928466796875,0.0327606201171875
1715093241598864000,0.70986376953125,9.130523681640625,4.25469970703125,0.09979248046875
1715093241608843300,0.71984326171875,9.185577392578125,4.2307586669921875,0.19317626953125
1715093241618822400,0.729822509765625,9.255020141601562,4.2044219970703125,0.3032989501953125
1715093241628771000,0.73977099609375,9.0946044921875,4.31695556640625,0.4565277099609375
1715093241638750500,0.74975048828125,8.740264892578125,4.431884765625,0.525970458984375
1715093241648729600,0.7597294921875,8.49365234375,4.395965576171875,0.4014739990234375
1715093241658709000,0.769708984375,8.505630493164062,4.36004638671875,0.284149169921875
1715093241668657700,0.77965771484375,8.551116943359375,4.4103240966796875,0.2602081298828125
1715093241678636800,0.78963671875,8.575057983398438,4.4103240966796875,0.38470458984375
1715093241688616200,0.7996162109375,8.711532592773438,4.37921142578125,0.4254150390625
1715093241698564900,0.80956494140625,8.790542602539062,4.374420166015625,0.2865447998046875
1715093241708544000,0.8195439453125,8.685195922851562,4.28582763671875,0.250640869140625
1715093241718523400,0.8295234375,8.5247802734375,4.321746826171875,0.3009185791015625
1715093241728472000,0.83947216796875,8.63970947265625,4.3241424560546875,0.3392181396484375
1715093241738451500,0.849451416015625,8.943771362304688,4.3097686767578125,0.432586669921875
1715093241748430600,0.8594306640625,8.917434692382812,4.3576507568359375,0.6408843994140625
1715093241758379300,0.869379150390625,8.886306762695312,4.2714691162109375,0.664825439453125
1715093241768358700,0.879358642578125,9.003631591796875,4.278656005859375,0.4876556396484375
1715093241778337800,0.889337890625,9.0946044921875,4.2499237060546875,0.3224639892578125
1715093241788286500,0.899286376953125,9.238250732421875,4.0966949462890625,0.3009185791015625
1715093241798265900,0.909265869140625,9.3795166015625,4.0966949462890625,0.2290802001953125
1715093241808245000,0.919244873046875,9.1376953125,4.12542724609375,0.19317626953125
1715093241818193700,0.929193603515625,8.965316772460938,4.2307586669921875,0.250640869140625
1715093241828173000,0.939173095703125,8.742660522460938,4.1924591064453125,0.1285247802734375
1715093241838152200,0.949152099609375,8.7354736328125,4.28582763671875,-0.086944580078125
1715093241848100900,0.959100830078125,8.680404663085938,4.2714691162109375,-0.0366668701171875
1715093241858080300,0.969080322265625,8.888702392578125,4.333709716796875,0.083038330078125
1715093241868059400,0.979059326171875,9.051513671875,4.2499237060546875,0.1764068603515625
1715093241878008300,0.98900830078125,9.207138061523438,4.2283782958984375,0.2578125
1715093241887987500,0.998987548828125,9.271774291992188,4.2978057861328125,0.2482452392578125
1715093241897966600,1.008966552734375,8.991653442382812,4.3576507568359375,0.245849609375
1715093241907915500,1.01891552734375,8.481689453125,4.44384765625,0.262603759765625
1715093241917894700,1.028894775390625,8.117767333984375,4.5108795166015625,0.2578125
1715093241927874000,1.0388740234375,7.9094696044921875,4.5420074462890625,0.3080902099609375
1715093241937822700,1.04882275390625,7.7921600341796875,4.5204620361328125,0.2554168701171875
1715093241947801900,1.0588017578125,7.916656494140625,4.4007568359375,0.1069793701171875
1715093241957781200,1.06878125,8.10101318359375,4.3097686767578125,0.1644439697265625
1715093241967760400,1.078760498046875,8.3643798828125,4.2355499267578125,0.3535919189453125
1715093241977709000,1.088708984375,8.529571533203125,4.1086578369140625,0.3440093994140625
1715093241987688400,1.0986884765625,8.347610473632812,4.1134490966796875,0.34161376953125
1715093241997667600,1.10866748046875,7.9453887939453125,4.2307586669921875,0.5451202392578125
1715093242007616300,1.1186162109375,7.715545654296875,4.31695556640625,0.6360931396484375
1715093242017595600,1.128595703125,7.60540771484375,4.30499267578125,0.5977935791015625
1715093242027574800,1.13857470703125,6.9158782958984375,4.0703582763671875,0.889892578125
1715093242037523700,1.148523681640625,6.94940185546875,4.2570953369140625,0.683990478515625
1715093242047502800,1.1585029296875,7.3372650146484375,4.2714691162109375,0.557098388671875
1715093242057482000,1.16848193359375,7.789764404296875,4.0535888671875,0.65765380859375
1715093242067431000,1.178430908203125,8.065093994140625,3.9338836669921875,0.6480712890625
1715093242077410000,1.18841015625,8.13214111328125,3.7183990478515625,0.60498046875
1715093242087392800,1.198392822265625,8.180023193359375,2.949859619140625,0.7031402587890625
1715093242097341700,1.208341796875,9.298110961914062,3.2587127685546875,0.1381072998046875
1715093242107320800,1.21832080078125,9.870330810546875,3.6274261474609375,-0.0462493896484375
1715093242117300200,1.22830029296875,9.690765380859375,3.7543182373046875,0.1740264892578125
1715093242127249000,1.238248779296875,8.991653442382812,3.5460205078125,0.5738525390625
1715093242137228000,1.24822802734375,8.105804443359375,3.1126708984375,0.77496337890625
1715093242147207400,1.25820751953125,7.3013458251953125,2.7391815185546875,0.705535888671875
1715093242157156000,1.268156005859375,6.7147674560546875,2.157379150390625,0.5738525390625
1715093242167135200,1.27813525390625,6.2071990966796875,1.6019287109375,0.600189208984375
1715093242177114600,1.288114501953125,5.6206207275390625,1.1326751708984375,0.81805419921875
1715093242187063300,1.298063232421875,5.03643798828125,0.1414642333984375,0.9832611083984375
1715093242197042400,1.30804248046875,3.81298828125,-0.9909820556640625,0.92340087890625
1715093242207021800,1.318021728515625,2.2232513427734375,-1.8074188232421875,0.9617156982421875
1715093242216970500,1.327970458984375,0.1211395263671875,-3.047607421875,0.600189208984375
1715093242226949600,1.33794970703125,-1.01611328125,-3.5791168212890625,1.6584320068359375
1715093242236929000,1.347928955078125,-2.32574462890625,-2.451446533203125,3.779693603515625
1715093242246908200,1.357908203125,-2.93865966796875,-2.7435455322265625,5.122833251953125
1715093242256857000,1.367857177734375,-3.716766357421875,-3.3253326416015625,6.126007080078125
1715093242266836200,1.377836181640625,-4.59783935546875,-5.0036773681640625,5.5681610107421875
1715093242276815400,1.3878154296875,-3.2163848876953125,-6.56707763671875,5.4939422607421875
1715093242286764300,1.397764404296875,-1.3321380615234375,-6.3300628662109375,7.9264373779296875
1715093242296743400,1.407743408203125,0.9782562255859375,-5.4370269775390625,10.921585083007812
1715093242306722800,1.417722900390625,1.354156494140625,-6.7155303955078125,10.021377563476562
1715093242316671500,1.42767138671875,1.502593994140625,-9.013961791992188,7.6942138671875
1715093242326644200,1.437644287109375,0.9974212646484375,-9.72503662109375,6.3319091796875
1715093242336623400,1.447623291015625,-0.79583740234375,-9.547866821289062,6.0350189208984375
1715093242346572000,1.457572021484375,-2.4933319091796875,-9.626876831054688,6.41571044921875
1715093242356551400,1.467551513671875,-3.60662841796875,-10.553436279296875,6.3343048095703125
1715093242366530600,1.477530517578125,-3.8029632568359375,-11.750534057617188,5.618438720703125
1715093242376479500,1.4874794921875,-3.6186065673828125,-13.4552001953125,4.69427490234375
1715093242386458600,1.497458740234375,-3.1948394775390625,-15.78955078125,3.4397125244140625
1715093242396437800,1.507437744140625,-1.4159393310546875,-18.190933227539062,2.999176025390625
1715093242406386700,1.51738671875,2.5895538330078125,-20.580352783203125,3.1500091552734375
1715093242416365800,1.52736572265625,7.93341064453125,-22.126998901367188,2.596954345703125
1715093242426345200,1.53734521484375,12.468032836914062,-22.993698120117188,1.086212158203125
1715093242436294000,1.5472939453125,13.04742431640625,-26.50360107421875,0.525970458984375
1715093242446273000,1.55727294921875,13.255722045898438,-28.967239379882812,3.2122650146484375
1715093242456252400,1.56725244140625,16.703384399414062,-28.409393310546875,5.9823455810546875
1715093242466201000,1.577201171875,17.708938598632812,-27.573806762695312,8.67822265625
1715093242476180200,1.58718017578125,16.964340209960938,-28.65838623046875,10.100387573242188
1715093242486159600,1.59715966796875,15.958786010742188,-29.546630859375,11.386062622070312
1715093242496108300,1.6071083984375,16.34185791015625,-29.1444091796875,12.880050659179688
1715093242506087400,1.61708740234375,17.457550048828125,-29.90576171875,14.1082763671875
1715093242516066800,1.62706689453125,20.48382568359375,-29.606491088867188,14.797805786132812
1715093242526046000,1.6370458984375,23.308975219726562,-27.801254272460938,14.766677856445312
1715093242536025300,1.647025390625,21.103927612304688,-28.495574951171875,13.078765869140625
1715093242545974000,1.65697412109375,18.55169677734375,-27.748580932617188,12.288681030273438
1715093242555953200,1.666953125,15.879776000976562,-25.586624145507812,12.264739990234375
1715093242565902000,1.676902099609375,12.70745849609375,-23.1756591796875,13.3157958984375
1715093242575881200,1.686881103515625,9.796112060546875,-19.883636474609375,15.262283325195312
1715093242585860400,1.6968603515625,7.018829345703125,-15.993057250976562,15.755477905273438
1715093242595809300,1.706809326171875,-0.2954559326171875,-9.859115600585938,16.947799682617188
1715093242605788400,1.716788330078125,-78.28178405761719,16.905670166015625,78.53384399414062
1715093242615767800,1.726767822265625,24.388763427734375,0.359344482421875,9.19537353515625
1715093242625716500,1.736716552734375,-9.424545288085938,-3.8089599609375,-10.518478393554688
1715093242635695600,1.746695556640625,-3.9561920166015625,-9.823196411132812,-7.25518798828125
1715093242645682700,1.7566826171875,4.5959014892578125,-9.708282470703125,3.633636474609375
1715093242655631400,1.76663134765625,4.7658843994140625,-11.958831787109375,2.83636474609375
1715093242665609700,1.776609619140625,3.152191162109375,-7.4888458251953125,2.89862060546875
1715093242675588900,1.7865888671875,2.4291534423828125,-5.9517822265625,2.7645416259765625
1715093242685537500,1.79653759765625,4.4067535400390625,-9.1025390625,2.48681640625
1715093242695517000,1.806516845703125,5.2782440185546875,-10.309219360351562,1.361541748046875
1715093242705496000,1.81649609375,7.1505126953125,-11.374649047851562,0.05670166015625
1715093242715444700,1.82644482421875,5.982147216796875,-12.186279296875,-1.248138427734375
1715093242725424000,1.836424072265625,6.374786376953125,-12.370635986328125,-3.8027496337890625
1715093242735403300,1.8464033203125,3.8441162109375,-12.126419067382812,-4.480316162109375
1715093242745352200,1.856352294921875,3.8465118408203125,-11.142410278320312,-5.80670166015625
1715093242755331300,1.866331298828125,6.1904449462890625,-11.865447998046875,-8.39483642578125
1715093242765310500,1.876310546875,9.702728271484375,-12.289230346679688,-10.228790283203125
1715093242775259400,1.88625927734375,8.390716552734375,-10.898193359375,-7.6239013671875
1715093242785238500,1.896238525390625,4.0404510498046875,-8.396255493164062,-4.04217529296875
1715093242795218000,1.906218017578125,1.6630096435546875,-6.8543853759765625,-4.0517425537109375
1715093242805197000,1.916197021484375,0.0373382568359375,-7.0554962158203125,-5.7947235107421875
1715093242815145700,1.926145751953125,-1.66015625,-6.9214324951171875,-5.758819580078125
1715093242825125000,1.936125,-2.81414794921875,-5.7650299072265625,-4.1666717529296875
1715093242835104300,1.946104248046875,-1.2363739013671875,-4.7977752685546875,-1.5881195068359375
1715093242845070600,1.956070556640625,0.408447265625,-4.129791259765625,0.3823089599609375
1715093242855019300,1.966019287109375,4.4139404296875,-3.2247772216796875,-0.941680908203125
1715093242864998700,1.97599853515625,2.35491943359375,-3.253509521484375,-0.096527099609375
1715093242874977800,1.985977783203125,-3.7622528076171875,-0.0859832763671875,1.296905517578125
1715093242884926500,1.995926513671875,0.2264862060546875,-1.3285675048828125,-2.7157745361328125
1715093242894905900,2.00590576171875,0.257598876953125,-2.5017242431640625,-3.1371612548828125
1715093242904885000,2.015885009765625,0.7867279052734375,-1.5296783447265625,-2.356658935546875
1715093242914834000,2.025833984375,0.456329345703125,-0.9694366455078125,-0.2832794189453125
1715093242924813000,2.03581298828125,0.075653076171875,-0.653411865234375,1.9864349365234375
1715093242934792200,2.045792236328125,0.41082763671875,-0.938323974609375,3.0925445556640625
1715093242944745200,2.0557451171875,0.1067657470703125,-2.0133209228515625,3.7725067138671875
1715093242954724400,2.065724365234375,-1.7056427001953125,-3.1290130615234375,4.5027313232421875
1715093242964703500,2.075703369140625,-3.779022216796875,-3.813751220703125,4.0885467529296875
1715093242974652400,2.08565234375,-4.3368682861328125,-5.166473388671875,3.5330810546875
1715093242984631600,2.095631591796875,-4.4470062255859375,-9.318023681640625,3.267333984375
1715093242994595000,2.105594970703125,-3.652130126953125,-14.961151123046875,1.900238037109375
1715093243004574200,2.11557421875,-0.283477783203125,-15.85418701171875,-1.4253082275390625
1715093243014553300,2.12555322265625,1.3948516845703125,-15.617172241210938,-2.478759765625
1715093243024502300,2.135502197265625,1.1841583251953125,-16.866943359375,-0.541839599609375
1715093243034481400,2.1454814453125,2.5727996826171875,-16.194168090820312,-0.4101715087890625
1715093243044460500,2.15546044921875,-0.8293609619140625,-17.8509521484375,-1.681488037109375
1715093243054409500,2.165409423828125,0.061279296875,-17.759979248046875,-2.6032562255859375
1715093243064388600,2.175388671875,1.375701904296875,-14.685821533203125,0.717498779296875
1715093243074368000,2.185367919921875,-1.746337890625,-14.874969482421875,1.1532440185546875
1715093243084347100,2.19534716796875,-3.0152740478515625,-13.912490844726562,1.7709503173828125
1715093243094295800,2.2052958984375,-1.4901580810546875,-13.079315185546875,0.7677764892578125
1715093243104275200,2.215275146484375,0.7460174560546875,-14.0250244140625,-0.826751708984375
1715093243114254300,2.22525439453125,0.3868865966796875,-16.773574829101562,-4.2935638427734375
1715093243124233700,2.235233642578125,-0.07757568359375,-17.228469848632812,-4.5712890625
1715093243134182400,2.245182373046875,-1.7487335205078125,-14.463165283203125,-2.284820556640625
1715093243144161500,2.25516162109375,-0.31939697265625,-10.541458129882812,2.503570556640625
1715093243154141000,2.265140869140625,-0.1518096923828125,-9.296478271484375,3.2433929443359375
1715093243164089600,2.275089599609375,-0.6761322021484375,-9.459274291992188,2.8172149658203125
1715093243174068700,2.28506884765625,-0.5109405517578125,-10.163177490234375,0.652862548828125
1715093243184048000,2.295048095703125,0.066070556640625,-10.278091430664062,-1.64556884765625
1715093243194001700,2.305001708984375,-0.2810821533203125,-10.503158569335938,-2.684661865234375
1715093243203981000,2.31498095703125,1.90960693359375,-8.946914672851562,-4.5736846923828125
1715093243213960200,2.324960205078125,0.8226318359375,-8.137680053710938,-3.6399383544921875
1715093243223909000,2.3349091796875,-0.3074188232421875,-8.149658203125,-1.41094970703125
1715093243233888300,2.34488818359375,-1.3201751708984375,-8.611740112304688,-0.6495819091796875
1715093243243867400,2.354867431640625,-1.8109893798828125,-9.744186401367188,-1.078155517578125
1715093243253816300,2.36481640625,-2.36883544921875,-10.230209350585938,-0.541839599609375
1715093243263795500,2.37479541015625,-2.660919189453125,-10.900588989257812,-0.762115478515625
1715093243273774800,2.38477490234375,-2.057586669921875,-11.271697998046875,0.0327606201171875
1715093243283723500,2.3947236328125,-2.6154327392578125,-9.104934692382812,2.9848175048828125
1715093243293702700,2.40470263671875,-1.9809722900390625,-9.447311401367188,0.1021881103515625
1715093243303651300,2.4146513671875,-1.7176055908203125,-9.219863891601562,0.145294189453125
1715093243313630700,2.424630615234375,-1.301025390625,-8.745803833007812,0.1907806396484375
1715093243323609900,2.43460986328125,-0.4893798828125,-9.253372192382812,-0.2736968994140625
1715093243333558800,2.444558837890625,-0.4438934326171875,-10.16796875,0.0662841796875
1715093243343538000,2.454537841796875,-0.1063079833984375,-8.650039672851562,0.537933349609375
1715093243353517000,2.46451708984375,0.1474761962890625,-7.6516571044921875,0.0112152099609375
1715093243363496400,2.474496337890625,-0.6809234619140625,-8.068252563476562,-0.5801544189453125
1715093243373445000,2.484445068359375,-1.6385955810546875,-9.823196411132812,-0.46044921875
1715093243383424300,2.49442431640625,-1.5691680908203125,-9.090576171875,-0.6280364990234375
1715093243393403600,2.504403564453125,-2.00970458984375,-7.797698974609375,-0.07977294921875
1715093243403382800,2.5143828125,-4.7366943359375,-4.4769439697265625,2.25457763671875
1715093243413331700,2.524331787109375,-1.032867431640625,-8.302886962890625,0.889892578125
1715093243423310800,2.534310791015625,-0.9179534912109375,-8.053878784179688,0.1500701904296875
1715093243433290000,2.5442900390625,-0.90118408203125,-7.5343475341796875,-0.8123931884765625
1715093243443239000,2.554239013671875,-0.4846038818359375,-7.8791046142578125,-0.8961944580078125
1715093243453218000,2.564218017578125,-0.3864288330078125,-7.6468658447265625,-0.4963531494140625
1715093243463197400,2.574197509765625,-0.4486846923828125,-5.652496337890625,-0.2736968994140625
1715093243473146000,2.58414599609375,-0.8030242919921875,-3.9597930908203125,-0.2904510498046875
1715093243483125200,2.594125244140625,-1.2100372314453125,-3.7155914306640625,-0.7238006591796875
1715093243493104600,2.604104736328125,-1.4207305908203125,-4.0579681396484375,-1.2672882080078125
1715093243503053300,2.61405322265625,-1.751129150390625,-4.6038360595703125,-1.3079986572265625
1715093243513032400,2.624032470703125,-2.0551910400390625,-5.472930908203125,-1.4636077880859375
1715093243523011800,2.63401171875,-1.4590301513671875,-7.0483245849609375,-1.439666748046875
1715093243532960500,2.64396044921875,-1.0352630615234375,-8.958892822265625,-1.5737457275390625
1715093243542939600,2.653939697265625,-0.927520751953125,-11.633209228515625,-1.545013427734375
1715093243552919000,2.6639189453125,-2.7207794189453125,-19.19171142578125,5.1874847412109375
1715093243562867700,2.67386767578125,-1.9450531005859375,-29.304824829101562,6.9687652587890625
1715093243572847000,2.68384716796875,-1.348907470703125,-26.719085693359375,-6.910430908203125
1715093243582795800,2.693795654296875,-1.233978271484375,-14.697799682617188,-4.2265167236328125
1715093243592775000,2.70377490234375,0.870513916015625,-11.599700927734375,-0.2042694091796875
1715093243602754300,2.71375439453125,1.04290771484375,-12.614837646484375,-1.20025634765625
1715093243612703000,2.723702880859375,-0.8604888916015625,-14.259658813476562,-2.5888824462890625
1715093243622682000,2.73368212890625,-1.66253662109375,-13.785598754882812,-2.1435699462890625
1715093243632661500,2.74366162109375,-1.87322998046875,-11.958831787109375,-1.0661773681640625
1715093243642614500,2.753614501953125,-1.9235076904296875,-8.322036743164062,-0.276092529296875
1715093243652563200,2.763563232421875,-0.534881591796875,-7.2877349853515625,-0.1851043701171875
1715093243662542600,2.77354248046875,-0.7647247314453125,-8.226272583007812,0.2482452392578125
1715093243672521700,2.783521728515625,-2.373626708984375,-7.4553375244140625,0.02557373046875
1715093243682501000,2.793501220703125,-1.6697235107421875,-7.13690185546875,0.197967529296875
1715093243692449800,2.80344970703125,-1.0089263916015625,-7.40985107421875,0.1069793701171875
1715093243702429000,2.813428955078125,-0.7335968017578125,-7.89825439453125,-0.4580535888671875
1715093243712408300,2.823408203125,-0.3577117919921875,-8.839187622070312,-0.498748779296875
1715093243722357000,2.83335693359375,-0.2164459228515625,-9.780105590820312,-0.9368896484375
1715093243732336400,2.84333642578125,-0.695281982421875,-10.191909790039062,-1.205047607421875
1715093243742315500,2.8533154296875,-1.2196197509765625,-10.0745849609375,-1.4683990478515625
1715093243752264200,2.86326416015625,-1.5164947509765625,-8.446533203125,-1.8227386474609375
1715093243762243600,2.87324365234375,-1.7008514404296875,-10.488784790039062,-1.8490753173828125
1715093243772222700,2.88322265625,-2.3927764892578125,-11.345916748046875,-1.6216278076171875
1715093243782171400,2.89317138671875,-2.5986785888671875,-11.171142578125,-1.4253082275390625
1715093243792150800,2.90315087890625,-2.45263671875,-10.503158569335938,-1.2241973876953125
1715093243802130000,2.9131298828125,-2.2778472900390625,-9.849533081054688,-1.058990478515625
1715093243812078600,2.92307861328125,-1.72479248046875,-9.444915771484375,-1.05181884765625
1715093243822058000,2.93305810546875,-0.9921722412109375,-9.0594482421875,-0.7070465087890625
1715093243832037000,2.943037109375,-0.261932373046875,-8.8056640625,-0.0031585693359375
1715093243841986000,2.952986083984375,0.08282470703125,-8.712295532226562,0.7558135986328125
1715093243851965200,2.962965087890625,0.04931640625,-8.760177612304688,1.1580352783203125
1715093243861944300,2.9729443359375,-0.3074188232421875,-8.87030029296875,1.339996337890625
1715093243871893200,2.982893310546875,-0.7671051025390625,-8.942138671875,1.43096923828125
1715093243881872400,2.992872314453125,-1.1789093017578125,-9.104934692382812,1.3232421875
1715093243891851800,3.002851806640625,-1.39678955078125,-9.332382202148438,1.107757568359375
1715093243901800400,3.012800537109375,-1.4686126708984375,-9.674758911132812,0.889892578125
1715093243911779600,3.022779541015625,-1.4303131103515625,-9.780105590820312,0.6672210693359375
1715093243921759000,3.032759033203125,-1.38720703125,-10.014739990234375,0.53076171875
1715093243931707600,3.042707763671875,-1.4638214111328125,-10.658782958984375,0.245849609375
1715093243941686800,3.052686767578125,-1.760711669921875,-10.31640625,0.320068359375
1715093243951666200,3.062666259765625,-1.846893310546875,-10.029098510742188,0.109375
1715093243961645300,3.072645263671875,-1.803802490234375,-9.923751831054688,0.145294189453125
1715093243971594000,3.082593994140625,-1.7487335205078125,-9.61968994140625,-0.0031585693359375
1715093243981573400,3.092573486328125,-1.6218414306640625,-9.456893920898438,-0.0366668701171875
1715093243991573500,3.102573486328125,-1.382415771484375,-9.488006591796875,-0.0462493896484375
1715093244001529300,3.112529296875,-1.1573638916015625,-9.600540161132812,-0.0247039794921875
1715093244011508500,3.122508544921875,-0.9706268310546875,-9.916580200195312,0.0160064697265625
1715093244021487900,3.13248779296875,-0.9227294921875,-10.452880859375,0.1644439697265625
1715093244031436500,3.1424365234375,-0.9730072021484375,-11.3626708984375,0.231475830078125
1715093244041415700,3.152415771484375,-1.2579193115234375,-12.691452026367188,0.5666656494140625
1715093244051395000,3.16239501953125,-1.561981201171875,-14.144729614257812,0.8731231689453125
1715093244061343700,3.17234375,-1.8516845703125,-15.0281982421875,0.008819580078125
1715093244071323000,3.182322998046875,-1.71282958984375,-14.712158203125,-1.4875640869140625
1715093244081302300,3.19230224609375,-1.39678955078125,-13.704208374023438,-1.7892303466796875
1715093244091251000,3.2022509765625,-1.1454010009765625,-12.6507568359375,-1.02069091796875
1715093244101230000,3.21222998046875,-0.980194091796875,-11.681106567382812,0.29852294921875
1715093244111209500,3.22220947265625,-1.1358184814453125,-11.329147338867188,1.2490234375
1715093244121158100,3.232158203125,-1.4326934814453125,-10.819183349609375,0.9353790283203125
1715093244131137300,3.24213720703125,-1.6170501708984375,-8.764968872070312,-0.0390625
1715093244141116700,3.25211669921875,-1.8373260498046875,-6.787353515625,0.2602081298828125
1715093244151065300,3.2620654296875,-1.9426727294921875,-5.3005523681640625,0.4086456298828125
1715093244161044700,3.272044677734375,-1.772674560546875,-4.20880126953125,-0.6807098388671875
1715093244171024000,3.28202392578125,-1.286651611328125,-3.485748291015625,-1.0015411376953125
1715093244180972500,3.29197265625,-1.15496826171875,-2.504119873046875,-1.798797607421875
1715093244190952000,3.301951904296875,-0.5588226318359375,-2.1785125732421875,-1.31756591796875
1715093244200931000,3.31193115234375,-0.6114959716796875,-3.5791168212890625,-1.025482177734375
1715093244210879700,3.321879638671875,-0.2475738525390625,-5.8296661376953125,-1.1547698974609375
1715093244220859100,3.331859130859375,-0.1949005126953125,-6.7945404052734375,-1.765289306640625
1715093244230838300,3.34183837890625,-0.2523651123046875,-6.962127685546875,-1.5904998779296875
1715093244240817700,3.351817626953125,-0.656982421875,-7.151275634765625,-1.386993408203125
1715093244250766300,3.361766357421875,-1.506927490234375,-7.036346435546875,-1.2505340576171875
1715093244260745500,3.371745361328125,-2.2658843994140625,-7.0004425048828125,-1.2672882080078125
1715093244270724900,3.381724853515625,-2.4239044189453125,-7.2925262451171875,-1.4037628173828125
1715093244280704000,3.3917041015625,-2.227569580078125,-7.9413604736328125,-1.0087127685546875
1715093244290652700,3.401652587890625,-2.0384368896484375,-9.138458251953125,-0.7022552490234375
1715093244300632000,3.411632080078125,-1.80859375,-10.553436279296875,-0.900970458984375
1715093244310611200,3.421611083984375,-1.5380401611328125,-11.867843627929688,-0.8866119384765625
1715093244320560000,3.43156005859375,-1.6122589111328125,-13.309158325195312,-0.07977294921875
1715093244330539300,3.441539306640625,-1.6122589111328125,-15.032989501953125,0.6193389892578125
1715093244340518400,3.451518310546875,-1.53564453125,-15.614776611328125,0.38470458984375
1715093244350467300,3.46146728515625,-1.497344970703125,-13.98193359375,0.31048583984375
1715093244360446500,3.471446533203125,-1.698455810546875,-12.44964599609375,-1.1763153076171875
1715093244370425900,3.48142578125,-1.3153839111328125,-11.1400146484375,-1.8227386474609375
1715093244380374500,3.49137451171875,-0.589935302734375,-10.3594970703125,-2.337493896484375
1715093244390353700,3.501353759765625,0.209716796875,-10.191909790039062,-1.9472503662109375
1715093244400333000,3.5113330078125,1.0189666748046875,-10.931716918945312,-1.2888336181640625
1715093244410281700,3.52128173828125,1.6486358642578125,-11.37225341796875,-0.5226898193359375
1715093244420260900,3.5312607421875,1.361328125,-11.513504028320312,0.1381072998046875
1715093244430240300,3.541240234375,0.6765899658203125,-11.525482177734375,-0.074981689453125
1715093244440189000,3.55118896484375,-0.21405029296875,-10.773696899414062,-0.04864501953125
1715093244450168000,3.56116796875,-1.47100830078125,-9.87347412109375,0.2578125
1715093244460117000,3.571116943359375,-2.5292510986328125,-9.119308471679688,0.53314208984375
1715093244470096100,3.58109619140625,-3.1804656982421875,-8.74102783203125,0.7342681884765625
1715093244480075300,3.5910751953125,-3.2115936279296875,-8.719467163085938,0.7510223388671875
1715093244490024200,3.601024169921875,-2.75909423828125,-8.851150512695312,0.5187835693359375
1715093244500003300,3.61100341796875,-1.9187164306640625,-8.990020751953125,0.250640869140625
1715093244509982700,3.620982666015625,-1.11187744140625,-9.018753051757812,-0.027099609375
1715093244519961900,3.6309619140625,-0.46783447265625,-8.939743041992188,-0.24017333984375
1715093244529910500,3.64091064453125,0.00860595703125,-8.927764892578125,-0.288055419921875
1715093244539890000,3.650889892578125,0.14508056640625,-8.860733032226562,-0.139617919921875
1715093244549869000,3.660869140625,0.0325469970703125,-8.776931762695312,0.0950164794921875
1715093244559848400,3.670848388671875,-0.31939697265625,-8.652435302734375,0.4661102294921875
1715093244569797000,3.680797119140625,-0.6928863525390625,-8.614120483398438,0.8084869384765625
1715093244579776300,3.6907763671875,-1.032867431640625,-8.726654052734375,1.0814208984375
1715093244589755600,3.700755615234375,-1.38720703125,-8.937347412109375,1.27056884765625
1715093244599704300,3.710704345703125,-1.6409912109375,-9.205490112304688,1.31365966796875
1715093244609683500,3.720683349609375,-1.820556640625,-9.456893920898438,1.3112640380859375
1715093244619662800,3.730662841796875,-1.9690093994140625,-9.7034912109375,1.277740478515625
1715093244629611500,3.740611572265625,-2.1174468994140625,-9.933334350585938,1.16522216796875
1715093244639590700,3.750590576171875,-2.2084197998046875,-10.0745849609375,0.9090423583984375
1715093244649570000,3.760570068359375,-1.8229522705078125,-10.108108520507812,0.6337127685546875
1715093244659518700,3.770518798828125,-0.953857421875,-9.9884033203125,0.4014739990234375
1715093244669498000,3.780498046875,0.12353515625,-9.825592041015625,0.2889404296875
1715093244679477200,3.790477294921875,0.7651824951171875,-9.327606201171875,-0.043853759765625
1715093244689426000,3.800426025390625,2.15380859375,-8.465682983398438,0.7031402587890625
1715093244699405300,3.8104052734375,2.2400054931640625,-8.482452392578125,0.7342681884765625
1715093244709384400,3.820384521484375,1.725250244140625,-7.742645263671875,0.7294769287109375
1715093244719333000,3.8303330078125,1.7851104736328125,-7.28533935546875,1.519561767578125
1715093244729312500,3.8403125,1.497802734375,-7.9581146240234375,1.9457244873046875
1715093244739291600,3.850291748046875,0.446746826171875,-8.8367919921875,2.5849761962890625
1715093244749240300,3.860240234375,-0.3648834228515625,-9.844741821289062,3.0231170654296875
1715093244759219700,3.8702197265625,-1.075958251953125,-11.017913818359375,2.75018310546875
1715093244769168400,3.88016845703125,-1.597900390625,-12.011505126953125,2.6328582763671875
1715093244779147800,3.890147705078125,-0.4774169921875,-12.923690795898438,1.974456787109375
1715093244789127000,3.900126953125,0.8777008056640625,-13.9508056640625,1.4429473876953125
1715093244799106000,3.91010595703125,1.533721923828125,-15.04974365234375,1.2537994384765625
1715093244809085400,3.92008544921875,1.9000244140625,-15.624343872070312,1.1628265380859375
1715093244819034000,3.9300341796875,1.8449554443359375,-15.068893432617188,0.6815948486328125
1715093244829013500,3.940013427734375,0.6239166259765625,-13.40252685546875,-0.12286376953125
1715093244838992600,3.94999267578125,-1.1310272216796875,-12.128814697265625,-1.12603759765625
1715093244848941300,3.95994140625,-2.6034698486328125,-10.924530029296875,-1.870635986328125
1715093244858920700,3.969920654296875,-3.78619384765625,-9.243804931640625,-2.09808349609375
1715093244868899800,3.97989990234375,-4.4517822265625,-7.4242095947265625,-2.452423095703125
1715093244878848500,3.9898486328125,-4.619384765625,-6.116973876953125,-3.6662750244140625
1715093244888828000,3.999827880859375,-4.23870849609375,-5.841644287109375,-4.9806976318359375
1715093244898807000,4.00980712890625,-3.3073577880859375,-6.3970947265625,-5.89288330078125
1715093244908755700,4.019755615234375,-1.89239501953125,-7.6229248046875,-6.6087493896484375
1715093244918735000,4.029735107421875,-0.3864288330078125,-9.363510131835938,-7.19293212890625
1715093244928714200,4.03971435546875,0.54730224609375,-10.96044921875,-6.8026885986328125
1715093244938663000,4.049662841796875,0.35577392578125,-12.203033447265625,-5.5553131103515625
1715093244948642300,4.059642333984375,-0.09674072265625,-13.579696655273438,-3.9871063232421875
1715093244958621400,4.069621337890625,-0.5324859619140625,-14.515838623046875,-1.5904998779296875
1715093244968570400,4.0795703125,-2.9266815185546875,-13.3067626953125,2.6520233154296875
1715093244978549500,4.089549560546875,-5.332855224609375,-11.66912841796875,5.0677642822265625
1715093244988528600,4.099528564453125,-7.753387451171875,-12.942840576171875,2.1995086669921875
1715093244998477600,4.1094775390625,-8.548263549804688,-13.019454956054688,3.2074737548828125
1715093245008456700,4.119456787109375,-7.3990478515625,-11.99713134765625,3.7437744140625
1715093245018436000,4.12943603515625,-5.53875732421875,-10.754547119140625,3.07818603515625
1715093245028384800,4.139384765625,-3.125396728515625,-9.938125610351562,1.8451690673828125
1715093245038364000,4.149364013671875,-0.9394989013671875,-9.614898681640625,1.138885498046875
1715093245048343300,4.15934326171875,0.6765899658203125,-9.74658203125,0.53314208984375
1715093245058292000,4.1692919921875,1.4523162841796875,-10.419357299804688,-0.0989227294921875
1715093245068271000,4.17927099609375,0.805877685546875,-10.804824829101562,-0.5442352294921875
1715093245078250500,4.18925048828125,0.42041015625,-10.170364379882812,-0.13482666015625
1715093245088199200,4.19919921875,0.0157928466796875,-9.373092651367188,-0.0199127197265625
1715093245098178300,4.20917822265625,0.044525146484375,-8.295700073242188,-0.2808837890625
1715093245108157700,4.21915771484375,0.848968505859375,-7.66363525390625,-0.4173431396484375
1715093245118136800,4.22913671875,1.2799224853515625,-7.2063446044921875,-0.70465087890625
1715093245128116200,4.2391162109375,1.2631683349609375,-6.993255615234375,-0.9560394287109375
1715093245138065000,4.24906494140625,0.9255828857421875,-7.1536712646484375,-1.48516845703125
1715093245148044000,4.2590439453125,0.4539337158203125,-7.120147705078125,-1.1140594482421875
1715093245158023400,4.2690234375,0.4060516357421875,-7.282958984375,-1.09490966796875
1715093245167972000,4.27897216796875,0.573638916015625,-7.5415191650390625,-1.2672882080078125
1715093245177951500,4.288951416015625,0.26239013671875,-7.4122314453125,-1.6479644775390625
1715093245187930600,4.2989306640625,0.86334228515625,-6.8184814453125,-0.434112548828125
1715093245197879300,4.30887939453125,1.270355224609375,-6.9477691650390625,-0.8554840087890625
1715093245207858700,4.318858642578125,1.524139404296875,-6.950164794921875,-0.8243560791015625
1715093245217807400,4.328807373046875,1.7372283935546875,-6.9381866455078125,-0.762115478515625
1715093245227786500,4.338786376953125,1.799468994140625,-6.962127685546875,-0.6687469482421875
1715093245237766000,4.348765869140625,1.7515869140625,-7.036346435546875,-0.5107269287109375
1715093245247714600,4.358714599609375,1.6438446044921875,-7.3188629150390625,-0.2569427490234375
1715093245257693700,4.368693603515625,1.641448974609375,-7.6301116943359375,0.0327606201171875
1715093245267673000,4.378673095703125,1.715667724609375,-7.912628173828125,0.4278106689453125
1715093245277621800,4.388621826171875,1.8904571533203125,-8.197540283203125,0.918609619140625
1715093245287601200,4.39860107421875,2.2567596435546875,-8.408233642578125,1.7182769775390625
1715093245297580300,4.408580322265625,1.883270263671875,-9.083389282226562,2.3671112060546875
1715093245307529000,4.418529052734375,2.022125244140625,-9.258163452148438,3.786865234375
1715093245317508400,4.42850830078125,1.926361083984375,-9.430557250976562,5.2209930419921875
1715093245327487500,4.438487548828125,1.70849609375,-9.686737060546875,6.1834716796875
1715093245337436200,4.448436279296875,1.30865478515625,-9.751373291015625,6.79638671875
1715093245347415600,4.45841552734375,0.6287078857421875,-9.76812744140625,6.6910400390625
1715093245357394700,4.468394775390625,-0.293060302734375,-10.318801879882812,5.556182861328125
1715093245367374000,4.4783740234375,-0.4319305419921875,-11.48956298828125,4.014312744140625
1715093245377322800,4.48832275390625,-0.249969482421875,-12.856658935546875,2.1133270263671875
1715093245387302000,4.498302001953125,-0.07757568359375,-14.484710693359375,0.0638885498046875
1715093245397281300,4.50828125,0.59039306640625,-16.512603759765625,-1.5210723876953125
1715093245407260400,4.518260498046875,1.830596923828125,-17.807861328125,-2.272857666015625
1715093245417209000,4.528208984375,5.32135009765625,-17.958694458007812,-1.4300994873046875
1715093245427188500,4.5381884765625,7.907073974609375,-17.657028198242188,1.7996826171875
1715093245437167600,4.548167724609375,2.99896240234375,-17.314651489257812,4.0214996337890625
1715093245447116300,4.5581162109375,-0.5707855224609375,-16.038543701171875,3.3774566650390625
1715093245457095700,4.568095703125,-1.5260772705078125,-14.42724609375,3.6934967041015625
1715093245467074800,4.57807470703125,-0.5492401123046875,-13.900527954101562,3.1548004150390625
1715093245477023700,4.588023681640625,-2.47418212890625,-14.264450073242188,-0.8339385986328125
1715093245487003000,4.5980029296875,-3.484527587890625,-13.041000366210938,-2.399749755859375
1715093245496982000,4.60798193359375,-2.0767364501953125,-9.969253540039062,-1.7533111572265625
1715093245506931000,4.617930908203125,-1.6218414306640625,-8.472869873046875,0.4828643798828125
1715093245516910000,4.62791015625,-1.0520172119140625,-7.2398529052734375,2.2450103759765625
1715093245526889500,4.637889404296875,-1.0304718017578125,-6.073883056640625,3.643218994140625
1715093245536838100,4.647838134765625,-1.063995361328125,-5.1640777587890625,3.707855224609375
1715093245546817300,4.6578173828125,-0.757537841796875,-4.321319580078125,2.1444549560546875
1715093245556796700,4.667796630859375,-0.60430908203125,-4.5703277587890625,0.537933349609375
1715093245566745300,4.677745361328125,-0.2068634033203125,-6.4354095458984375,-0.551422119140625
1715093245576724500,4.687724365234375,0.3054962158203125,-8.197540283203125,-2.179473876953125
1715093245586704000,4.697703857421875,0.6191253662109375,-9.53350830078125,-3.5010833740234375
1715093245596652500,4.707652587890625,0.626312255859375,-10.50555419921875,-4.576080322265625
1715093245606631700,4.717631591796875,-0.0560302734375,-10.481597900390625,-5.074066162109375
1715093245616611000,4.727611083984375,-1.3297576904296875,-9.59814453125,-4.9759063720703125
1715093245626559700,4.737559814453125,-2.395172119140625,-8.618911743164062,-3.774017333984375
1715093245636539100,4.7475390625,-1.06878662109375,-7.934173583984375,-1.956817626953125
1715093245646518300,4.757518310546875,0.1259307861328125,-7.141693115234375,-1.4516448974609375
1715093245656467000,4.767467041015625,0.6861724853515625,-6.4617462158203125,-1.49713134765625
1715093245666446300,4.7774462890625,0.9519195556640625,-6.033172607421875,-1.9232940673828125
1715093245676425500,4.787425537109375,0.6861724853515625,-6.212738037109375,-2.1268157958984375
1715093245686404900,4.79740478515625,0.18817138671875,-6.8543853759765625,-2.28961181640625
1715093245696353500,4.807353515625,-0.3002471923828125,-7.24224853515625,-2.2369384765625
1715093245706332700,4.817332763671875,-1.1214599609375,-8.082611083984375,-1.480377197265625
1715093245716312000,4.82731201171875,-1.2818603515625,-9.169586181640625,-1.2505340576171875
1715093245726260700,4.8372607421875,-1.6122589111328125,-9.538284301757812,0.008819580078125
1715093245736239900,4.847239990234375,-1.9187164306640625,-9.780105590820312,0.7845458984375
1715093245746219300,4.85721923828125,-1.9761810302734375,-10.060226440429688,1.186767578125
1715093245756168000,4.86716796875,-1.866058349609375,-9.974029541015625,1.6751861572265625
1715093245766147000,4.87714697265625,-1.4734039306640625,-9.818405151367188,2.048675537109375
1715093245776126500,4.88712646484375,-1.1310272216796875,-9.552658081054688,2.216278076171875
1715093245786075100,4.8970751953125,-0.9466705322265625,-9.222259521484375,2.2450103759765625
1715093245796054300,4.90705419921875,-0.989776611328125,-8.987625122070312,2.2881011962890625
1715093245806033700,4.91703369140625,-1.1573638916015625,-8.822418212890625,2.0774078369140625
1715093245815982300,4.926982421875,-1.4805908203125,-8.808059692382812,1.943328857421875
1715093245825961700,4.936961669921875,-2.0695648193359375,-8.939743041992188,1.816436767578125
1715093245835940900,4.94694091796875,-2.459808349609375,-9.231826782226562,1.6799774169921875
1715093245845889500,4.9568896484375,-2.6034698486328125,-9.643630981445312,1.816436767578125
1715093245855869000,4.966868896484375,-2.469390869140625,-9.9884033203125,1.7613677978515625
1715093245865848000,4.97684814453125,-2.490936279296875,-10.354705810546875,1.88348388671875
1715093245875796700,4.986796630859375,-2.1916656494140625,-10.668350219726562,1.9983978271484375
1715093245885776100,4.996776123046875,-1.509307861328125,-10.627655029296875,1.5339202880859375
1715093245895755300,5.00675537109375,-0.5133209228515625,-10.275711059570312,0.83721923828125
1715093245905704000,5.016703857421875,0.3653411865234375,-9.44012451171875,1.0407257080078125
1715093245915683300,5.026683349609375,2.3836517333984375,-9.653213500976562,1.138885498046875
1715093245925662500,5.036662353515625,5.2183990478515625,-8.451324462890625,1.244232177734375
1715093245935611400,5.046611328125,6.2239532470703125,-6.952545166015625,1.70391845703125
1715093245945590500,5.056590576171875,5.3668365478515625,-5.6908111572265625,2.4724578857421875
1715093245955569700,5.066569580078125,2.5847625732421875,-6.59820556640625,2.2976837158203125
1715093245965549000,5.076549072265625,-0.503753662109375,-8.817642211914062,1.5865936279296875
1715093245975497700,5.086497802734375,-1.751129150390625,-11.52069091796875,0.4014739990234375
1715093245985477000,5.09647705078125,-1.581146240234375,-13.584487915039062,-0.740570068359375
1715093245995456300,5.106456298828125,-0.1518096923828125,-14.98748779296875,-1.619232177734375
1715093246005435400,5.116435302734375,1.6965179443359375,-14.345840454101562,-1.691070556640625
1715093246015384300,5.12638427734375,0.990234375,-12.85186767578125,-0.5442352294921875
1715093246025363500,5.136363525390625,0.3653411865234375,-11.264511108398438,0.801300048828125
1715093246035342800,5.1463427734375,-0.4654388427734375,-9.68194580078125,2.22344970703125
1715093246045291500,5.15629150390625,-1.5739593505859375,-8.18316650390625,2.482025146484375
1715093246055270700,5.166270751953125,-2.82373046875,-7.0483245849609375,1.2585906982421875
1715093246065250000,5.17625,-2.893157958984375,-6.6939849853515625,-0.9775848388671875
1715093246075198700,5.18619873046875,-2.9626007080078125,-6.930999755859375,-3.0581512451171875
1715093246085177900,5.196177734375,-2.2922210693359375,-7.311676025390625,-4.9639434814453125
1715093246095157200,5.2061572265625,-2.5890960693359375,-8.36273193359375,-6.7284698486328125
1715093246105106000,5.21610595703125,-3.3480682373046875,-10.048248291015625,-8.062042236328125
1715093246115085000,5.2260849609375,-3.7454986572265625,-12.423309326171875,-8.715652465820312
1715093246125034000,5.236033935546875,-3.3217315673828125,-15.0712890625,-8.39483642578125
1715093246135013000,5.24601318359375,-3.3504638671875,-17.704910278320312,-7.5185546875
1715093246144992500,5.255992431640625,-4.6505126953125,-19.744766235351562,-4.9854888916015625
1715093246154941200,5.265941162109375,-5.8571929931640625,-20.367263793945312,-0.4269256591796875
1715093246164920300,5.27592041015625,-7.7581787109375,-19.711257934570312,2.5059661865234375
1715093246174899700,5.285899658203125,-9.326385498046875,-17.367324829101562,5.005523681640625
1715093246184848400,5.295848388671875,-8.849945068359375,-14.092056274414062,7.4116973876953125
1715093246194827500,5.30582763671875,-8.77093505859375,-11.3507080078125,6.29119873046875
1715093246204807000,5.315806884765625,-5.8595733642578125,-8.238235473632812,6.86102294921875
1715093246214755600,5.325755615234375,-1.9426727294921875,-6.5455322265625,6.6048431396484375
1715093246224734700,5.335734619140625,0.774749755859375,-6.3899078369140625,4.6727294921875
1715093246234714000,5.345714111328125,1.1721954345703125,-7.005218505859375,2.7334136962890625
1715093246244693200,5.355693359375,1.3325958251953125,-7.9676971435546875,2.39105224609375
1715093246254642000,5.365641845703125,1.361328125,-8.685958862304688,2.0391082763671875
1715093246264621300,5.375621337890625,1.5169525146484375,-9.0474853515625,1.615325927734375
1715093246274600400,5.385600341796875,1.8712921142578125,-9.095367431640625,0.590606689453125
1715093246284579800,5.395579833984375,2.2663421630859375,-8.685958862304688,-0.5107269287109375
1715093246294528500,5.405528564453125,2.0029754638671875,-7.850372314453125,-1.2577056884765625
1715093246304507600,5.415507568359375,1.461883544921875,-7.1273345947265625,-1.777252197265625
1715093246314487000,5.425487060546875,0.8226318359375,-6.76580810546875,-2.2177886962890625
1715093246324435700,5.435435791015625,0.4635009765625,-6.7059478759765625,-2.1914520263671875
1715093246334415000,5.4454150390625,-0.0320892333984375,-6.6580657958984375,-2.093292236328125
1715093246344394200,5.455394287109375,-0.1637725830078125,-6.476104736328125,-1.9280853271484375
1715093246354343000,5.465343017578125,-0.0057525634765625,-6.2773895263671875,-1.36065673828125
1715093246364322300,5.475322265625,0.245635986328125,-6.3468170166015625,-1.205047607421875
1715093246374301400,5.485301513671875,0.8250274658203125,-6.370758056640625,-1.0302581787109375
1715093246384250000,5.49525,1.4906158447265625,-6.444976806640625,-1.1882781982421875
1715093246394229500,5.5052294921875,1.9718475341796875,-6.56707763671875,-1.54022216796875
1715093246404208600,5.515208740234375,2.359710693359375,-6.4617462158203125,-1.4420623779296875
1715093246414157300,5.5251572265625,2.65899658203125,-6.370758056640625,-1.2409515380859375
1715093246424136700,5.53513671875,2.8217926025390625,-6.2247161865234375,-0.867462158203125
1715093246434115800,5.54511572265625,2.9654541015625,-6.253448486328125,-0.2473602294921875
1715093246444064800,5.555064697265625,2.89361572265625,-6.5359649658203125,0.6887664794921875
1715093246454044000,5.5650439453125,2.63983154296875,-7.1560516357421875,2.11572265625
1715093246464023000,5.57502294921875,2.71405029296875,-7.457733154296875,4.5075225830078125
1715093246473972000,5.584971923828125,2.81939697265625,-7.4146270751953125,7.1650848388671875
1715093246483951000,5.594951171875,1.979034423828125,-8.494415283203125,8.850601196289062
1715093246493899800,5.604899658203125,1.6582183837890625,-10.270919799804688,10.200942993164062
1715093246503879200,5.614879150390625,1.0788116455078125,-12.34429931640625,10.7899169921875
1715093246513858300,5.6248583984375,-0.6857147216796875,-14.453582763671875,8.898483276367188
1715093246523837700,5.634837646484375,-1.9761810302734375,-16.56048583984375,5.4053497314453125
1715093246533816800,5.64481689453125,-1.9690093994140625,-17.752792358398438,2.201904296875
1715093246543765500,5.654765625,-1.3465118408203125,-17.54449462890625,0.219512939453125
1715093246553745000,5.664744873046875,1.8066558837890625,-17.238037109375,-0.783660888671875
1715093246563724000,5.67472412109375,6.2024078369140625,-14.597244262695312,-0.55621337890625
1715093246573672700,5.684672607421875,5.7882080078125,-11.544631958007812,1.6081390380859375
1715093246583652000,5.694652099609375,5.29022216796875,-12.188674926757812,3.8179931640625
1715093246593631200,5.70463134765625,3.8465118408203125,-15.15509033203125,4.9983367919921875
1715093246603580000,5.714579833984375,2.08917236328125,-15.971511840820312,4.2321929931640625
1715093246613559300,5.724559326171875,-2.057586669921875,-15.516616821289062,1.9337615966796875
1715093246623538400,5.734538330078125,-5.3687744140625,-16.316268920898438,-1.0302581787109375
1715093246633487400,5.7444873046875,-5.323272705078125,-17.99700927734375,-2.1124420166015625
1715093246643466500,5.754466552734375,-4.4374237060546875,-16.02178955078125,-2.780426025390625
1715093246653445600,5.764445556640625,-2.4933319091796875,-11.101699829101562,-2.483551025390625
1715093246663394600,5.77439453125,-0.5133209228515625,-8.7003173828125,-0.0462493896484375
1715093246673373700,5.784373779296875,0.4802703857421875,-7.553497314453125,1.9983978271484375
1715093246683353000,5.79435302734375,0.07086181640625,-6.191192626953125,3.2026824951171875
1715093246693301800,5.8043017578125,-0.769500732421875,-4.36920166015625,3.231414794921875
1715093246703281000,5.814281005859375,-0.9394989013671875,-3.030853271484375,1.287322998046875
1715093246713260300,5.82426025390625,-0.6641693115234375,-2.6884765625,-0.393402099609375
1715093246723209000,5.834208984375,-0.5803680419921875,-4.5032806396484375,-0.4915618896484375
1715093246733188000,5.84418798828125,-0.1685638427734375,-7.74981689453125,-2.538604736328125
1715093246743167500,5.85416748046875,0.4060516357421875,-9.562225341796875,-4.260040283203125
1715093246753116200,5.8641162109375,-0.0584259033203125,-11.463226318359375,-6.5010223388671875
1715093246763095300,5.87409521484375,-1.4997406005859375,-12.741729736328125,-8.387649536132812
1715093246773074700,5.88407470703125,-2.7159881591796875,-12.382598876953125,-8.615097045898438
1715093246783023400,5.8940234375,-1.8516845703125,-10.172760009765625,-6.510589599609375
1715093246793002800,5.904002685546875,-0.091949462890625,-7.510406494140625,-3.6183929443359375
1715093246802982000,5.91398193359375,1.0931854248046875,-5.7530517578125,-2.272857666015625
1715093246812961000,5.9239609375,1.8282012939453125,-4.8839569091796875,-1.628814697265625
1715093246822910000,5.933909912109375,2.062835693359375,-5.28857421875,-1.8419036865234375
1715093246832889000,5.94388916015625,1.6797637939453125,-5.2790069580078125,-0.6495819091796875
1715093246842868500,5.953868408203125,1.1314849853515625,-6.8184814453125,-0.8076019287109375
1715093246852847600,5.96384765625,0.2216949462890625,-8.611740112304688,0.22430419921875
1715093246862796300,5.97379638671875,-0.7623291015625,-9.997970581054688,1.5650482177734375
1715093246872775700,5.983775634765625,-1.54522705078125,-11.269302368164062,2.0127716064453125
1715093246882754800,5.9937548828125,-2.18927001953125,-11.793624877929688,2.6376495361328125
1715093246892703500,6.003703369140625,-2.1365966796875,-11.286056518554688,2.8914337158203125
1715093246902683000,6.013682861328125,-1.96661376953125,-10.503158569335938,2.4892120361328125
1715093246912662000,6.023662109375,-1.894775390625,-9.622085571289062,2.2833099365234375
1715093246922610700,6.033610595703125,-1.5739593505859375,-8.92059326171875,2.2138824462890625
1715093246932590000,6.043590087890625,-1.181304931640625,-8.487228393554688,2.0821990966796875
1715093246942569200,6.0535693359375,-0.93231201171875,-8.240631103515625,2.0247344970703125
1715093246952518100,6.06351806640625,-0.8916168212890625,-8.128097534179688,2.2138824462890625
1715093246962497300,6.073497314453125,-1.011322021484375,-8.142471313476562,2.7645416259765625
1715093246972446000,6.083446044921875,-1.0472412109375,-8.195144653320312,3.042266845703125
1715093246982425300,6.09342529296875,-1.4326934814453125,-8.367523193359375,3.2026824951171875
1715093246992404500,6.103404541015625,-1.983367919921875,-8.611740112304688,3.6144866943359375
1715093247002353200,6.113353271484375,-2.153350830078125,-8.939743041992188,3.6240692138671875
1715093247012332500,6.12333251953125,-2.0025177001953125,-9.430557250976562,3.3654937744140625
1715093247022311700,6.133311767578125,-1.9809722900390625,-9.753768920898438,3.0231170654296875
1715093247032260400,6.14326025390625,-1.782257080078125,-9.89501953125,2.8866424560546875
1715093247042239700,6.15323974609375,-1.2076416015625,-9.959671020507812,2.33837890625
1715093247052219000,6.163218994140625,-0.1110992431640625,-9.940521240234375,1.498016357421875
1715093247062167600,6.17316748046875,1.23443603515625,-9.511947631835938,1.23944091796875
1715093247072147000,6.18314697265625,2.814605712890625,-8.733840942382812,0.8252410888671875
1715093247082126000,6.1931259765625,4.5121002197265625,-7.6301116943359375,0.7606048583984375
1715093247092105500,6.20310546875,4.9191131591796875,-7.072265625,0.9665069580078125
1715093247102054100,6.21305419921875,4.641387939453125,-6.9956512451171875,0.2219085693359375
1715093247112033300,6.223033203125,2.96783447265625,-8.16162109375,-0.3359527587890625
1715093247122012700,6.2330126953125,0.561676025390625,-10.132049560546875,-0.3551025390625
1715093247131991800,6.24299169921875,-0.9825897216796875,-11.92291259765625,-0.19708251953125
1715093247141940700,6.252940673828125,-1.3728485107421875,-13.098464965820312,-0.1635589599609375
1715093247151919900,6.262919921875,-0.2691192626953125,-13.668289184570312,-0.4101715087890625
1715093247161899000,6.27289892578125,0.6717987060546875,-13.474349975585938,-0.3646697998046875
1715093247171848000,6.282847900390625,0.7340545654296875,-12.308380126953125,0.5810394287109375
1715093247181827000,6.2928271484375,-0.3960113525390625,-10.596527099609375,1.6919403076171875
1715093247191806500,6.302806396484375,-0.9730072021484375,-9.622085571289062,2.06304931640625
1715093247201755100,6.312755126953125,-0.4319305419921875,-8.537506103515625,2.8770751953125
1715093247211734300,6.322734375,-0.1901092529296875,-7.4553375244140625,2.7741241455078125
1715093247221713700,6.332713623046875,-1.226806640625,-7.2805633544921875,1.519561767578125
1715093247231662300,6.342662353515625,-1.509307861328125,-7.6660308837890625,-0.3694610595703125
1715093247241641500,6.352641357421875,-1.4901580810546875,-8.195144653320312,-1.91851806640625
1715093247251620900,6.362620849609375,-1.820556640625,-9.253372192382812,-3.2808074951171875
1715093247261569500,6.372569580078125,-2.553192138671875,-10.48638916015625,-4.9639434814453125
1715093247271548700,6.382548583984375,-3.8292999267578125,-12.373031616210938,-6.4914398193359375
1715093247281528000,6.392528076171875,-4.693603515625,-14.487106323242188,-6.77874755859375
1715093247291476700,6.402476806640625,-5.56988525390625,-15.54534912109375,-6.93914794921875
1715093247301456100,6.4124560546875,-6.26898193359375,-17.587600708007812,-5.5936126708984375
1715093247311435300,6.422435302734375,-5.735076904296875,-19.431137084960938,-1.1787109375
1715093247321384000,6.432384033203125,-5.1700439453125,-20.044052124023438,2.60174560546875
1715093247331363300,6.44236328125,-5.58184814453125,-19.47662353515625,3.75335693359375
1715093247341312000,6.45231201171875,-6.4724884033203125,-17.657028198242188,5.872222900390625
1715093247351291100,6.462291015625,-5.8069000244140625,-14.084884643554688,9.865753173828125
1715093247361270500,6.4722705078125,-4.6959991455078125,-10.515121459960938,8.484298706054688
1715093247371249700,6.482249755859375,-2.7830352783203125,-7.3667449951171875,6.928070068359375
1715093247381198300,6.4921982421875,0.0301513671875,-5.757843017578125,4.7182159423828125
1715093247391177700,6.502177734375,1.14825439453125,-5.3843536376953125,3.7557525634765625
1715093247401156900,6.512156982421875,0.7723541259765625,-6.413848876953125,3.4660491943359375
1715093247411136300,6.52213623046875,0.0469207763671875,-7.6564483642578125,2.75018310546875
1715093247421085000,6.5320849609375,0.2169036865234375,-8.020370483398438,2.312042236328125
1715093247431064000,6.54206396484375,1.2727508544921875,-7.9988250732421875,1.509979248046875
1715093247441043500,6.55204345703125,2.4722442626953125,-7.88629150390625,0.7222900390625
1715093247450992000,6.5619921875,3.2551422119140625,-7.34759521484375,0.0040283203125
1715093247460971300,6.57197119140625,3.0971221923828125,-6.550323486328125,-0.6974639892578125
1715093247470950700,6.58195068359375,2.412384033203125,-6.0714874267578125,-1.418121337890625
1715093247480899300,6.5918994140625,1.629486083984375,-5.999664306640625,-1.9807586669921875
1715093247490878700,6.601878662109375,1.1195220947265625,-6.274993896484375,-2.2704620361328125
1715093247500857900,6.61185791015625,0.8920745849609375,-6.5096282958984375,-2.1818695068359375
1715093247510806500,6.621806640625,1.0955810546875,-6.7753753662109375,-2.21539306640625
1715093247520786000,6.631785888671875,0.5712432861328125,-7.03155517578125,-2.46917724609375
1715093247530765000,6.64176513671875,0.6119537353515625,-6.8687591552734375,-2.1339874267578125
1715093247540713700,6.651713623046875,1.32781982421875,-6.835235595703125,-2.1028594970703125
1715093247550693000,6.661693115234375,2.0388946533203125,-6.8017120361328125,-2.1818695068359375
1715093247560672300,6.67167236328125,2.632659912109375,-6.9597320556640625,-1.9759674072265625
1715093247570621000,6.681620849609375,2.91278076171875,-7.2278900146484375,-1.264892578125
1715093247580600300,6.691600341796875,2.9702301025390625,-7.6085662841796875,-0.402984619140625
1715093247590579500,6.701579345703125,2.7954559326171875,-8.290908813476562,0.6720123291015625
1715093247600528400,6.7115283203125,2.3022613525390625,-8.894256591796875,2.0462799072265625
1715093247610507500,6.721507568359375,1.8449554443359375,-8.944534301757812,3.6839141845703125
1715093247620486700,6.731486572265625,1.6486358642578125,-8.5518798828125,6.288818359375
1715093247630435600,6.741435546875,1.174591064453125,-8.43695068359375,8.728500366210938
1715093247640414700,6.751414794921875,0.4802703857421875,-9.389846801757812,9.916030883789062
1715093247650394000,6.76139404296875,0.542510986328125,-10.675537109375,10.387680053710938
1715093247660373200,6.771373291015625,0.6861724853515625,-12.076141357421875,9.755615234375
1715093247670322000,6.781322021484375,0.9351654052734375,-13.29718017578125,8.242477416992188
1715093247680301300,6.79130126953125,0.4658966064453125,-14.381759643554688,5.3933868408203125
1715093247690280400,6.801280517578125,-0.9107666015625,-15.538162231445312,2.1300811767578125
1715093247700259800,6.811259765625,-1.01611328125,-16.450347900390625,-0.446075439453125
1715093247710208500,6.82120849609375,2.6374359130859375,-16.007415771484375,-2.5027008056640625
1715093247720187600,6.831187744140625,6.0970611572265625,-12.859054565429688,-2.727752685546875
1715093247730167000,6.8411669921875,8.014816284179688,-8.252609252929688,0.5499114990234375
1715093247740115700,6.85111572265625,4.8544769287109375,-6.12176513671875,4.952850341796875
1715093247750094800,6.8610947265625,1.6151123046875,-7.8408050537109375,7.1267852783203125
1715093247760074200,6.87107421875,1.20330810546875,-9.521530151367188,7.46197509765625
1715093247770023000,6.88102294921875,0.29351806640625,-10.895797729492188,7.7779998779296875
1715093247780002000,6.891001953125,-5.7326812744140625,-14.841445922851562,5.1467742919921875
1715093247789981400,6.9009814453125,-7.202728271484375,-19.380859375,2.3671112060546875
1715093247799930000,6.91093017578125,-7.329620361328125,-21.621826171875,-0.898590087890625
1715093247809909500,6.920909423828125,-4.9234466552734375,-18.267547607421875,-3.5130462646484375
1715093247819888600,6.930888671875,-0.958648681640625,-12.248519897460938,-1.9807586669921875
1715093247829837300,6.94083740234375,0.9303741455078125,-9.212677001953125,-0.07977294921875
1715093247839816700,6.950816650390625,1.935943603515625,-6.6101837158203125,1.0742340087890625
1715093247849795800,6.9607958984375,1.725250244140625,-4.1058502197265625,0.1764068603515625
1715093247859744500,6.97074462890625,0.9351654052734375,-2.8560791015625,-1.6096649169921875
1715093247869724000,6.980723876953125,0.815460205078125,-3.0595855712890625,-3.48431396484375
1715093247879703000,6.990703125,1.2679595947265625,-4.1441497802734375,-3.5393829345703125
1715093247889651700,7.000651611328125,1.275146484375,-7.2135162353515625,-4.3797454833984375
1715093247899631000,7.010631103515625,1.0620574951171875,-10.11529541015625,-4.851409912109375
1715093247909610200,7.0206103515625,0.647857666015625,-12.3035888671875,-4.0996246337890625
1715093247919559000,7.030558837890625,-0.4750213623046875,-13.804763793945312,-3.953582763671875
1715093247929538300,7.040538330078125,-2.2084197998046875,-13.081710815429688,-3.8985137939453125
1715093247939517400,7.050517333984375,-2.4095306396484375,-11.221420288085938,-3.2520904541015625
1715093247949466400,7.06046630859375,-0.879638671875,-9.507171630859375,-2.7876129150390625
1715093247959445500,7.070445556640625,0.0588836669921875,-8.142471313476562,-2.3087615966796875
1715093247969424600,7.080424560546875,0.87530517578125,-7.194366455078125,-2.031036376953125
1715093247979404000,7.090404052734375,1.4259796142578125,-6.411468505859375,-1.873016357421875
1715093247989352700,7.100352783203125,1.143463134765625,-6.5167999267578125,-2.4452362060546875
1715093247999332000,7.11033203125,0.2073211669921875,-7.0339508056640625,-2.3853759765625
1715093248009311200,7.120311279296875,-0.90118408203125,-7.5870208740234375,-1.0733642578125
1715093248019260000,7.130260009765625,-2.1365966796875,-8.642852783203125,-0.2856597900390625
1715093248029239300,7.1402392578125,-2.605865478515625,-9.631668090820312,0.4278106689453125
1715093248039218400,7.150218505859375,-2.2299652099609375,-10.345138549804688,1.2681732177734375
1715093248049167000,7.1601669921875,-1.4686126708984375,-10.57977294921875,2.2138824462890625
1715093248059146500,7.170146484375,-1.0663909912109375,-10.574981689453125,2.714263916015625
1715093248069125600,7.180125732421875,-1.00653076171875,-10.031494140625,3.056640625
1715093248079074300,7.19007421875,-0.9730072021484375,-9.198318481445312,3.0255126953125
1715093248089053700,7.2000537109375,-1.200469970703125,-8.4154052734375,3.1643829345703125
1715093248099032800,7.21003271484375,-1.3680572509765625,-7.8192596435546875,3.0877685546875
1715093248108981800,7.219981689453125,-1.4781951904296875,-7.448150634765625,2.9369354248046875
1715093248118961000,7.2299609375,-1.672119140625,-7.4290008544921875,2.702301025390625
1715093248128940000,7.23993994140625,-1.856475830078125,-7.517578125,2.8746795654296875
1715093248138889000,7.249888916015625,-1.672119140625,-7.689971923828125,3.0279083251953125
1715093248148868000,7.2598681640625,-1.8804168701171875,-8.10894775390625,3.1739501953125
1715093248158847500,7.269847412109375,-2.2347564697265625,-8.638076782226562,3.3822479248046875
1715093248168796200,7.279796142578125,-1.820556640625,-9.013961791992188,3.142822265625
1715093248178775300,7.289775390625,-1.2890472412109375,-9.255767822265625,2.503570556640625
1715093248188754700,7.299754638671875,-0.67852783203125,-9.212677001953125,2.0462799072265625
1715093248198703400,7.309703369140625,0.9926300048828125,-8.863128662109375,1.0478973388671875
1715093248208682500,7.3196826171875,2.7643280029296875,-8.4034423828125,0.31048583984375
1715093248218662000,7.329661865234375,4.5791473388671875,-7.9365692138671875,0.231475830078125
1715093248228641000,7.33964111328125,4.9191131591796875,-7.565460205078125,0.0231781005859375
1715093248238589700,7.349589599609375,4.1936798095703125,-7.517578125,0.4373779296875
1715093248248569000,7.359569091796875,2.0867767333984375,-8.037124633789062,1.2466278076171875
1715093248258548200,7.36954833984375,0.963897705078125,-9.638839721679688,1.4908294677734375
1715093248268527600,7.379527587890625,0.6334991455078125,-11.793624877929688,1.53631591796875
1715093248278476300,7.389476318359375,0.2528228759765625,-13.361831665039062,1.593780517578125
1715093248288455400,7.399455322265625,0.9567108154296875,-14.05615234375,1.7063140869140625
1715093248298434800,7.409434814453125,2.378875732421875,-13.330703735351562,2.5155487060546875
1715093248308383500,7.419383544921875,1.0883941650390625,-12.001922607421875,3.906585693359375
1715093248318362600,7.429362548828125,-1.3513031005859375,-11.286056518554688,5.0462188720703125
1715093248328342000,7.439342041015625,-2.4095306396484375,-10.527099609375,5.3000030517578125
1715093248338290700,7.449290771484375,-3.726348876953125,-9.516738891601562,5.2880401611328125
1715093248348270000,7.45927001953125,-4.9497833251953125,-8.724258422851562,3.906585693359375
1715093248358249200,7.469249267578125,-4.6433258056640625,-7.7139129638671875,1.3016815185546875
1715093248368198000,7.479197998046875,-3.1158294677734375,-7.34759521484375,-1.8634490966796875
1715093248378177300,7.48917724609375,-2.20123291015625,-7.92938232421875,-4.7580413818359375
1715093248388156400,7.499156494140625,-2.057586669921875,-9.193527221679688,-7.3006744384765625
1715093248398105000,7.50910498046875,-2.258697509765625,-11.207046508789062,-9.596725463867188
1715093248408084500,7.51908447265625,-2.3448944091796875,-13.886154174804688,-11.349273681640625
1715093248418063600,7.529063720703125,-3.0583648681640625,-16.273178100585938,-11.44024658203125
1715093248428012300,7.53901220703125,-3.7766265869140625,-18.468658447265625,-10.796218872070312
1715093248437991700,7.54899169921875,-3.9729461669921875,-19.385635375976562,-7.576019287109375
1715093248447970800,7.558970703125,-4.054351806640625,-18.911590576171875,-1.4875640869140625
1715093248457919700,7.568919677734375,-5.5363616943359375,-17.487045288085938,2.5059661865234375
1715093248467899000,7.57889892578125,-7.645660400390625,-15.157485961914062,5.091705322265625
1715093248477847600,7.58884765625,-9.2689208984375,-12.183883666992188,8.144317626953125
1715093248487827000,7.598826904296875,-8.869094848632812,-10.314010620117188,10.17938232421875
1715093248497806000,7.60880615234375,-6.3863067626953125,-8.240631103515625,11.206497192382812
1715093248507785500,7.618785400390625,-2.617828369140625,-6.74664306640625,9.729278564453125
1715093248517734100,7.628734130859375,-0.79583740234375,-6.169647216796875,7.236907958984375
1715093248527713300,7.63871337890625,0.4611053466796875,-6.73468017578125,4.88580322265625
1715093248537692700,7.648692626953125,1.406829833984375,-7.596588134765625,2.771728515625
1715093248547671800,7.658671875,1.5480804443359375,-8.422592163085938,1.5865936279296875
1715093248557620500,7.668620361328125,1.74200439453125,-9.057052612304688,0.7222900390625
1715093248567599900,7.678599853515625,2.10113525390625,-9.085784912109375,-0.027099609375
1715093248577579000,7.6885791015625,2.4267578125,-8.908615112304688,-0.8818206787109375
1715093248587527700,7.698527587890625,2.433929443359375,-8.101776123046875,-1.1403961181640625
1715093248597507000,7.708507080078125,1.8114471435546875,-7.1608428955078125,-1.05419921875
1715093248607486200,7.718486328125,1.0141754150390625,-6.634124755859375,-1.0087127685546875
1715093248617435100,7.72843505859375,0.4275970458984375,-6.56707763671875,-0.9656219482421875
1715093248627414300,7.738414306640625,-0.2260284423828125,-6.7634124755859375,-1.0350494384765625
1715093248637393400,7.748393310546875,-0.5205078125,-6.909454345703125,-1.090118408203125
1715093248647342300,7.75834228515625,-0.537261962890625,-6.79693603515625,-1.042236328125
1715093248657321500,7.768321533203125,-0.3481292724609375,-6.698760986328125,-1.1092681884765625
1715093248667300600,7.778300537109375,0.319854736328125,-6.5455322265625,-0.77886962890625
1715093248677249500,7.78824951171875,0.9998016357421875,-6.4593505859375,-0.7238006591796875
1715093248687228700,7.798228759765625,1.8976287841796875,-6.5886383056640625,-0.8387298583984375
1715093248697208000,7.8082080078125,2.6949005126953125,-6.6844024658203125,-0.4365081787109375
1715093248707156700,7.81815673828125,3.1162872314453125,-6.9214324951171875,0.2123260498046875
1715093248717136000,7.828135986328125,3.082763671875,-7.3092803955078125,0.971282958984375
1715093248727115300,7.838115234375,2.7523651123046875,-7.955718994140625,2.18035888671875
1715093248737064000,7.84806396484375,2.5440673828125,-7.93896484375,4.2968292236328125
1715093248747043000,7.85804296875,2.07958984375,-7.4026641845703125,6.633575439453125
1715093248757022500,7.8680224609375,1.5217437744140625,-7.943756103515625,8.082061767578125
1715093248766971100,7.87797119140625,0.8920745849609375,-9.631668090820312,9.030166625976562
1715093248776950300,7.8879501953125,1.196136474609375,-11.472808837890625,9.461135864257812
1715093248786929700,7.8979296875,1.3685150146484375,-13.22296142578125,8.680618286132812
1715093248796878300,7.90787841796875,1.143463134765625,-14.822296142578125,7.1866302490234375
1715093248806857700,7.917857666015625,-0.156585693359375,-16.268386840820312,4.8211669921875
1715093248816836900,7.9278369140625,-1.6481781005859375,-17.37451171875,1.550689697265625
1715093248826816000,7.93781591796875,0.9615020751953125,-17.683364868164062,-1.12603759765625
1715093248836795400,7.94779541015625,6.214385986328125,-15.574066162109375,-2.483551025390625
1715093248846744000,7.957744140625,6.056365966796875,-10.457656860351562,-0.8746337890625
1715093248856723500,7.967723388671875,5.8121490478515625,-6.7107391357421875,1.70391845703125
1715093248866702600,7.97770263671875,2.644622802734375,-8.116134643554688,4.8929901123046875
1715093248876651300,7.9876513671875,1.2200775146484375,-11.096908569335938,5.8961639404296875
1715093248886630700,7.997630615234375,0.3701324462890625,-11.602096557617188,4.94805908203125
1715093248896609800,8.00760986328125,-5.809295654296875,-14.15191650390625,2.5586395263671875
1715093248906558500,8.017558349609375,-7.023162841796875,-18.966659545898438,0.9832611083984375
1715093248916537900,8.027537841796875,-7.5474853515625,-21.279449462890625,-0.38861083984375
1715093248926517000,8.03751708984375,-4.6696624755859375,-18.51654052734375,-3.15631103515625
1715093248936465700,8.047465576171875,-1.9067535400390625,-12.602874755859375,-3.07012939453125
1715093248946445000,8.057445068359375,-0.3385467529296875,-9.590957641601562,-0.0414581298828125
1715093248956424200,8.067424072265625,1.4259796142578125,-7.321258544921875,2.5730133056640625
1715093248966373000,8.077373046875,1.694122314453125,-5.0587310791015625,2.6041412353515625
1715093248976352300,8.087352294921875,0.71490478515625,-3.6485595703125,0.8036956787109375
1715093248986331400,8.097331298828125,-0.101531982421875,-2.8704376220703125,-0.814788818359375
1715093248996280300,8.1072802734375,0.1905670166015625,-3.5312347412109375,-1.9759674072265625
1715093249006259500,8.117259521484375,1.0931854248046875,-5.5112457275390625,-2.6870574951171875
1715093249016238800,8.12723876953125,1.006988525390625,-8.444137573242188,-3.78839111328125
1715093249026187500,8.1371875,0.3318328857421875,-11.432098388671875,-4.4970703125
1715093249036166700,8.147166748046875,-0.7910614013671875,-13.3067626953125,-3.989501953125
1715093249046146000,8.15714599609375,-2.60107421875,-13.610824584960938,-4.427642822265625
1715093249056094700,8.1670947265625,-3.16131591796875,-11.8582763671875,-5.7205047607421875
1715093249066073900,8.177073974609375,-1.6218414306640625,-9.296478271484375,-4.2001800537109375
1715093249076022800,8.187022705078125,0.0684661865234375,-7.2230987548828125,-3.1587066650390625
1715093249086002000,8.197001953125,1.2895050048828125,-6.200775146484375,-3.0294189453125
1715093249095981000,8.20698095703125,2.168182373046875,-5.556732177734375,-2.56494140625
1715093249105960400,8.21696044921875,2.022125244140625,-5.693206787109375,-2.390167236328125
1715093249115939600,8.226939697265625,1.0572662353515625,-6.27020263671875,-1.585723876953125
1715093249125888300,8.23688818359375,-0.4319305419921875,-7.2709808349609375,-0.3263702392578125
1715093249135867600,8.24686767578125,-1.4590301513671875,-8.472869873046875,1.076629638671875
1715093249145846800,8.2568466796875,-1.78704833984375,-9.52392578125,2.280914306640625
1715093249155795700,8.266795654296875,-1.86126708984375,-10.498367309570312,2.845947265625
1715093249165774800,8.27677490234375,-1.772674560546875,-11.142410278320312,3.4564666748046875
1715093249175754000,8.28675390625,-1.7056427001953125,-11.123245239257812,3.686309814453125
1715093249185703000,8.296702880859375,-1.676910400390625,-10.282882690429688,3.4923858642578125
1715093249195682000,8.30668212890625,-1.6050872802734375,-9.126480102539062,3.2769012451171875
1715093249205661400,8.316661376953125,-1.5117034912109375,-8.250213623046875,3.0446624755859375
1715093249215610000,8.326610107421875,-1.454254150390625,-7.74981689453125,2.8028564453125
1715093249225589200,8.33658935546875,-1.4039764404296875,-7.4984283447265625,2.86749267578125
1715093249235568600,8.346568603515625,-1.1094818115234375,-7.31646728515625,3.0662078857421875
1715093249245517300,8.356517333984375,-0.9442901611328125,-7.16802978515625,3.346343994140625
1715093249255496400,8.366496337890625,-0.85809326171875,-7.28533935546875,3.782073974609375
1715093249265475800,8.376475830078125,-1.085540771484375,-7.63250732421875,4.150787353515625
1715093249275424500,8.386424560546875,-1.444671630859375,-8.046707153320312,4.562591552734375
1715093249285403600,8.396403564453125,-1.286651611328125,-8.441741943359375,4.37823486328125
1715093249295383000,8.406383056640625,-0.831756591796875,-8.683563232421875,4.40936279296875
1715093249305331700,8.416331787109375,0.1738128662109375,-8.654830932617188,4.33514404296875
1715093249315311000,8.42631103515625,1.44512939453125,-8.451324462890625,3.3511199951171875
1715093249325290200,8.436290283203125,2.8098297119140625,-8.31964111328125,2.321624755859375
1715093249335239000,8.446239013671875,3.652587890625,-8.568634033203125,1.318450927734375
1715093249345218300,8.45621826171875,3.46343994140625,-9.310836791992188,-0.307220458984375
1715093249355197400,8.466197509765625,2.1921234130859375,-10.165573120117188,-0.43890380859375
1715093249365146000,8.47614599609375,-0.103912353515625,-11.015518188476562,0.45892333984375
1715093249375125500,8.48612548828125,-1.47100830078125,-11.523086547851562,0.928192138671875
1715093249385104600,8.496104736328125,-1.2076416015625,-12.215011596679688,1.095794677734375
1715093249395084000,8.506083984375,-0.0991363525390625,-12.394577026367188,1.1412811279296875
1715093249405063200,8.516063232421875,1.0405120849609375,-11.702651977539062,2.1444549560546875
1715093249415011800,8.52601171875,1.4690704345703125,-10.4959716796875,3.5091400146484375
1715093249424991200,8.5359912109375,0.870513916015625,-9.499984741210938,4.4644317626953125
1715093249434970400,8.545970458984375,-0.31939697265625,-9.00677490234375,4.859466552734375
1715093249444919000,8.5559189453125,-1.2579193115234375,-8.590179443359375,4.8762359619140625
1715093249454898400,8.5658984375,-2.299407958984375,-8.073043823242188,4.3590850830078125
1715093249464877600,8.575877685546875,-2.531646728515625,-8.111343383789062,2.0391082763671875
1715093249474826500,8.585826416015625,-2.004913330078125,-8.295700073242188,-0.740570068359375
1715093249484805600,8.5958056640625,-1.4925537109375,-8.666793823242188,-3.1036376953125
1715093249494784800,8.60578466796875,-1.5907135009765625,-9.504776000976562,-5.6989593505859375
1715093249504733700,8.615733642578125,-2.3353118896484375,-10.883834838867188,-8.315826416015625
1715093249514712800,8.625712890625,-3.1541290283203125,-13.189453125,-10.9542236328125
1715093249524692000,8.63569189453125,-3.59466552734375,-15.605194091796875,-12.362014770507812
1715093249534641000,8.645640869140625,-4.0663299560546875,-17.32183837890625,-12.170486450195312
1715093249544620000,8.6556201171875,-4.2530670166015625,-18.952285766601562,-11.20562744140625
1715093249554599400,8.665599365234375,-4.475738525390625,-19.495773315429688,-6.57763671875
1715093249564548000,8.675548095703125,-5.016815185546875,-18.425567626953125,-0.539459228515625
1715093249574527200,8.68552734375,-6.2666015625,-14.942001342773438,5.4005584716796875
1715093249584506600,8.695506591796875,-7.6121368408203125,-13.163116455078125,6.822723388671875
1715093249594455300,8.705455322265625,-7.1093597412109375,-12.815948486328125,7.9719390869140625
1715093249604434400,8.715434326171875,-6.8459930419921875,-11.666732788085938,10.540908813476562
1715093249614413800,8.725413818359375,-5.907470703125,-10.045867919921875,10.849761962890625
1715093249624362500,8.735362548828125,-3.451019287109375,-8.817642211914062,8.0533447265625
1715093249634341600,8.745341552734375,-1.0400543212890625,-7.88629150390625,6.9160919189453125
1715093249644290600,8.75529052734375,-0.02252197265625,-8.444137573242188,4.9720001220703125
1715093249654269700,8.765269775390625,0.753204345703125,-9.318023681640625,2.968048095703125
1715093249664249000,8.7752490234375,1.85693359375,-9.392242431640625,1.8547515869140625
1715093249674228200,8.785228271484375,2.9415130615234375,-8.872695922851562,0.674407958984375
1715093249684207400,8.795207275390625,3.1067047119140625,-8.38427734375,0.284149169921875
1715093249694156300,8.80515625,3.109100341796875,-7.8886871337890625,-0.362274169921875
1715093249704135400,8.815135498046875,2.6182861328125,-7.0483245849609375,-0.968017578125
1715093249714114800,8.82511474609375,1.660614013671875,-6.3348541259765625,-1.3630523681640625
1715093249724063500,8.8350634765625,0.7508087158203125,-5.8775482177734375,-1.6096649169921875
1715093249734042600,8.845042724609375,0.2288818359375,-5.6668701171875,-1.7269744873046875
1715093249744022000,8.85502197265625,-0.017730712890625,-5.504058837890625,-1.7724609375
1715093249753970700,8.864970703125,-0.187713623046875,-5.3915252685546875,-1.8682403564453125
1715093249763949800,8.87494970703125,-0.1853179931640625,-5.302947998046875,-1.9280853271484375
1715093249773929200,8.88492919921875,0.2336578369140625,-5.276611328125,-1.9592132568359375
1715093249783878000,8.8948779296875,1.1195220947265625,-5.2430877685546875,-1.9903411865234375
1715093249793857000,8.90485693359375,2.0293121337890625,-5.4178619384765625,-2.15313720703125
1715093249803836400,8.91483642578125,2.919952392578125,-5.788970947265625,-2.2249755859375
1715093249813785000,8.92478515625,3.4179534912109375,-6.1361236572265625,-1.607269287109375
1715093249823764500,8.934764404296875,3.585540771484375,-6.4904632568359375,-0.7716827392578125
1715093249833743600,8.94474365234375,3.499359130859375,-7.1033935546875,0.3511962890625
1715093249843692300,8.9546923828125,3.43231201171875,-7.9892425537109375,1.7494049072265625
1715093249853671700,8.964671630859375,3.1234588623046875,-8.590179443359375,3.8467254638671875
1715093249863650800,8.97465087890625,2.67095947265625,-8.925369262695312,6.3821868896484375
1715093249873599500,8.984599609375,1.98382568359375,-10.076980590820312,8.355010986328125
1715093249883579000,8.994578857421875,0.975860595703125,-11.853485107421875,10.351776123046875
1715093249893558000,9.00455810546875,0.8346099853515625,-13.491119384765625,11.979827880859375
1715093249903506700,9.014506591796875,0.3485870361328125,-14.558929443359375,11.132278442382812
1715093249913486000,9.024486083984375,-0.314605712890625,-14.348236083984375,7.7085723876953125
1715093249923465200,9.03446533203125,-1.370452880859375,-13.22296142578125,4.8451080322265625
1715093249933414000,9.044413818359375,-0.8820343017578125,-12.787216186523438,2.893829345703125
1715093249943393300,9.054393310546875,2.6781463623046875,-12.667510986328125,1.7877044677734375
1715093249953372400,9.064372314453125,5.730743408203125,-13.251693725585938,-0.1515960693359375
1715093249963351800,9.074351806640625,4.7730712890625,-13.230148315429688,0.8348236083984375
1715093249973300500,9.084300537109375,3.5137176513671875,-14.053756713867188,3.8299713134765625
1715093249983279600,9.094279541015625,2.8265838623046875,-16.802291870117188,4.63201904296875
1715093249993259000,9.104259033203125,2.1849365234375,-17.640274047851562,2.7573699951171875
1715093250003238100,9.114238037109375,-2.5699462890625,-15.360992431640625,1.308868408203125
1715093250013187000,9.12418701171875,-6.558685302734375,-14.645126342773438,-0.867462158203125
1715093250023166200,9.134166259765625,-4.3943328857421875,-17.06805419921875,-1.7293701171875
1715093250033145300,9.144145263671875,-4.0471649169921875,-15.418441772460938,-4.154693603515625
1715093250043094300,9.15409423828125,-2.1222381591796875,-10.98199462890625,-3.8338775634765625
1715093250053073400,9.164073486328125,0.530548095703125,-8.429779052734375,-0.6974639892578125
1715093250063052800,9.174052734375,1.629486083984375,-7.1919708251953125,2.1731719970703125
1715093250073001500,9.18400146484375,1.227264404296875,-5.6333465576171875,4.2417755126953125
1715093250082980600,9.193980712890625,0.288726806640625,-4.05078125,3.8802490234375
1715093250092960000,9.2039599609375,-0.81500244140625,-3.35406494140625,1.9145965576171875
1715093250102908700,9.21390869140625,-0.788665771484375,-4.2854156494140625,0.8611602783203125
1715093250112887800,9.2238876953125,-0.09674072265625,-6.825653076171875,0.0662841796875
1715093250122867200,9.2338671875,0.3437957763671875,-9.581390380859375,-1.8802032470703125
1715093250132816000,9.24381591796875,1.059661865234375,-12.068954467773438,-3.4172821044921875
1715093250142795000,9.253794921875,0.975860595703125,-13.86700439453125,-4.4372100830078125
1715093250152774400,9.2637744140625,0.0062103271484375,-13.752090454101562,-5.0908355712890625
1715093250162723000,9.27372314453125,-1.1956787109375,-11.135223388671875,-4.2313079833984375
1715093250172702500,9.283702392578125,-1.04962158203125,-8.305282592773438,-2.0334320068359375
1715093250182681600,9.293681640625,-0.293060302734375,-6.6077880859375,-0.941680908203125
1715093250192630300,9.30363037109375,0.41082763671875,-5.7219390869140625,-0.678314208984375
1715093250202609700,9.313609619140625,0.7867279052734375,-5.5926513671875,-0.8914031982421875
1715093250212558300,9.323558349609375,0.8777008056640625,-6.1864013671875,-1.0446319580078125
1715093250222537500,9.333537353515625,0.6502532958984375,-7.0267791748046875,-1.0446319580078125
1715093250232516900,9.343516845703125,0.2216949462890625,-8.073043823242188,-0.9823760986328125
1715093250242496000,9.35349609375,-0.3960113525390625,-9.18634033203125,-0.56817626953125
1715093250252475400,9.363475341796875,-1.1501922607421875,-10.314010620117188,-0.328765869140625
1715093250262424000,9.373424072265625,-1.94744873046875,-11.061004638671875,0.030364990234375
1715093250272403200,9.3834033203125,-2.258697509765625,-11.283660888671875,0.779754638671875
1715093250282382600,9.393382568359375,-2.237152099609375,-11.0657958984375,1.4261932373046875
1715093250292331300,9.403331298828125,-2.1796875,-10.630050659179688,1.931365966796875
1715093250302310400,9.413310302734375,-2.057586669921875,-9.483230590820312,2.42218017578125
1715093250312289800,9.423289794921875,-1.7966156005859375,-8.764968872070312,2.6256866455078125
1715093250322238500,9.433238525390625,-1.3776397705078125,-8.156829833984375,2.79327392578125
1715093250332217600,9.443217529296875,-0.9658355712890625,-7.6851806640625,2.989593505859375
1715093250342197000,9.453197021484375,-0.4774169921875,-7.4146270751953125,3.1907196044921875
1715093250352145700,9.463145751953125,-0.0560302734375,-7.3188629150390625,3.221832275390625
1715093250362125000,9.473125,0.0732574462890625,-7.098602294921875,3.2026824951171875
1715093250372104200,9.483104248046875,-0.02252197265625,-7.3069000244140625,3.389434814453125
1715093250382052900,9.493052978515625,-0.494171142578125,-7.4744873046875,3.3104248046875
1715093250392032300,9.5030322265625,-0.7623291015625,-7.701934814453125,3.4181671142578125
1715093250402011400,9.513011474609375,-0.8341522216796875,-8.17120361328125,3.4181671142578125
1715093250411960000,9.5229599609375,-1.09033203125,-8.575820922851562,3.4037933349609375
1715093250421939500,9.532939453125,-0.7862701416015625,-8.843978881835938,3.2864837646484375
1715093250431918600,9.542918701171875,-0.5971221923828125,-8.970870971679688,3.0279083251953125
1715093250441867300,9.5528671875,0.061279296875,-8.978042602539062,2.7286376953125
1715093250451846700,9.5628466796875,1.0788116455078125,-8.99481201171875,3.03509521484375
1715093250461825800,9.57282568359375,2.2519683837890625,-9.1336669921875,3.082977294921875
1715093250471774700,9.582774658203125,3.638214111328125,-9.66278076171875,2.32879638671875
1715093250481753900,9.59275390625,3.5137176513671875,-10.345138549804688,0.8156585693359375
1715093250491733000,9.60273291015625,1.3325958251953125,-10.859893798828125,0.109375
1715093250501682000,9.612681884765625,-1.06878662109375,-11.3626708984375,0.557098388671875
1715093250511661000,9.6226611328125,-1.8852081298828125,-11.8271484375,0.7079315185546875
1715093250521640400,9.632640380859375,-1.1358184814453125,-11.970794677734375,0.7462310791015625
1715093250531619600,9.64261962890625,0.118743896484375,-12.054595947265625,0.9688873291015625
1715093250541568300,9.652568359375,1.3373870849609375,-12.040237426757812,1.6177215576171875
1715093250551547600,9.662547607421875,1.8545379638671875,-10.924530029296875,2.8650970458984375
1715093250561526800,9.67252685546875,1.2464141845703125,-9.562225341796875,4.1891021728515625
1715093250571506200,9.682506103515625,0.4802703857421875,-8.599761962890625,5.292816162109375
1715093250581454800,9.692454833984375,0.425201416015625,-7.891082763671875,5.9296875
1715093250591434000,9.70243408203125,0.267181396484375,-7.005218505859375,5.4053497314453125
1715093250601413400,9.712413330078125,-1.6362152099609375,-7.0028228759765625,3.82757568359375
1715093250611362000,9.722362060546875,-2.5555877685546875,-7.1608428955078125,1.909820556640625
1715093250621341200,9.732341064453125,-2.3233489990234375,-7.4002685546875,-0.11328125
1715093250631320600,9.742320556640625,-2.0623779296875,-8.365127563476562,-2.7301483154296875
1715093250641269200,9.752269287109375,-2.6154327392578125,-10.014739990234375,-5.083648681640625
1715093250651248400,9.762248291015625,-3.9322509765625,-12.480758666992188,-7.11871337890625
1715093250661227800,9.772227783203125,-4.7654266357421875,-16.167831420898438,-8.593551635742188
1715093250671176400,9.782176513671875,-5.56988525390625,-19.569992065429688,-9.618270874023438
1715093250681155800,9.79215576171875,-6.2642059326171875,-22.380783081054688,-9.99176025390625
1715093250691135000,9.802135009765625,-6.9513397216796875,-23.166091918945312,-7.408416748046875
1715093250701083600,9.812083740234375,-7.298492431640625,-20.235580444335938,-1.612060546875
1715093250711063000,9.82206298828125,-7.920989990234375,-15.825469970703125,3.25775146484375
1715093250721042200,9.832042236328125,-6.3216552734375,-10.90777587890625,7.3805694580078125
1715093250730990800,9.841990966796875,-6.6520538330078125,-9.737014770507812,5.92010498046875
1715093250740970200,9.85197021484375,-4.5858612060546875,-8.099380493164062,7.785186767578125
1715093250750949400,9.861949462890625,-1.921112060546875,-6.8160858154296875,8.5728759765625
1715093250760898000,9.87189794921875,-0.240386962890625,-6.3372344970703125,6.6263885498046875
1715093250770877400,9.88187744140625,-0.3289794921875,-6.8543853759765625,4.19866943359375
1715093250780826000,9.891826171875,-0.7910614013671875,-7.7354583740234375,2.417388916015625
1715093250790805200,9.90180517578125,-1.0663909912109375,-8.355560302734375,1.816436767578125
1715093250800784600,9.91178466796875,-0.302642822265625,-8.460891723632812,0.91143798828125
1715093250810763800,9.921763671875,1.22247314453125,-8.00360107421875,-0.0199127197265625
1715093250820743200,9.9317431640625,2.1705780029296875,-7.5415191650390625,-0.3790435791015625
1715093250830691800,9.94169189453125,2.675750732421875,-6.8735504150390625,-0.613677978515625
1715093250840671000,9.9516708984375,2.52252197265625,-6.1409149169921875,-1.0733642578125
1715093250850650400,9.961650390625,1.7922821044921875,-5.65728759765625,-1.4253082275390625
1715093250860599000,9.97159912109375,0.963897705078125,-5.7075653076171875,-1.798797607421875
1715093250870578400,9.981578369140625,0.4587249755859375,-6.011627197265625,-1.9065399169921875
1715093250880557600,9.9915576171875,0.3054962158203125,-6.3156890869140625,-2.0142822265625
1715093250890506200,10.00150634765625,0.236053466796875,-6.466522216796875,-1.9687957763671875
1715093250900485600,10.011485595703125,0.3581695556640625,-6.5311737060546875,-2.00469970703125
1715093250910464800,10.02146484375,0.7484130859375,-6.5455322265625,-2.04541015625
1715093250920413400,10.031413330078125,1.493011474609375,-6.49285888671875,-2.3063812255859375
1715093250930392800,10.041392822265625,2.4506988525390625,-6.624542236328125,-2.251312255859375
1715093250940372000,10.0513720703125,2.991790771484375,-6.665252685546875,-2.21539306640625
1715093250950320600,10.061320556640625,3.0851593017578125,-6.9812774658203125,-1.693450927734375
1715093250960300000,10.071300048828125,2.8050384521484375,-7.591796875,-0.7980194091796875
1715093250970279200,10.081279052734375,2.496185302734375,-8.290908813476562,0.557098388671875
1715093250980228000,10.09122802734375,2.7044830322265625,-8.20233154296875,3.1165008544921875
1715093250990207200,10.101207275390625,2.67095947265625,-7.9461517333984375,6.1331939697265625
1715093251000186400,10.111186279296875,2.0077667236328125,-8.60455322265625,8.1275634765625
1715093251010135300,10.12113525390625,1.5528717041015625,-9.784896850585938,9.91363525390625
1715093251020114400,10.131114501953125,0.9088287353515625,-11.369857788085938,11.187347412109375
1715093251030093800,10.14109375,0.022979736328125,-12.859054565429688,11.283111572265625
1715093251040042500,10.15104248046875,0.4706878662109375,-13.414505004882812,9.834625244140625
1715093251050021600,10.161021728515625,-1.1334228515625,-14.223739624023438,7.3374786376953125
1715093251060001000,10.1710009765625,-0.9873809814453125,-15.423233032226562,3.992767333984375
1715093251069949700,10.18094970703125,2.46026611328125,-16.41204833984375,0.964111328125
1715093251079928800,10.1909287109375,5.5200653076171875,-15.27239990234375,-1.1715240478515625
1715093251089908200,10.200908203125,4.4282989501953125,-11.824752807617188,-0.0103302001953125
1715093251099887400,10.210887451171875,3.5400543212890625,-9.997970581054688,2.8746795654296875
1715093251109836000,10.2208359375,2.6901092529296875,-12.013900756835938,4.1220550537109375
1715093251119815400,10.2308154296875,1.301483154296875,-13.029037475585938,4.8235626220703125
1715093251129794600,10.240794677734375,-4.17645263671875,-15.583648681640625,3.7030792236328125
1715093251139774000,10.25077392578125,-4.88275146484375,-19.933914184570312,2.7286376953125
1715093251149722600,10.26072265625,-6.8986663818359375,-22.385574340820312,1.6488494873046875
1715093251159701800,10.27070166015625,-6.43658447265625,-19.196502685546875,-2.5338287353515625
1715093251169681200,10.28068115234375,-2.713592529296875,-12.401748657226562,-3.2472991943359375
1715093251179629800,10.2906298828125,-1.253143310546875,-9.167190551757812,-0.3311614990234375
1715093251189609000,10.30060888671875,0.68377685546875,-7.0267791748046875,2.2042999267578125
1715093251199588400,10.31058837890625,1.99578857421875,-5.50885009765625,3.0015716552734375
1715093251209537000,10.320537109375,1.3637237548828125,-3.7730560302734375,3.114105224609375
1715093251219516400,10.330516357421875,-0.029693603515625,-2.9231109619140625,0.2769775390625
1715093251229495600,10.34049560546875,-0.5181121826171875,-2.8058013916015625,-1.226593017578125
1715093251239444200,10.3504443359375,-0.1996917724609375,-4.7139739990234375,-0.793243408203125
1715093251249423600,10.360423583984375,0.298309326171875,-7.3978729248046875,-1.4731903076171875
1715093251259402800,10.37040283203125,0.3342132568359375,-10.2852783203125,-2.833099365234375
1715093251269351400,10.380351318359375,0.1857757568359375,-12.43048095703125,-3.319122314453125
1715093251279330800,10.390330810546875,-0.4486846923828125,-13.256484985351562,-3.790771484375
1715093251289310000,10.40031005859375,-1.9594268798828125,-12.7369384765625,-4.9112701416015625
1715093251299258600,10.410258544921875,-2.268280029296875,-10.625259399414062,-4.6766357421875
1715093251309238000,10.420238037109375,-1.1238555908203125,-8.001205444335938,-2.8522491455078125
1715093251319217200,10.430217041015625,0.5880126953125,-6.2630157470703125,-2.706207275390625
1715093251329166000,10.440166015625,1.957489013671875,-5.049163818359375,-2.483551025390625
1715093251339145200,10.450145263671875,2.3046417236328125,-4.6349639892578125,-2.062164306640625
1715093251349124400,10.460124267578125,1.428375244140625,-5.25506591796875,-1.5904998779296875
1715093251359073300,10.4700732421875,0.6454620361328125,-6.217529296875,0.18359375
1715093251369052400,10.480052490234375,0.0301513671875,-7.357177734375,2.1468353271484375
1715093251379031800,10.49003173828125,-0.31939697265625,-8.79608154296875,3.6240692138671875
1715093251389011000,10.500010986328125,-0.7671051025390625,-10.292465209960938,4.351898193359375
1715093251398959600,10.509959716796875,-1.32257080078125,-11.286056518554688,4.7565155029296875
1715093251408939000,10.51993896484375,-1.7439422607421875,-11.417739868164062,4.933685302734375
1715093251418918100,10.529918212890625,-1.667327880859375,-10.922134399414062,4.83074951171875
1715093251428897500,10.5398974609375,-1.86126708984375,-9.938125610351562,4.4213409423828125
1715093251438846200,10.54984619140625,-2.2180023193359375,-9.083389282226562,3.959259033203125
1715093251448825300,10.559825439453125,-2.5196685791015625,-8.7003173828125,3.4708404541015625
1715093251458774000,10.56977392578125,-2.639373779296875,-8.559066772460938,2.9369354248046875
1715093251468753400,10.57975341796875,-2.4885406494140625,-8.654830932617188,2.8483428955078125
1715093251478732500,10.589732666015625,-1.992950439453125,-8.788909912109375,2.82440185546875
1715093251488681500,10.599681396484375,-0.9347076416015625,-8.788909912109375,3.008758544921875
1715093251498660600,10.60966064453125,-0.161376953125,-8.896636962890625,2.9704437255859375
1715093251508639700,10.6196396484375,-0.0153350830078125,-8.927764892578125,3.1165008544921875
1715093251518588700,10.629588623046875,-0.0368804931640625,-8.72186279296875,2.97283935546875
1715093251528567800,10.63956787109375,0.5544891357421875,-8.120925903320312,2.70709228515625
1715093251538547200,10.649547119140625,1.186553955078125,-7.417022705078125,2.7477874755859375
1715093251548496000,10.659495849609375,2.3573150634765625,-6.6197509765625,2.7382049560546875
1715093251558475000,10.66947509765625,3.2766876220703125,-5.832061767578125,2.197113037109375
1715093251568454400,10.679454345703125,4.133819580078125,-5.6979827880859375,1.7230682373046875
1715093251578403000,10.689403076171875,4.0524139404296875,-6.6053924560546875,0.5115966796875
1715093251588382200,10.69938232421875,3.0324859619140625,-8.005996704101562,0.31048583984375
1715093251598361600,10.709361572265625,1.07403564453125,-9.74658203125,0.7677764892578125
1715093251608310300,10.719310302734375,-0.0943450927734375,-11.6595458984375,1.3376007080078125
1715093251618289400,10.729289306640625,-0.81500244140625,-13.543792724609375,1.2418365478515625
1715093251628268800,10.739268798828125,-0.1996917724609375,-14.202194213867188,1.225067138671875
1715093251638217500,10.749217529296875,1.51934814453125,-13.948410034179688,2.058258056640625
1715093251648196600,10.759196533203125,1.5744171142578125,-12.667510986328125,3.8802490234375
1715093251658176000,10.769176025390625,-0.13983154296875,-10.934112548828125,5.470001220703125
1715093251668155100,10.779155029296875,-1.31298828125,-9.341964721679688,5.6639251708984375
1715093251678134500,10.789134521484375,-2.4023590087890625,-8.027542114257812,5.59210205078125
1715093251688083200,10.799083251953125,-3.4989013671875,-7.1967620849609375,5.149169921875
1715093251698062300,10.809062255859375,-3.271453857421875,-6.962127685546875,3.2026824951171875
1715093251708041700,10.819041748046875,-2.206024169921875,-7.1823883056640625,0.504425048828125
1715093251717990400,10.828990478515625,-1.7535247802734375,-7.9629058837890625,-2.0430145263671875
1715093251727969800,10.8389697265625,-1.9905548095703125,-9.389846801757812,-4.84661865234375
1715093251737949000,10.848948974609375,-2.8476715087890625,-11.398590087890625,-7.6478424072265625
1715093251747897600,10.858897705078125,-3.6497344970703125,-14.238113403320312,-9.963027954101562
1715093251757877000,10.868876953125,-3.8245086669921875,-17.314651489257812,-10.9542236328125
1715093251767856000,10.878856201171875,-4.322509765625,-19.979400634765625,-11.1337890625
1715093251777804800,10.8888046875,-5.8907012939453125,-21.497329711914062,-9.096328735351562
1715093251787784200,10.8987841796875,-6.2019500732421875,-20.695266723632812,-3.2784271240234375
1715093251797763300,10.908763427734375,-6.599395751953125,-18.415985107421875,2.8698883056640625
1715093251807712000,10.9187119140625,-8.84515380859375,-15.763214111328125,6.1619110107421875
1715093251817691400,10.92869140625,-8.071823120117188,-12.14556884765625,10.323043823242188
1715093251827670500,10.93867041015625,-7.6863555908203125,-10.953262329101562,10.540908813476562
1715093251837619500,10.948619384765625,-6.3982696533203125,-9.162399291992188,11.503387451171875
1715093251847598600,10.9585986328125,-3.3384857177734375,-7.3260498046875,11.192138671875
1715093251857577700,10.96857763671875,-0.508544921875,-6.761016845703125,8.388519287109375
1715093251867526700,10.978526611328125,0.3390045166015625,-7.40985107421875,5.7908172607421875
1715093251877505800,10.988505859375,1.1697998046875,-8.702713012695312,3.3702850341796875
1715093251887485200,10.998485107421875,1.5576629638671875,-9.258163452148438,2.070220947265625
1715093251897433900,11.008433837890625,1.6797637939453125,-9.341964721679688,0.9473419189453125
1715093251907413000,11.0184130859375,2.2974700927734375,-9.267745971679688,0.0112152099609375
1715093251917392400,11.028392333984375,2.7619476318359375,-8.72186279296875,-0.1444091796875
1715093251927341000,11.038341064453125,2.8744659423828125,-7.680389404296875,-0.1731414794921875
1715093251937320200,11.0483203125,2.4842071533203125,-6.3970947265625,-0.22821044921875
1715093251947299600,11.058299560546875,1.6127166748046875,-5.535186767578125,-0.412567138671875
1715093251957278700,11.06827880859375,0.827423095703125,-5.2311248779296875,-0.67352294921875
1715093251967227400,11.078227294921875,0.4491424560546875,-5.250274658203125,-0.9871673583984375
1715093251977206800,11.088206787109375,0.1953582763671875,-5.429840087890625,-1.4827728271484375
1715093251987186000,11.09818603515625,0.21929931640625,-5.4801177978515625,-1.8107757568359375
1715093251997165300,11.108165283203125,0.47308349609375,-5.4178619384765625,-1.978363037109375
1715093252007114000,11.118114013671875,0.990234375,-5.1736602783203125,-2.0023040771484375
1715093252017093000,11.128093017578125,1.5313262939453125,-5.0731048583984375,-2.131591796875
1715093252027072500,11.138072509765625,1.8880615234375,-5.3963165283203125,-2.483551025390625
1715093252037021200,11.148021240234375,2.3333740234375,-5.5950469970703125,-2.4093170166015625
1715093252047000300,11.158000244140625,2.65899658203125,-5.7698211669921875,-1.8011932373046875
1715093252056979700,11.167979736328125,2.814605712890625,-6.1361236572265625,-0.8698577880859375
1715093252066928400,11.177928466796875,2.833770751953125,-6.782562255859375,0.1859893798828125
1715093252076907800,11.18790771484375,2.62786865234375,-7.500823974609375,1.730255126953125
1715093252086887000,11.197886962890625,2.2878875732421875,-8.104156494140625,3.69110107421875
1715093252096835600,11.207835693359375,1.9239654541015625,-8.317245483398438,6.375
1715093252106815000,11.21781494140625,1.208099365234375,-8.990020751953125,8.924819946289062
1715093252116794000,11.227794189453125,0.3701324462890625,-10.481597900390625,10.9503173828125
1715093252126742800,11.23774267578125,0.21929931640625,-12.09051513671875,11.694915771484375
1715093252136722200,11.24772216796875,-0.1996917724609375,-13.014663696289062,10.129104614257812
1715093252146701300,11.257701416015625,0.700531005859375,-13.452804565429688,7.0956573486328125
1715093252156650000,11.26764990234375,2.558441162109375,-14.228530883789062,3.0326995849609375
1715093252166629400,11.27762939453125,4.2774658203125,-15.339447021484375,0.1955718994140625
1715093252176608500,11.2876083984375,7.7442779541015625,-15.023406982421875,-0.5801544189453125
1715093252186557400,11.297557373046875,10.7418212890625,-13.493515014648438,-1.5833282470703125
1715093252196536600,11.30753662109375,6.2933807373046875,-11.075363159179688,0.0375518798828125
1715093252206485200,11.3174853515625,2.4698486328125,-9.497589111328125,4.002349853515625
1715093252216464600,11.327464599609375,1.926361083984375,-9.088180541992188,6.4516143798828125
1715093252226443800,11.33744384765625,-0.7120513916015625,-9.734619140625,8.740478515625
1715093252236423200,11.347423095703125,-5.4836883544921875,-13.737716674804688,8.745254516601562
1715093252246402300,11.35740234375,-6.6807861328125,-20.130233764648438,7.562530517578125
1715093252256351000,11.36735107421875,-8.48602294921875,-24.638519287109375,4.2968292236328125
1715093252266330400,11.377330322265625,-8.237030029296875,-25.653656005859375,-1.5498046875
1715093252276309500,11.3873095703125,-3.197235107421875,-18.945114135742188,-5.6630401611328125
1715093252286289000,11.397288818359375,-1.2698974609375,-10.754547119140625,-3.9871063232421875
1715093252296237600,11.407237548828125,1.2583770751953125,-7.0387420654296875,-1.2146148681640625
1715093252306216700,11.417216796875,2.6566009521484375,-4.182464599609375,0.6408843994140625
1715093252316196000,11.427196044921875,1.8712921142578125,-2.903961181640625,0.959320068359375
1715093252326144800,11.437144775390625,0.64306640625,-2.4275054931640625,-0.7645111083984375
1715093252336124000,11.4471240234375,-0.218841552734375,-2.631011962890625,-2.9623870849609375
1715093252346103300,11.457103271484375,0.0732574462890625,-4.3668212890625,-3.0581512451171875
1715093252356052000,11.467052001953125,0.7938995361328125,-6.919036865234375,-3.077301025390625
1715093252366031000,11.477031005859375,1.0357208251953125,-9.909393310546875,-3.0198516845703125
1715093252376010500,11.487010498046875,0.341400146484375,-12.224578857421875,-1.2984161376953125
1715093252385959200,11.496959228515625,-2.167724609375,-14.341064453125,-1.427703857421875
1715093252395938300,11.506938232421875,-3.6808624267578125,-14.096847534179688,-1.966400146484375
1715093252405887200,11.51688720703125,-2.1485595703125,-12.119232177734375,-2.2225799560546875
1715093252415866400,11.526866455078125,0.4060516357421875,-9.473648071289062,-1.4157257080078125
1715093252425845800,11.536845703125,1.3589324951171875,-7.141693115234375,-1.5043182373046875
1715093252435794400,11.54679443359375,2.000579833984375,-5.3484344482421875,-2.2393341064453125
1715093252445773600,11.556773681640625,2.20648193359375,-4.706787109375,-2.3805999755859375
1715093252455753000,11.5667529296875,1.301483154296875,-5.4226531982421875,-1.734161376953125
1715093252465701600,11.57670166015625,0.29351806640625,-6.6939849853515625,-1.23138427734375
1715093252475680800,11.5866806640625,-0.345733642578125,-7.7737579345703125,0.1764068603515625
1715093252485660200,11.59666015625,-0.8030242919921875,-8.79608154296875,1.4956207275390625
1715093252495608800,11.60660888671875,-0.8509063720703125,-9.902206420898438,2.42218017578125
1715093252505588000,11.616587890625,-0.894012451171875,-10.524703979492188,3.00396728515625
1715093252515567400,11.6265673828125,-0.99456787109375,-10.598922729492188,3.262542724609375
1715093252525546500,11.63654638671875,-1.253143310546875,-10.160781860351562,3.367889404296875
1715093252535495400,11.646495361328125,-1.1501922607421875,-9.509552001953125,3.305633544921875
1715093252545474600,11.656474609375,-1.028076171875,-9.138458251953125,3.22662353515625
1715093252555453700,11.66645361328125,-1.36566162109375,-8.764968872070312,3.2362060546875
1715093252565433000,11.67643310546875,-1.602691650390625,-8.417800903320312,3.695892333984375
1715093252575381800,11.6863818359375,-1.6745147705078125,-8.168807983398438,4.330352783203125
1715093252585361200,11.696361083984375,-1.7774658203125,-7.9796600341796875,4.7445526123046875
1715093252595340300,11.70634033203125,-1.739166259765625,-7.8671417236328125,4.964813232421875
1715093252605289000,11.7162890625,-2.067169189453125,-8.0562744140625,4.9696044921875
1715093252615268400,11.726268310546875,-2.38079833984375,-8.372314453125,4.90496826171875
1715093252625247500,11.73624755859375,-2.2180023193359375,-8.518356323242188,4.6439971923828125
1715093252635196200,11.746196044921875,-1.5643768310546875,-8.28851318359375,4.1268463134765625
1715093252645144000,11.75614404296875,-0.06561279296875,-8.243026733398438,3.7844696044921875
1715093252655123200,11.766123291015624,1.5959625244140625,-7.965301513671875,3.4229583740234375
1715093252665071900,11.77607177734375,3.109100341796875,-7.531951904296875,3.5306854248046875
1715093252675051300,11.78605126953125,5.0555877685546875,-7.05072021484375,2.845947265625
1715093252685030400,11.796030517578124,6.1449432373046875,-7.077056884765625,1.392669677734375
1715093252694979000,11.80597900390625,4.6126556396484375,-7.4864654541015625,0.31048583984375
1715093252704958500,11.81595849609375,1.0453033447265625,-8.336395263671875,0.2889404296875
1715093252714937600,11.8259375,-0.70965576171875,-10.14642333984375,0.55230712890625
1715093252724886300,11.83588623046875,-0.8389434814453125,-11.89178466796875,0.49005126953125
1715093252734865700,11.84586572265625,-0.451080322265625,-12.382598876953125,-0.393402099609375
1715093252744844800,11.8558447265625,1.567230224609375,-12.6627197265625,-0.719024658203125
1715093252754793700,11.865793701171874,2.220855712890625,-11.96600341796875,0.2865447998046875
1715093252764772900,11.87577294921875,0.8130645751953125,-10.709060668945312,2.26416015625
1715093252774752000,11.885751953125,-1.3632659912109375,-9.497589111328125,5.0510101318359375
1715093252784701000,11.895700927734374,-1.9977264404296875,-8.585403442382812,5.534637451171875
1715093252794680000,11.90568017578125,-2.7040252685546875,-8.128097534179688,4.5817413330078125
1715093252804659500,11.915659423828124,-2.93865966796875,-8.271759033203125,2.501190185546875
1715093252814608100,11.925608154296874,-2.4239044189453125,-7.9988250732421875,-0.180328369140625
1715093252824587300,11.935587158203125,-1.973785400390625,-8.72186279296875,-2.8666229248046875
1715093252834566700,11.945566650390624,-2.3089752197265625,-10.357101440429688,-5.0357666015625
1715093252844545800,11.9555458984375,-3.652130126953125,-13.00030517578125,-7.398834228515625
1715093252854525200,11.965525146484374,-4.5283966064453125,-16.237274169921875,-9.067596435546875
1715093252864473900,11.975473876953124,-4.645721435546875,-18.303466796875,-9.34771728515625
1715093252874453000,11.985452880859375,-4.8180999755859375,-19.991378784179688,-9.244766235351562
1715093252884432400,11.995432373046874,-4.6265716552734375,-21.731964111328125,-6.6949462890625
1715093252894381000,12.005381103515624,-4.466156005859375,-21.602676391601562,-0.98956298828125
1715093252904360200,12.015360107421875,-5.67523193359375,-19.780685424804688,3.564208984375
1715093252914339600,12.025339599609374,-8.023941040039062,-15.760818481445312,6.7461090087890625
1715093252924288300,12.035288330078124,-8.227447509765625,-11.7960205078125,10.258392333984375
1715093252934267400,12.045267333984375,-7.4948272705078125,-10.69708251953125,10.490631103515625
1715093252944246800,12.055246826171874,-5.735076904296875,-8.695526123046875,10.744415283203125
1715093252954195500,12.065195556640624,-3.2379302978515625,-7.4146270751953125,9.379730224609375
1715093252964174800,12.0751748046875,-0.805419921875,-6.365966796875,7.749267578125
1715093252974154000,12.085154052734374,0.0205841064453125,-7.0339508056640625,5.2880401611328125
1715093252984102700,12.0951025390625,-0.3960113525390625,-8.705108642578125,2.845947265625
1715093252994082000,12.10508203125,-0.0943450927734375,-9.7034912109375,1.816436767578125
1715093253004061200,12.115061279296874,1.05487060546875,-9.638839721679688,0.547515869140625
1715093253014009900,12.125009765625,2.26873779296875,-9.078598022460938,-0.4628448486328125
1715093253023989200,12.1349892578125,2.951080322265625,-8.28851318359375,-0.8076019287109375
1715093253033968400,12.144968505859374,3.1114959716796875,-7.146484375,-1.1595458984375
1715093253043917000,12.1549169921875,2.28070068359375,-5.94219970703125,-1.4995269775390625
1715093253053896400,12.164896484375,1.1410675048828125,-5.22393798828125,-1.49713134765625
1715093253063845000,12.17484521484375,0.341400146484375,-5.0731048583984375,-1.39178466796875
1715093253073824500,12.184824462890624,-0.0751953125,-5.2622528076171875,-1.1930694580078125
1715093253083803600,12.1948037109375,-0.4486846923828125,-5.425048828125,-0.9823760986328125
1715093253093782800,12.20478271484375,-0.568389892578125,-5.50885009765625,-0.83154296875
1715093253103762200,12.21476220703125,-0.5707855224609375,-5.499267578125,-0.7166290283203125
1715093253113710800,12.2247109375,-0.012939453125,-5.5710906982421875,-0.53466796875
1715093253123690000,12.23468994140625,0.901641845703125,-5.77459716796875,-0.8123931884765625
1715093253133669400,12.24466943359375,2.1873321533203125,-5.8488311767578125,-0.9919586181640625
1715093253143648500,12.2546484375,3.0157318115234375,-5.9302215576171875,-0.8339385986328125
1715093253153597400,12.264597412109374,3.20965576171875,-5.853607177734375,-0.5107269287109375
1715093253163576600,12.27457666015625,3.046844482421875,-5.9038848876953125,0.0758514404296875
1715093253173555700,12.2845556640625,2.7092742919921875,-6.2199249267578125,1.28253173828125
1715093253183504600,12.294504638671874,2.8888397216796875,-6.0930328369140625,3.494781494140625
1715093253193483800,12.30448388671875,3.09234619140625,-5.978118896484375,6.09967041015625
1715093253203463200,12.314463134765624,2.80743408203125,-7.6564483642578125,7.763641357421875
1715093253213411800,12.324411865234374,2.3238067626953125,-9.744186401367188,9.441970825195312
1715093253223391000,12.334390869140625,2.1849365234375,-11.865447998046875,11.369308471679688
1715093253233370400,12.344370361328124,1.3110504150390625,-14.398513793945312,11.5943603515625
1715093253243319000,12.354319091796874,-0.5324859619140625,-16.445556640625,9.64068603515625
1715093253253298200,12.364298095703125,-1.6098785400390625,-16.874130249023438,5.8746185302734375
1715093253263247000,12.3742470703125,-1.5643768310546875,-17.115936279296875,2.8052520751953125
1715093253273226200,12.384226318359374,2.369293212890625,-16.977081298828125,1.8188323974609375
1715093253283205400,12.394205322265625,6.046783447265625,-14.218948364257812,2.2617645263671875
1715093253293154300,12.404154296875,3.530487060546875,-10.699478149414062,2.9321441650390625
1715093253303133400,12.414133544921874,1.979034423828125,-10.711441040039062,5.218597412109375
1715093253313112800,12.42411279296875,3.6406097412109375,-13.776031494140625,6.822723388671875
1715093253323061500,12.4340615234375,4.50970458984375,-14.889328002929688,4.7301788330078125
1715093253333040600,12.44404052734375,-4.3105316162109375,-16.153472900390625,0.918609619140625
1715093253343020000,12.45402001953125,-7.8659210205078125,-19.771102905273438,-2.330322265625
1715093253352968700,12.46396875,-5.988861083984375,-22.28741455078125,-2.1866607666015625
1715093253362947800,12.47394775390625,-4.942596435546875,-15.954757690429688,-4.597625732421875
1715093253372927200,12.48392724609375,-2.2730712890625,-9.126480102539062,-3.3215179443359375
1715093253382906400,12.49390625,-0.101531982421875,-7.1273345947265625,-0.2210235595703125
1715093253392855000,12.50385498046875,1.29669189453125,-6.04754638671875,2.7908782958984375
1715093253402834400,12.51383447265625,0.8777008056640625,-4.405120849609375,4.869049072265625
1715093253412813600,12.5238134765625,0.350982666015625,-3.4258880615234375,5.297607421875
1715093253422793000,12.53379296875,-0.6019134521484375,-2.947052001953125,2.4437255859375
1715093253432741600,12.54374169921875,-1.43988037109375,-3.0906982421875,-0.175537109375
1715093253442720800,12.553720703125,-0.7910614013671875,-4.74749755859375,-0.09173583984375
1715093253452700200,12.5637001953125,0.061279296875,-7.563079833984375,-1.0230865478515625
1715093253462648800,12.57364892578125,0.4874420166015625,-10.768905639648438,-3.266448974609375
1715093253472628200,12.583628173828124,0.19775390625,-13.61322021484375,-5.1506805419921875
1715093253482607400,12.593607421875,-1.286651611328125,-15.36578369140625,-6.1634368896484375
1715093253492556000,12.60355615234375,-3.0703277587890625,-14.9659423828125,-6.4962310791015625
1715093253502535400,12.613535400390624,-2.3927764892578125,-11.221420288085938,-4.14990234375
1715093253512514600,12.6235146484375,-0.61627197265625,-7.39068603515625,-1.9328765869140625
1715093253522463200,12.633463134765625,1.090789794921875,-5.006072998046875,-1.312774658203125
1715093253532442600,12.643442626953124,1.5001983642578125,-4.3189239501953125,-1.291229248046875
1715093253542421800,12.653421875,1.4475250244140625,-4.024444580078125,-0.539459228515625
1715093253552370400,12.663370361328125,1.323028564453125,-5.1784515380859375,-0.0247039794921875
1715093253562349800,12.673349853515624,0.8465728759765625,-6.6844024658203125,0.7869415283203125
1715093253572329000,12.683328857421875,0.066070556640625,-8.494415283203125,1.7685546875
1715093253582277600,12.693277587890625,-0.81500244140625,-10.18951416015625,2.48681640625
1715093253592257000,12.703257080078124,-1.5212860107421875,-11.25732421875,2.9393157958984375
1715093253602236200,12.713236083984375,-2.0959014892578125,-11.652374267578125,3.2649383544921875
1715093253612185000,12.72318505859375,-2.481353759765625,-11.527877807617188,3.293670654296875
1715093253622164200,12.733164306640624,-2.59149169921875,-10.713836669921875,3.1595916748046875
1715093253632143400,12.743143310546875,-2.4717864990234375,-9.602935791015625,3.1500091552734375
1715093253642092300,12.75309228515625,-1.940277099609375,-8.755386352539062,3.0877685546875
1715093253652071400,12.763071533203124,-1.4829864501953125,-7.9892425537109375,2.807647705078125
1715093253662050800,12.77305078125,-1.2842559814453125,-7.5151824951171875,2.7645416259765625
1715093253672030000,12.783030029296874,-1.001739501953125,-7.1871795654296875,2.89862060546875
1715093253681978600,12.792978515625,-0.8030242919921875,-7.0076141357421875,3.1380462646484375
1715093253691958000,12.8029580078125,-0.85809326171875,-7.0387420654296875,3.33197021484375
1715093253701937200,12.812937255859374,-1.1525726318359375,-7.1800079345703125,3.49957275390625
1715093253711916500,12.82291650390625,-1.5955047607421875,-7.505615234375,3.58575439453125
1715093253721865200,12.832865234375,-2.1557464599609375,-7.9940338134765625,3.6072998046875
1715093253731844400,12.84284423828125,-2.30657958984375,-8.867919921875,3.3247833251953125
1715093253741823700,12.85282373046875,-1.7104339599609375,-9.6412353515625,2.934539794921875
1715093253751772400,12.8627724609375,-0.3720703125,-10.1368408203125,1.96966552734375
1715093253761751600,12.87275146484375,0.9184112548828125,-10.170364379882812,0.7989044189453125
1715093253771731000,12.88273095703125,2.220855712890625,-9.540679931640625,0.315277099609375
1715093253781679600,12.8926796875,3.7627105712890625,-8.484848022460938,0.367950439453125
1715093253791658800,12.90265869140625,4.0548095703125,-7.6827850341796875,0.8946685791015625
