time,seconds_elapsed,z,y,x
1713358380141263400,0.158263427734375,0.08417367935180664,-0.1053781509399414,0.1444019079208374
1713358380151273000,0.16827294921875,0.22484970092773438,-0.20585155487060547,-0.24248388409614563
1713358380161252400,0.17825244140625,0.12752151489257812,-0.2616238594055176,-0.4245333969593048
1713358380171231500,0.1882314453125,0.167327880859375,-0.14051246643066406,-0.2290070801973343
1713358380181211000,0.1982109375,-0.21741771697998047,0.014330387115478516,-0.32240432500839233
1713358380191159600,0.20815966796875,0.39748668670654297,0.2718987464904785,-0.051735684275627136
1713358380201138700,0.218138671875,0.4224967956542969,0.25827646255493164,-0.26554059982299805
1713358380211118000,0.2281181640625,0.4188566207885742,-0.17542362213134766,0.06257939338684082
1713358380221097200,0.23809716796875,0.23027515411376953,-0.29233598709106445,-0.19035345315933228
1713358380231076600,0.24807666015625,0.17247295379638672,-0.08421039581298828,0.23308329284191132
1713358380241025300,0.258025390625,-0.03602027893066406,-0.12133359909057617,-0.2928072214126587
1713358380251004400,0.26800439453125,-0.14929866790771484,-0.23490285873413086,-0.1299637109041214
1713358380260983800,0.27798388671875,-0.5557079315185547,-0.5681228637695312,-0.14072388410568237
1713358380270932500,0.287932373046875,-0.1299581527709961,-0.5330510139465332,0.40656986832618713
1713358380280911600,0.29791162109375,-0.007030487060546875,-0.44500112533569336,-0.9172253012657166
1713358380290891000,0.30789111328125,0.05750274658203125,-0.011043071746826172,-0.2136651873588562
1713358380300839700,0.317839599609375,-0.05433464050292969,-0.015357494354248047,0.37138110399246216
1713358380310818800,0.32781884765625,0.07711982727050781,-0.3913145065307617,-0.06975772976875305
1713358380320798200,0.337798095703125,0.18416309356689453,-0.29490137100219727,-0.09956631064414978
1713358380330747000,0.347746826171875,0.29866981506347656,-0.03794717788696289,0.025757454335689545
1713358380340726300,0.357726318359375,0.34755611419677734,0.014860153198242188,-0.23824624717235565
1713358380350705400,0.367705322265625,0.525909423828125,0.06478357315063477,-0.29898351430892944
1713358380360684500,0.3776845703125,0.39881324768066406,0.16631460189819336,-0.18909227848052979
1713358380370664000,0.387663818359375,0.5476455688476562,0.1642603874206543,-0.20059888064861298
1713358380380612600,0.397612548828125,0.6138772964477539,0.1135406494140625,-0.192544624209404
1713358380390592000,0.407592041015625,0.6902170181274414,0.03476381301879883,-0.13069391250610352
1713358380400571100,0.417571044921875,0.44381141662597656,-0.16160917282104492,0.14301826059818268
1713358380410519800,0.427519775390625,0.17268085479736328,-0.47654151916503906,0.2321164309978485
1713358380420499200,0.437499267578125,0.06595039367675781,-0.3842964172363281,0.26859551668167114
1713358380430478300,0.447478271484375,0.08071613311767578,-0.09985017776489258,0.21155259013175964
1713358380440427000,0.457427001953125,-0.053844451904296875,0.025220394134521484,-0.02137446403503418
1713358380450406400,0.467406494140625,-0.03217124938964844,-0.018487930297851562,-0.1523517370223999
1713358380460385500,0.477385498046875,0.0074138641357421875,0.12568140029907227,-0.08691482245922089
1713358380470334200,0.487334228515625,0.11701488494873047,0.20127153396606445,-0.12025341391563416
1713358380480313600,0.497313720703125,0.0136566162109375,-0.05294322967529297,-0.13813625276088715
1713358380490292700,0.507292724609375,0.05748558044433594,-0.11830949783325195,-0.10763978958129883
1713358380500241700,0.51724169921875,-0.06941509246826172,0.06355810165405273,-0.03761160373687744
1713358380510220800,0.527220703125,-0.16229820251464844,0.010721206665039062,-0.14652548730373383
1713358380520200000,0.537199951171875,-0.36090660095214844,-0.10836362838745117,-0.09486295282840729
1713358380530148900,0.54714892578125,-0.15040206909179688,-0.12197351455688477,-0.11412020027637482
1713358380540128000,0.5571279296875,-0.1376800537109375,-0.09145689010620117,0.06920070946216583
1713358380550107400,0.567107421875,-0.0704803466796875,-0.13184356689453125,0.14965201914310455
1713358380560056000,0.57705615234375,-0.07176399230957031,-0.10791540145874023,0.22878117859363556
1713358380570035200,0.58703515625,0.11552810668945312,0.1640009880065918,-0.03426319360733032
1713358380580014600,0.5970146484375,-0.03297901153564453,0.055515289306640625,-0.1389005333185196
1713358380589963300,0.60696337890625,0.00010204315185546875,-0.02537393569946289,-0.2379518449306488
1713358380599942400,0.6169423828125,0.13344478607177734,0.003768444061279297,-0.2642614245414734
1713358380609891300,0.626891357421875,0.26365089416503906,0.5809307098388672,-0.04880830645561218
1713358380619870500,0.636870361328125,0.33843421936035156,0.3164992332458496,-0.17166075110435486
1713358380629849600,0.646849609375,0.346160888671875,0.2264704704284668,-0.5089483261108398
1713358380639829000,0.6568291015625,0.0869283676147461,-0.08498001098632812,-0.7508038282394409
1713358380649808100,0.66680810546875,0.09237289428710938,-0.02692890167236328,-0.30538496375083923
1713358380659756800,0.6767568359375,0.4343109130859375,0.47171735763549805,0.7398437261581421
1713358380669736200,0.686736083984375,0.22186851501464844,-0.21401262283325195,0.18689687550067902
1713358380679715300,0.69671533203125,0.1373119354248047,-0.19753599166870117,0.06383680552244186
1713358380689664300,0.706664306640625,0.3324728012084961,-0.2058582305908203,0.17812302708625793
1713358380699643400,0.716643310546875,0.6782464981079102,-0.5802826881408691,0.41181087493896484
1713358380709622500,0.72662255859375,0.4136819839477539,-0.12262248992919922,0.018697863444685936
1713358380719571500,0.736571533203125,0.5702695846557617,0.25314855575561523,-0.4672481417655945
1713358380729550600,0.746550537109375,0.35375213623046875,0.2126145362854004,-0.29705810546875
1713358380739530000,0.756530029296875,0.12007331848144531,0.1245427131652832,-0.1206316277384758
1713358380749478700,0.766478759765625,-0.043122291564941406,-0.14067649841308594,0.2871779203414917
1713358380759457800,0.776457763671875,-0.38572120666503906,0.020597457885742188,0.1972060352563858
1713358380769437200,0.786437255859375,-0.683497428894043,0.16069889068603516,0.07150208950042725
1713358380779385900,0.7963857421875,-0.6769742965698242,-0.030474185943603516,0.16147053241729736
1713358380789365000,0.806364990234375,-0.636164665222168,-0.0025968551635742188,0.07720813155174255
1713358380799344400,0.816344482421875,-0.6006288528442383,0.057517051696777344,0.28859996795654297
1713358380809293000,0.82629296875,-0.4393739700317383,-0.01308441162109375,-0.40566709637641907
1713358380819272200,0.836272216796875,-0.3849773406982422,-0.01517343521118164,0.05880837142467499
1713358380829251600,0.84625146484375,-0.3369626998901367,0.062220096588134766,-0.10535584390163422
1713358380839200300,0.8562001953125,-0.6343154907226562,-0.2589426040649414,0.16039934754371643
1713358380849179600,0.8661796875,-0.570521354675293,0.2259840965270996,-0.026648908853530884
1713358380859158800,0.87615869140625,-0.5846138000488281,0.2133021354675293,-0.03188017010688782
1713358380869107500,0.886107421875,-0.2961397171020508,0.14678001403808594,-0.7837381362915039
1713358380879086800,0.8960869140625,-0.11942005157470703,0.21973180770874023,-0.3257146179676056
1713358380889066000,0.90606591796875,0.13795757293701172,0.32982349395751953,-0.5524016618728638
1713358380899014700,0.9160146484375,0.37299442291259766,0.15331268310546875,-0.2908298373222351
1713358380908994000,0.925994140625,0.14960384368896484,-0.0411372184753418,-0.41518938541412354
1713358380918973200,0.93597314453125,-0.1261758804321289,-0.16463661193847656,-0.31933391094207764
1713358380928952600,0.94595263671875,0.0798187255859375,0.11514568328857422,0.11344899237155914
1713358380938901200,0.9559013671875,-0.1257305145263672,-0.21096277236938477,0.0915488451719284
1713358380948880400,0.96588037109375,0.2206897735595703,-0.11899995803833008,0.2062222957611084
1713358380958859800,0.97585986328125,0.7982692718505859,-0.14728856086730957,0.021412372589111328
1713358380968808400,0.985808349609375,1.376504898071289,-0.2990384101867676,0.08299969136714935
1713358380978787600,0.99578759765625,1.1519384384155273,-0.08357858657836914,-0.3734937906265259
1713358380988767000,1.00576708984375,1.189509391784668,0.14376235008239746,-0.3501945734024048
1713358380998712000,1.015712158203125,1.223928451538086,-0.2150740623474121,0.0007763504981994629
1713358381008691500,1.02569140625,1.1169776916503906,-0.2447981834411621,0.2279197871685028
1713358381018670600,1.035670654296875,0.9323635101318359,-0.28360438346862793,0.2975616455078125
1713358381028619300,1.045619384765625,0.35303497314453125,-0.11125302314758301,0.002743467688560486
1713358381038598700,1.0555986328125,0.11343955993652344,0.032106637954711914,0.06778368353843689
1713358381048577800,1.065577880859375,-0.1044158935546875,-0.02246403694152832,-0.0037610679864883423
1713358381058526500,1.0755263671875,-0.19114017486572266,-0.12548470497131348,-0.1791830062866211
1713358381068505900,1.085505859375,-0.3216218948364258,-0.004843711853027344,-0.1523652821779251
1713358381078485000,1.095485107421875,-0.25084781646728516,-0.4437694549560547,0.14736901223659515
1713358381088434000,1.105433837890625,-0.38927555084228516,-0.4428684711456299,0.14100058376789093
1713358381098413000,1.1154130859375,0.016155242919921875,-0.25856852531433105,0.09689423441886902
1713358381108392200,1.12539208984375,0.02313232421875,-0.8322713375091553,0.48670876026153564
1713358381118341000,1.135341064453125,0.02673625946044922,-0.6392335891723633,0.5433084964752197
1713358381128320300,1.1453203125,0.08029937744140625,-0.5456159114837646,0.3364156484603882
1713358381138299600,1.155299560546875,0.10344791412353516,-0.33165836334228516,0.24536864459514618
1713358381148248300,1.165248291015625,0.058203697204589844,-0.01905035972595215,-0.046161144971847534
1713358381158227500,1.1752275390625,0.12781047821044922,0.28434109687805176,-0.23908986151218414
1713358381168206800,1.185206787109375,-0.05670452117919922,0.5293269157409668,-0.5378851294517517
1713358381178155500,1.195155517578125,-0.17036914825439453,0.8066661357879639,-0.8839951157569885
1713358381188134700,1.205134765625,-0.1200723648071289,1.0537703037261963,-0.8519227504730225
1713358381198114000,1.215114013671875,-0.5572500228881836,0.2481379508972168,0.0022289305925369263
1713358381208062700,1.225062744140625,-0.40930843353271484,-0.25427842140197754,0.5457234382629395
1713358381218041900,1.235041748046875,-0.6053009033203125,-0.4596710205078125,1.6141623258590698
1713358381228021200,1.245021240234375,-1.334463119506836,-0.8891968727111816,0.2466425895690918
1713358381238000400,1.25500048828125,-1.728179931640625,-2.6626853942871094,-0.6581734418869019
1713358381247949300,1.26494921875,-1.5963029861450195,-1.7532110214233398,1.5874786376953125
1713358381257928400,1.274928466796875,-2.4231157302856445,-2.2298872470855713,1.5092264413833618
1713358381267907600,1.284907470703125,-2.8396034240722656,-3.088618755340576,1.2318674325942993
1713358381277856500,1.2948564453125,-3.0186986923217773,-3.8335540294647217,2.8778202533721924
1713358381287835600,1.304835693359375,-5.180459976196289,-4.553506851196289,2.5071959495544434
1713358381297814800,1.314814697265625,-8.039207458496094,-5.267672061920166,0.2879077196121216
1713358381307763700,1.324763671875,-12.00953197479248,-5.224025249481201,-2.437288284301758
1713358381317742800,1.334742919921875,-13.64494514465332,-4.949702739715576,-4.966032981872559
1713358381327722200,1.34472216796875,-11.386954307556152,-4.467748641967773,-6.1211957931518555
1713358381337671000,1.3546708984375,-8.770242691040039,-3.86367130279541,-6.368602275848389
1713358381347650000,1.364650146484375,-4.7663893699646,-3.7588696479797363,-5.3956756591796875
1713358381357629400,1.37462939453125,2.3593854904174805,-3.5154199600219727,-3.2970008850097656
1713358381367578000,1.384578125,3.3471779823303223,-4.106537818908691,-2.517573833465576
1713358381377552400,1.394552490234375,2.947915554046631,-4.671489238739014,-1.3803277015686035
1713358381387531800,1.40453173828125,-0.524665355682373,-5.783057689666748,-1.379570484161377
1713358381397480400,1.41448046875,-3.9896740913391113,-6.716214179992676,-0.7775187492370605
1713358381407459800,1.4244599609375,-5.947886943817139,-6.761743068695068,-1.1273918151855469
1713358381417439000,1.43443896484375,-7.402519702911377,-5.4086012840271,-0.08800506591796875
1713358381427387600,1.4443876953125,-8.717963218688965,-5.508250713348389,-0.42398500442504883
1713358381437367000,1.454366943359375,-6.903926849365234,-5.418036937713623,0.5853271484375
1713358381447315700,1.464315673828125,-3.8108644485473633,-5.2404704093933105,1.1031432151794434
1713358381457294800,1.474294921875,-1.9812660217285156,-6.376157283782959,1.852877140045166
1713358381467274200,1.484274169921875,-1.329474925994873,-6.74818229675293,1.3837003707885742
1713358381477253400,1.49425341796875,-1.7839117050170898,-6.379819393157959,-0.5014863014221191
1713358381487202000,1.5042021484375,-2.1573433876037598,-6.681608200073242,-1.5397605895996094
1713358381497181400,1.514181396484375,-3.5742883682250977,-4.894006729125977,3.321791172027588
1713358381507160600,1.52416064453125,-4.737234115600586,-7.507436752319336,-0.41989946365356445
1713358381517150700,1.534150634765625,-7.200641632080078,-4.580951690673828,3.729706287384033
1713358381527099600,1.544099609375,-3.57340931892395,-7.829761028289795,1.756394863128662
1713358381537078800,1.554078857421875,-1.0862078666687012,-6.104396343231201,3.6824069023132324
1713358381547058200,1.56405810546875,-0.2515794038772583,-5.501133918762207,4.525047779083252
1713358381557006800,1.5740068359375,0.9864076375961304,-4.968739032745361,7.227066993713379
1713358381566986000,1.583986083984375,6.557348728179932,-5.02874755859375,10.949323654174805
1713358381576965400,1.59396533203125,9.197749137878418,-4.037939548492432,13.425924301147461
1713358381586914000,1.6039140625,12.507905006408691,-3.5432276725769043,9.993492126464844
1713358381596893200,1.61389306640625,12.48950481414795,-3.192563056945801,10.237892150878906
1713358381606872600,1.62387255859375,11.338005065917969,-2.2992935180664062,6.690011024475098
1713358381616821200,1.6338212890625,10.126643180847168,-0.5545015335083008,8.179298400878906
1713358381626800400,1.64380029296875,5.998093605041504,1.595219612121582,9.906256675720215
1713358381636779800,1.65377978515625,3.9231886863708496,2.70566463470459,9.383216857910156
1713358381646728400,1.663728515625,1.9276478290557861,4.535727024078369,9.230205535888672
1713358381656707800,1.673707763671875,-1.56521737575531,6.4227519035339355,8.930200576782227
1713358381666687000,1.68368701171875,-5.082253456115723,5.80657958984375,9.55056381225586
1713358381676635600,1.6936357421875,-4.543622970581055,5.112133026123047,9.458658218383789
1713358381686615000,1.703614990234375,0.5609557032585144,4.317275047302246,8.8975248336792
1713358381696594200,1.71359423828125,5.391774654388428,2.8772363662719727,8.472299575805664
1713358381706542800,1.72354296875,6.9753217697143555,2.568783760070801,7.839802265167236
1713358381716522200,1.733522216796875,5.45744514465332,1.7914981842041016,7.250729084014893
1713358381726471000,1.743470947265625,3.996781587600708,1.6212873458862305,5.6007080078125
1713358381736450000,1.753449951171875,2.8280344009399414,1.550438404083252,3.922086715698242
1713358381746429400,1.763429443359375,1.3267786502838135,1.3987059593200684,3.0944509506225586
1713358381756378000,1.773378173828125,0.22636544704437256,1.2007007598876953,2.654728889465332
1713358381766359600,1.783359619140625,0.19833588600158691,0.5651760101318359,1.2081828117370605
1713358381776339000,1.7933388671875,0.9276508092880249,-0.821502685546875,-0.4752497673034668
1713358381786318000,1.803318115234375,2.1117310523986816,-2.6339449882507324,-2.4020891189575195
1713358381796266800,1.813266845703125,3.5241036415100098,-3.641078472137451,-2.2222766876220703
1713358381806246100,1.82324609375,4.132394790649414,-4.484243392944336,-0.05838823318481445
1713358381816225300,1.833225341796875,7.024518013000488,-5.327295780181885,1.0333948135375977
1713358381826204700,1.84320458984375,5.826947212219238,-6.038994789123535,2.877758026123047
1713358381836153300,1.8531533203125,2.179830551147461,-4.66797399520874,4.411099910736084
1713358381846132500,1.863132568359375,-5.106046676635742,-5.86952543258667,6.24190092086792
1713358381856111900,1.87311181640625,-8.786811828613281,-8.869901657104492,3.432976722717285
1713358381866043400,1.88304345703125,-8.807235717773438,-10.010498046875,0.23861169815063477
1713358381876022500,1.8930224609375,-9.49341106414795,-9.851719856262207,-0.5115694999694824
1713358381886002000,1.903001953125,-10.921710014343262,-8.95284366607666,0.5539698600769043
1713358381895950600,1.91295068359375,-9.971219062805176,-7.9028825759887695,1.430224895477295
1713358381905930000,1.922929931640625,-5.078830242156982,-8.346266746520996,1.1173810958862305
1713358381915909000,1.9329091796875,0.9018155336380005,-7.450806617736816,-1.3070545196533203
1713358381925857800,1.94285791015625,5.143383979797363,-8.278435707092285,-4.685293197631836
1713358381935837200,1.952837158203125,4.286501407623291,-9.782109260559082,-4.879909992218018
1713358381945785900,1.962785888671875,6.657087326049805,-7.5661115646362305,-2.8768985271453857
1713358381955765000,1.972764892578125,4.781248569488525,-6.928179740905762,-1.3622140884399414
1713358381965744400,1.982744384765625,1.3877863883972168,-6.349847793579102,0.40766406059265137
1713358381975693000,1.992693115234375,-0.7155575156211853,-2.0111169815063477,3.38423228263855
1713358381985669400,2.00266943359375,2.342266082763672,-3.2157745361328125,1.168337106704712
1713358381995648500,2.0126484375,6.618481636047363,-4.046097755432129,-0.08795535564422607
1713358382005597400,2.022597412109375,9.11942195892334,-2.4906740188598633,1.2422351837158203
1713358382015576600,2.03257666015625,8.641087532043457,1.055185317993164,5.7524590492248535
1713358382025555700,2.0425556640625,4.631209850311279,0.30164146423339844,5.8578901290893555
1713358382035504600,2.052504638671875,0.41974881291389465,-2.7472095489501953,-0.6470595002174377
1713358382045483800,2.06248388671875,17.25701141357422,-9.907546043395996,-1.6714863777160645
1713358382055463200,2.072463134765625,8.303694725036621,-4.494088172912598,3.7723631858825684
1713358382065442300,2.0824423828125,-12.539751052856445,6.128662109375,14.354452133178711
1713358382075391000,2.092390869140625,-9.58799934387207,8.744855880737305,23.50433349609375
1713358382085370400,2.102370361328125,-10.13414192199707,3.6147375106811523,9.635791778564453
1713358382095349500,2.112349609375,-5.240683078765869,-3.5130958557128906,-8.488715171813965
1713358382105328600,2.12232861328125,16.863771438598633,-4.233682632446289,-7.193747043609619
1713358382115277600,2.132277587890625,-1.6289210319519043,1.9369468688964844,4.4735565185546875
1713358382125256700,2.142256591796875,-17.996606826782227,5.73116397857666,8.805901527404785
1713358382135236000,2.152236083984375,-8.661806106567383,4.6869964599609375,3.7045209407806396
1713358382145184800,2.162184814453125,3.984422445297241,-0.8965034484863281,-3.652383804321289
1713358382155164000,2.172163818359375,-2.01042103767395,-0.7706499099731445,-1.3562462329864502
1713358382165143300,2.182143310546875,-9.71895694732666,0.4638814926147461,-0.7836912870407104
1713358382175092000,2.192092041015625,13.081657409667969,-3.2188873291015625,-2.28981614112854
1713358382185071000,2.202071044921875,-2.467020273208618,1.1521739959716797,3.617171049118042
1713358382195020000,2.21202001953125,10.302434921264648,-2.523282051086426,0.513392448425293
1713358382204999200,2.221999267578125,2.712559700012207,-4.461642265319824,3.5360565185546875
1713358382214978300,2.231978271484375,-4.746258735656738,1.6847591400146484,4.433463096618652
1713358382224927200,2.24192724609375,-3.7113289833068848,0.41843605041503906,4.067440986633301
1713358382234906400,2.25190625,-0.6879105567932129,2.749937057495117,4.737401008605957
1713358382244885800,2.2618857421875,1.935384750366211,-0.7355928421020508,1.936156988143921
1713358382254834400,2.27183447265625,-3.378629684448242,1.9537525177001953,5.850592613220215
1713358382264813600,2.2818134765625,-2.984466552734375,1.9362454414367676,4.201864242553711
1713358382274793000,2.29179296875,-3.400031089782715,5.280656814575195,3.760593891143799
1713358382284741600,2.30174169921875,-1.8341798782348633,2.2549257278442383,-0.8052487373352051
1713358382294720800,2.311720703125,0.47590208053588867,2.7276206016540527,-0.9662518501281738
1713358382304700200,2.3217001953125,0.749701976776123,2.2244749069213867,-0.014077186584472656
1713358382314648800,2.33164892578125,0.2095012664794922,2.2939610481262207,0.4210090637207031
1713358382324628000,2.3416279296875,1.0995535850524902,1.7061572074890137,-0.35580015182495117
1713358382334607400,2.351607421875,0.9717979431152344,0.7631521224975586,-1.0667433738708496
1713358382344586500,2.36158642578125,-1.5207123756408691,1.2858481407165527,1.3872265815734863
1713358382354535400,2.371535400390625,0.31698036193847656,1.3769426345825195,1.2615017890930176
1713358382364514600,2.3815146484375,1.0077004432678223,-0.7155160903930664,-0.6924786567687988
1713358382374493700,2.39149365234375,3.619507312774658,-1.0050978660583496,-0.8061366081237793
1713358382384473000,2.40147314453125,-3.1776580810546875,-0.5107641220092773,2.2792344093322754
1713358382394421800,2.411421875,-2.951047420501709,4.785435676574707,0.1485424041748047
1713358382404401200,2.421401123046875,-9.962827682495117,10.199496269226074,2.444766044616699
1713358382414380300,2.43138037109375,-8.510644912719727,6.575955867767334,7.261221885681152
1713358382424329000,2.441328857421875,-4.084850788116455,4.353759765625,9.301095962524414
1713358382434308400,2.451308349609375,-6.468561172485352,4.542791843414307,11.558695793151855
1713358382444287500,2.46128759765625,-3.182419776916504,3.830543041229248,11.009048461914062
1713358382454236200,2.471236083984375,-1.6576437950134277,3.085315704345703,7.790996074676514
1713358382464215600,2.481215576171875,-1.7206697463989258,2.9335484504699707,3.4701781272888184
1713358382474164200,2.491164306640625,-3.0008864402770996,3.0729470252990723,2.3061370849609375
1713358382484143400,2.501143310546875,-3.6527113914489746,2.7935070991516113,1.2034122943878174
1713358382494122800,2.511122802734375,-3.4608688354492188,2.819772720336914,0.9672982692718506
1713358382504071400,2.521071533203125,-3.943824291229248,5.885342597961426,3.0822739601135254
1713358382514050600,2.531050537109375,-1.1916909217834473,5.857630729675293,2.479257822036743
1713358382524030000,2.541030029296875,-2.94368314743042,-2.5440845489501953,1.4643932580947876
1713358382533980200,2.550980224609375,-2.039640188217163,-1.1121883392333984,3.671157121658325
1713358382543959300,2.560959228515625,-2.424297332763672,0.0865926742553711,4.80603551864624
1713358382553938700,2.570938720703125,-2.4572510719299316,1.7642059326171875,6.639639377593994
1713358382563887400,2.580887451171875,-1.4841723442077637,2.6128110885620117,6.28552770614624
1713358382573866800,2.59086669921875,0.10347890853881836,1.6209678649902344,7.092314720153809
1713358382583846000,2.600845947265625,1.268813967704773,-0.9588413238525391,6.344144821166992
1713358382593794600,2.610794677734375,7.49285364151001,-1.9626169204711914,8.269404411315918
1713358382603774000,2.62077392578125,5.567655563354492,-5.533909797668457,6.381496429443359
1713358382613753000,2.630753173828125,4.595607757568359,-4.74077033996582,4.5673980712890625
1713358382623701800,2.64070166015625,2.830139398574829,-2.0623531341552734,3.9615771770477295
1713358382633681200,2.65068115234375,0.2192210555076599,-0.7934722900390625,1.172372817993164
1713358382643660300,2.660660400390625,-0.1133403480052948,-1.14862060546875,0.7923192977905273
1713358382653639700,2.6706396484375,0.7701410055160522,-2.9732675552368164,-2.4045777320861816
1713358382663618800,2.680618896484375,2.5377252101898193,-2.1193933486938477,-5.595050811767578
1713358382673567500,2.6905673828125,5.144954681396484,-2.969432830810547,-8.37096881866455
1713358382683547000,2.700546875,1.6543364524841309,-2.95992374420166,-5.583712100982666
1713358382693495600,2.71049560546875,2.258572578430176,-4.4077959060668945,-4.655283451080322
1713358382703474700,2.720474609375,3.6446242332458496,-4.577436447143555,-5.1443867683410645
1713358382713454000,2.7304541015625,0.7569992542266846,-5.309406280517578,-4.7245869636535645
1713358382723402800,2.74040283203125,3.078648567199707,-5.720486640930176,-10.306806564331055
1713358382733382100,2.750382080078125,4.47933292388916,-2.412778854370117,-12.005472183227539
1713358382743361300,2.760361328125,6.1921234130859375,-3.330033302307129,-7.665119171142578
1713358382753310000,2.77031005859375,6.4586639404296875,-1.3910703659057617,-11.440858840942383
1713358382763289300,2.780289306640625,5.727762699127197,0.7625837326049805,-0.1262068748474121
1713358382773268500,2.7902685546875,2.7292873859405518,6.613014221191406,37.4636344909668
1713358382783217200,2.800217041015625,-1.528071641921997,-3.940800666809082,27.239355087280273
1713358382793196500,2.810196533203125,-10.190230369567871,-5.96226692199707,-2.384941339492798
1713358382803175700,2.82017578125,-1.9239604473114014,-2.230823516845703,-1.8615431785583496
1713358382813124400,2.830124267578125,-1.7687854766845703,-6.439299583435059,2.3411099910736084
1713358382823103700,2.840103759765625,-6.862723350524902,-7.1406097412109375,1.3848146200180054
1713358382833083000,2.850082763671875,-12.024612426757812,-6.354221343994141,-0.2406405806541443
1713358382843031600,2.860031494140625,-4.422493934631348,-5.908627510070801,0.8394114375114441
1713358382853011000,2.870010986328125,-0.9352638125419617,-5.494407653808594,-0.6145386695861816
1713358382862990000,2.879989990234375,-2.15321683883667,-6.354913711547852,-3.218193292617798
1713358382872939000,2.88993896484375,-3.7857279777526855,-4.8194732666015625,-3.3722140789031982
1713358382882918100,2.899918212890625,-3.901888370513916,-2.445174217224121,-3.0476338863372803
1713358382892897300,2.909897216796875,-2.3962368965148926,-2.0649824142456055,-1.6423754692077637
1713358382902846200,2.91984619140625,-1.4417470693588257,-1.5355072021484375,-0.7621743679046631
1713358382912825300,2.929825439453125,-0.9366340637207031,-0.22751808166503906,-1.114771842956543
1713358382922804700,2.9398046875,-1.3624019622802734,0.2908658981323242,-0.12196129560470581
1713358382932783900,2.949783935546875,-2.845573902130127,-0.27532291412353516,-1.2290127277374268
1713358382942732500,2.959732666015625,-2.4944326877593994,-0.7799053192138672,-2.846031665802002
1713358382952712000,2.9697119140625,-1.2052242755889893,0.21880245208740234,-6.10810661315918
1713358382962691000,2.979691162109375,0.06167447566986084,3.0302085876464844,-11.219727516174316
1713358382972639700,2.9896396484375,1.0451817512512207,3.57407283782959,-7.31143045425415
1713358382982619100,2.999619140625,0.9668524265289307,2.3303136825561523,-4.2520952224731445
1713358382992598300,3.009598388671875,-0.8793597221374512,3.1032752990722656,-4.8191657066345215
1713358383002547000,3.019546875,-0.43708229064941406,3.824723243713379,-3.4658806324005127
1713358383012526300,3.0295263671875,-0.020649433135986328,3.491809844970703,-1.7855944633483887
1713358383022505500,3.03950537109375,0.30528247356414795,3.710831642150879,-0.08461961150169373
1713358383032454400,3.049454345703125,-0.2975574731826782,4.666443824768066,0.7797681093215942
1713358383042433500,3.05943359375,-0.9787397384643555,3.6682214736938477,-0.4824230968952179
1713358383052412700,3.06941259765625,-1.6438943147659302,2.295363426208496,-2.0366809368133545
1713358383062361600,3.079361572265625,-1.3113981485366821,-0.26015758514404297,-3.7122421264648438
1713358383072344800,3.0893447265625,-0.8051329851150513,-0.28226566314697266,-1.392025113105774
1713358383082324000,3.099323974609375,-0.29389798641204834,0.2645540237426758,-1.2491657733917236
1713358383092272600,3.109272705078125,-1.096632957458496,0.9868841171264648,-2.1809284687042236
1713358383102252000,3.119251953125,-0.25237399339675903,1.3310422897338867,-3.01853084564209
1713358383112231200,3.129231201171875,-0.055648863315582275,1.952958106994629,-1.9191317558288574
1713358383122180000,3.13918017578125,-0.46879518032073975,2.2904882431030273,-0.47888147830963135
1713358383132159200,3.1491591796875,-0.15191572904586792,3.1772356033325195,-1.5514187812805176
1713358383142138400,3.159138427734375,0.5187477469444275,2.80672550201416,1.8816275596618652
1713358383152087300,3.16908740234375,0.047934114933013916,0.9702615737915039,2.213576555252075
1713358383162066400,3.17906640625,-0.2910841107368469,-0.3699321746826172,0.3482282757759094
1713358383172045800,3.1890458984375,-0.5378789901733398,-1.984090805053711,-0.6517291069030762
1713358383181994500,3.198994384765625,1.1266200542449951,0.19383525848388672,-0.13802427053451538
1713358383191973600,3.2089736328125,1.1642067432403564,3.927560806274414,-0.8876789212226868
1713358383201953000,3.218953125,-1.3918389081954956,3.8028907775878906,-2.041205406188965
1713358383211901700,3.228901611328125,-2.9030539989471436,0.35158443450927734,-2.390123128890991
1713358383221880800,3.238880859375,-1.672552227973938,0.9822673797607422,-0.7719212174415588
1713358383231860200,3.248860107421875,-2.087656259536743,6.195248603820801,0.44516217708587646
1713358383241839400,3.25883935546875,-3.9457669258117676,2.8707590103149414,0.625933825969696
1713358383251788000,3.2687880859375,-0.6789080500602722,2.169879913330078,1.019135594367981
1713358383261767400,3.278767333984375,-0.02656608819961548,-0.9309053421020508,1.1245648860931396
1713358383271746600,3.28874658203125,0.4012220501899719,-2.626193046569824,1.1642526388168335
1713358383281695500,3.298695556640625,0.4924072027206421,-3.4661550521850586,0.05311751365661621
1713358383291674600,3.308674560546875,0.42100417613983154,-3.4833078384399414,-0.9837990999221802
1713358383301653800,3.31865380859375,0.2623327970504761,-2.6856746673583984,-1.6123522520065308
1713358383311602700,3.328602783203125,0.5004960298538208,-0.8211641311645508,-1.567112922668457
1713358383321581800,3.338581787109375,0.3918442726135254,1.16436767578125,-1.3661303520202637
1713358383331561200,3.348561279296875,0.20187366008758545,1.9564037322998047,-0.8535313010215759
1713358383341510000,3.358510009765625,-0.11655318737030029,1.9343280792236328,-0.35132598876953125
1713358383351489000,3.368489013671875,-0.8854067325592041,1.529026985168457,-0.03692154586315155
1713358383361468400,3.378468505859375,-1.3008899688720703,2.5814266204833984,1.5214581489562988
1713358383371417000,3.3884169921875,-1.206847906112671,2.7288455963134766,1.5011215209960938
1713358383381396200,3.398396240234375,-1.183178186416626,2.055661201477051,-0.0672837421298027
1713358383391375600,3.408375732421875,-0.9738342761993408,2.3522462844848633,-0.6055544018745422
1713358383401324300,3.41832421875,2.7135698795318604,14.297101020812988,-1.740883708000183
1713358383411303400,3.428303466796875,-1.9058666229248047,17.615116119384766,7.424348831176758
1713358383421282800,3.43828271484375,0.5860687494277954,-5.114691734313965,1.719529628753662
1713358383431231500,3.4482314453125,-4.593523979187012,-23.49081039428711,-13.831568717956543
1713358383441211000,3.4582109375,-3.4284424781799316,-20.10363006591797,-7.676675796508789
1713358383451190000,3.46818994140625,-0.20484566688537598,-8.962247848510742,-1.526839256286621
1713358383461138700,3.478138671875,0.11524724960327148,-4.194779396057129,-2.7622873783111572
1713358383471118000,3.4881181640625,-1.049771785736084,-4.220731735229492,-2.545252799987793
1713358383481097200,3.49809716796875,-2.5161709785461426,-3.3755054473876953,-3.383667230606079
1713358383491046000,3.5080458984375,-3.055934429168701,-1.732086181640625,-2.9151439666748047
1713358383501025300,3.518025390625,-1.7614316940307617,-0.8394908905029297,-1.3104262351989746
1713358383511004400,3.52800439453125,-0.27823829650878906,-1.1469526290893555,-0.16514372825622559
1713358383520983800,3.53798388671875,0.3018280267715454,-1.4216489791870117,0.9842610955238342
1713358383530932500,3.547932373046875,0.4271683692932129,-1.9474763870239258,1.6461067199707031
1713358383540911600,3.55791162109375,0.0582122802734375,-2.439772605895996,2.025716781616211
1713358383550891000,3.56789111328125,-0.3980519771575928,-1.8584966659545898,2.0403552055358887
1713358383560839700,3.577839599609375,-0.5718826651573181,-0.04451560974121094,2.097174644470215
1713358383570818800,3.58781884765625,-0.434100866317749,1.7578449249267578,1.744337558746338
1713358383580798200,3.597798095703125,-0.5311092734336853,2.254638671875,1.1548948287963867
1713358383590747000,3.607746826171875,-2.0036489963531494,2.0573911666870117,0.5518167614936829
1713358383600726000,3.61772607421875,-1.9812804460525513,1.5006160736083984,0.16455543041229248
1713358383610705400,3.627705322265625,0.23765653371810913,1.2279729843139648,-0.521333634853363
1713358383620654000,3.637654052734375,-0.9311884045600891,2.227290153503418,-0.5646651387214661
1713358383630633500,3.647633544921875,0.23473358154296875,1.6322202682495117,-0.5585603713989258
1713358383640612600,3.657612548828125,1.1148546934127808,2.306119918823242,-0.17239826917648315
1713358383650561300,3.667561279296875,1.052864909172058,3.0486936569213867,-0.07855260372161865
1713358383660540700,3.677540771484375,0.5251255035400391,2.8582630157470703,-0.46098148822784424
1713358383670519800,3.687519775390625,0.03989899158477783,1.9890031814575195,-0.40146374702453613
1713358383680468500,3.697468505859375,-0.1395946741104126,1.0316619873046875,-0.05375480651855469
1713358383690448000,3.70744775390625,-0.04838085174560547,0.2509727478027344,0.20683813095092773
1713358383700427000,3.717427001953125,0.014567732810974121,0.007153511047363281,0.7632104158401489
1713358383710375700,3.727375732421875,0.04878079891204834,0.11761283874511719,1.1890449523925781
1713358383720355000,3.73735498046875,-0.01140594482421875,0.1828470230102539,1.3554936647415161
1713358383730334200,3.747334228515625,-0.12849831581115723,0.42707157135009766,1.536742091178894
1713358383740283100,3.757283203125,-0.09472048282623291,0.8069944381713867,1.7122802734375
1713358383750262300,3.76726220703125,-0.09580838680267334,0.7674856185913086,1.361344337463379
1713358383760241400,3.777241455078125,-0.037146687507629395,0.7341442108154297,1.322314739227295
1713358383770190300,3.7871904296875,0.051819562911987305,0.9602994918823242,1.2261302471160889
1713358383780169500,3.79716943359375,-0.285807728767395,0.9584827423095703,0.42618173360824585
1713358383790148900,3.80714892578125,0.11142349243164062,1.0771446228027344,-0.11121493577957153
1713358383800128000,3.8171279296875,0.2446753978729248,0.9898042678833008,-1.0813956260681152
1713358383810076700,3.82707666015625,0.590816855430603,0.6994428634643555,-0.7079052925109863
1713358383820056000,3.83705615234375,0.5126066207885742,0.28951549530029297,-0.9080957174301147
1713358383830035200,3.84703515625,0.5481852293014526,0.3533134460449219,0.16314637660980225
1713358383839983900,3.85698388671875,0.2681485414505005,0.2360363006591797,2.2796201705932617
1713358383849963300,3.86696337890625,0.4133274555206299,-0.297149658203125,1.33096444606781
1713358383859942400,3.8769423828125,0.3737744688987732,-0.7425174713134766,0.3058741092681885
1713358383869891000,3.88689111328125,-0.09358382225036621,-0.44797229766845703,1.0268892049789429
1713358383879870500,3.896870361328125,-1.5427207946777344,-0.2997608184814453,1.188148021697998
1713358383889849600,3.906849609375,-2.125530958175659,-0.26441097259521484,0.9966427087783813
1713358383899798300,3.91679833984375,-1.6884602308273315,-0.10144233703613281,0.7509137988090515
1713358383909777700,3.926777587890625,-1.111208438873291,0.23717117309570312,0.7823940515518188
1713358383919756800,3.9367568359375,-0.7014837265014648,0.23543834686279297,0.9020082950592041
1713358383929705700,3.946705810546875,-0.5011680722236633,0.04480171203613281,1.4697169065475464
1713358383939684900,3.956684814453125,-0.2726995050907135,-0.21247005462646484,1.8508633375167847
1713358383949664000,3.9666640625,0.0038521885871887207,-0.41220664978027344,1.8752691745758057
1713358383959613000,3.976613037109375,-0.12671291828155518,-0.7457237243652344,2.059358596801758
1713358383969592000,3.986592041015625,-0.24577397108078003,-1.0333852767944336,2.3804826736450195
1713358383979571500,3.996571533203125,-0.4954080581665039,-1.2202568054199219,2.264988422393799
1713358383989520100,4.00652001953125,-1.0207793712615967,-1.3472929000854492,1.6985222101211548
1713358383999499300,4.016499267578125,-1.6658867597579956,-1.2761335372924805,0.8700978755950928
1713358384009478700,4.026478759765625,-2.04612135887146,-1.0381927490234375,0.39996105432510376
1713358384019427300,4.03642724609375,-2.045705795288086,-0.7818145751953125,0.07268586754798889
1713358384029406500,4.046406494140625,-1.7100825309753418,-0.5858182907104492,-0.17566657066345215
1713358384039355400,4.05635546875,-1.2553763389587402,-0.3808774948120117,-0.24851787090301514
1713358384049334500,4.06633447265625,-0.8974551558494568,-0.17652606964111328,-0.05200660228729248
1713358384059313700,4.076313720703125,-0.7561680674552917,-0.03242969512939453,0.18548056483268738
1713358384069293000,4.08629296875,-0.5190847516059875,0.10181522369384766,0.5856376886367798
1713358384079241700,4.09624169921875,-0.21857303380966187,-0.010250091552734375,0.6792590618133545
1713358384089221000,4.10622119140625,-0.5315080881118774,-0.10776233673095703,0.3383238613605499
1713358384099200300,4.1162001953125,-0.6168147325515747,-0.27665138244628906,0.6868780851364136
1713358384109179400,4.126179443359375,-0.45991554856300354,-0.3543386459350586,0.8451203107833862
1713358384119128300,4.13612841796875,-0.30419567227363586,-0.3148336410522461,0.6978908777236938
1713358384129107500,4.146107421875,-0.3873661756515503,-0.25870323181152344,0.7569620609283447
1713358384139086800,4.1560869140625,-0.5021182894706726,-0.21466541290283203,0.7124203443527222
1713358384149035500,4.166035400390625,-0.6207120418548584,-0.11584949493408203,0.6785380244255066
1713358384159014700,4.1760146484375,-0.7256941795349121,-0.041184425354003906,0.6399409770965576
1713358384168994000,4.185994140625,-0.8661367297172546,-0.04788684844970703,0.6778272390365601
1713358384178942700,4.195942626953125,-0.8386654853820801,-0.0879659652709961,0.6943259239196777
1713358384188921900,4.205921875,-0.8228686451911926,-0.08971405029296875,0.6896271109580994
1713358384198901200,4.2159013671875,-0.7754393815994263,-0.026955604553222656,0.8047287464141846
1713358384208850000,4.225849853515625,-0.6443547606468201,0.040442466735839844,0.8478749990463257
1713358384218829000,4.2358291015625,-0.5479350090026855,0.15538597106933594,0.8882264494895935
1713358384228808400,4.245808349609375,-0.4370134770870209,0.2747650146484375,0.8254666328430176
1713358384238757000,4.255757080078125,-0.34122297167778015,0.36507606506347656,0.7788898944854736
1713358384248736500,4.265736572265625,-0.14943799376487732,0.5099668502807617,0.5491158962249756
1713358384258715600,4.275715576171875,0.030947936698794365,0.6710739135742188,0.5175713896751404
1713358384268664300,4.285664306640625,-0.00144936703145504,0.7074356079101562,0.6460593342781067
1713358384278643700,4.295643798828125,0.13388735055923462,0.8367271423339844,0.7423391342163086
1713358384288622800,4.305622802734375,0.3116380572319031,0.8891696929931641,0.961588978767395
1713358384298571500,4.315571533203125,0.2852613925933838,0.8363256454467773,1.3088839054107666
1713358384308551000,4.325551025390625,0.41622936725616455,0.7382326126098633,1.5339529514312744
1713358384318530000,4.335530029296875,0.4488676190376282,0.6356658935546875,1.5861245393753052
1713358384328478700,4.345478759765625,0.2867063283920288,0.6313838958740234,1.7642507553100586
1713358384338458000,4.3554580078125,0.23626479506492615,0.6941614151000977,1.9979948997497559
1713358384348437200,4.365437255859375,0.1390494555234909,0.6805524826049805,2.0280556678771973
1713358384358386000,4.375385986328125,-0.11059747636318207,0.5285940170288086,2.1343164443969727
1713358384368365300,4.385365234375,-0.41093313694000244,0.2719917297363281,2.2000019550323486
1713358384378344400,4.395344482421875,-0.6855912208557129,-0.019800186157226562,2.1810426712036133
1713358384388323800,4.40532373046875,-0.6001302599906921,-0.28698158264160156,2.1234290599823
1713358384398272500,4.4152724609375,-0.2767326235771179,-0.5511512756347656,1.9044932126998901
1713358384408251600,4.425251708984375,-0.16489391028881073,-0.7359151840209961,1.7885785102844238
1713358384418231000,4.43523095703125,-0.499671995639801,-0.6934194564819336,1.7752517461776733
1713358384428179700,4.4451796875,-0.7372657060623169,-0.46480369567871094,1.9887638092041016
1713358384438159000,4.4551591796875,-0.22263413667678833,-0.8743600845336914,2.078725814819336
1713358384448138200,4.46513818359375,0.8534293174743652,-2.4864158630371094,1.6300182342529297
1713358384458087000,4.4750869140625,0.9293545484542847,-4.450225830078125,0.10947797447443008
1713358384468066300,4.48506640625,-0.5638377070426941,-4.6563215255737305,-2.107114315032959
1713358384478045400,4.49504541015625,-2.0245702266693115,-2.316226005554199,-3.2277350425720215
1713358384487994000,4.504994140625,-2.015241861343384,0.14690303802490234,-2.210310935974121
1713358384497973500,4.514973388671875,-1.1816967725753784,1.4406890869140625,0.6190022826194763
1713358384507952600,4.52495263671875,-0.23119094967842102,1.520167350769043,2.31067156791687
1713358384517901300,4.5349013671875,0.5620402693748474,0.8828144073486328,2.7040367126464844
1713358384527880700,4.544880615234375,0.7115912437438965,-0.025300979614257812,2.464218854904175
1713358384537859800,4.55485986328125,0.4659709632396698,-0.725764274597168,1.5436205863952637
1713358384547808800,4.564808837890625,0.09382288157939911,-0.7747611999511719,0.48996686935424805
1713358384557788000,4.574787841796875,-0.666452169418335,-0.3387622833251953,-0.8446112871170044
1713358384567767000,4.58476708984375,-1.1654493808746338,0.23461532592773438,-2.316847801208496
1713358384577716000,4.594716064453125,-0.8195630311965942,0.7753896713256836,-3.26216983795166
1713358384587695000,4.604695068359375,-0.29166179895401,1.0735645294189453,-4.127035140991211
1713358384597674500,4.614674560546875,0.19460517168045044,1.1082763671875,-4.143333435058594
1713358384607623200,4.624623046875,0.43227994441986084,0.9853010177612305,-3.7363498210906982
1713358384617602300,4.634602294921875,0.5024325847625732,0.7790746688842773,-3.0293664932250977
1713358384627581700,4.644581787109375,0.6691404581069946,0.6044673919677734,-2.0618321895599365
1713358384637560800,4.654560791015625,0.5938122868537903,0.4590187072753906,-1.0822978019714355
1713358384647509500,4.664509521484375,0.4178667664527893,0.3497047424316406,-0.6219629645347595
1713358384657489000,4.674489013671875,0.22507455945014954,0.30740833282470703,-0.47147896885871887
1713358384667468000,4.684468017578125,0.18756788969039917,0.4131431579589844,-0.6548923254013062
1713358384677447400,4.694447509765625,0.2592107653617859,0.6378927230834961,-1.0412594079971313
1713358384687396000,4.70439599609375,0.4925610423088074,0.6996555328369141,-1.3382773399353027
1713358384697375200,4.714375244140625,0.6663078665733337,0.5153322219848633,-1.5174126625061035
1713358384707354600,4.724354736328125,0.6882396936416626,0.24805259704589844,-1.7589939832687378
1713358384717303300,4.73430322265625,0.5078203082084656,0.20599365234375,-1.706641674041748
1713358384727282400,4.744282470703125,0.24583160877227783,0.1161813735961914,-1.5588852167129517
1713358384737261800,4.75426171875,0.08224695920944214,-0.08121395111083984,-1.466318964958191
1713358384747210500,4.76421044921875,0.2626369595527649,-0.3763580322265625,-1.4345874786376953
1713358384757189600,4.774189697265625,0.5569353699684143,-0.6829395294189453,-1.6044965982437134
1713358384767138600,4.784138671875,0.6999677419662476,-0.7978038787841797,-1.8364900350570679
1713358384777117700,4.79411767578125,1.011673927307129,-0.5062675476074219,-1.8400053977966309
1713358384787097000,4.80409716796875,1.1484203338623047,-0.15550899505615234,-1.7525843381881714
1713358384797045800,4.814045654296875,1.2758640050888062,0.12792015075683594,-1.7091641426086426
1713358384807025000,4.82402490234375,1.1032758951187134,0.39905261993408203,-1.5863970518112183
1713358384817004300,4.83400439453125,0.8530400991439819,0.5526809692382812,-1.3214248418807983
1713358384826953000,4.843952880859375,0.5741199851036072,0.5746526718139648,-0.9359961748123169
1713358384836932000,4.85393212890625,0.28172218799591064,0.3840446472167969,-0.49635833501815796
1713358384846911500,4.863911376953125,-0.02599036693572998,0.09836769104003906,-0.22151219844818115
1713358384856860200,4.873860107421875,-0.31415438652038574,-0.11981582641601562,-0.040536463260650635
1713358384866839300,4.88383935546875,-0.5405566096305847,-0.1680622100830078,0.15826186537742615
1713358384876818700,4.893818603515625,-0.5730201005935669,-0.06833267211914062,0.3189997971057892
1713358384886767400,4.903767333984375,-0.4360000491142273,0.07397079467773438,0.35548096895217896
1713358384896746800,4.913746826171875,-0.35924726724624634,0.17512893676757812,0.37132564187049866
1713358384906726000,4.923725830078125,-0.4018929600715637,0.2495288848876953,0.3577289581298828
1713358384916674600,4.933674560546875,-0.433008074760437,0.31861400604248047,0.24760878086090088
1713358384926654000,4.943654052734375,-0.4270213842391968,0.30359458923339844,0.008457154035568237
1713358384936633000,4.953633056640625,-0.32108306884765625,0.2693319320678711,-0.2717651128768921
1713358384946612500,4.963612548828125,-0.29277122020721436,0.1490488052368164,-0.5579427480697632
1713358384956591600,4.973591552734375,-0.2355005145072937,0.026630401611328125,-0.9327361583709717
1713358384966540300,4.983540283203125,-0.02763468027114868,0.004788398742675781,-1.2505500316619873
1713358384976519700,4.993519775390625,0.09659945964813232,0.09991168975830078,-1.429345726966858
1713358384986468400,5.00346826171875,0.2981579303741455,0.2950611114501953,-1.4250733852386475
1713358384996447500,5.013447509765625,0.47020530700683594,0.43724918365478516,-1.3189659118652344
1713358385006427000,5.023427001953125,0.5802246928215027,0.3977823257446289,-1.1705899238586426
1713358385016375600,5.03337548828125,0.5941808819770813,0.2918233871459961,-1.0019065141677856
1713358385026354700,5.043354736328125,0.4726386070251465,0.2149953842163086,-0.9206090569496155
1713358385036334000,5.053333984375,0.35456615686416626,0.20525836944580078,-0.8604498505592346
1713358385046282800,5.06328271484375,0.29376649856567383,0.19071388244628906,-0.7885056734085083
1713358385056262100,5.07326220703125,0.29320764541625977,0.14265918731689453,-0.6521468162536621
1713358385066241300,5.0832412109375,0.32458555698394775,-0.012872695922851562,-0.41150861978530884
1713358385076190000,5.09318994140625,0.3569403886795044,-0.07262420654296875,-0.21735215187072754
1713358385086169300,5.10316943359375,0.43786317110061646,-0.09171199798583984,-0.012378811836242676
1713358385096148500,5.1131484375,0.5022863745689392,-0.11562538146972656,0.07012438774108887
1713358385106097200,5.12309716796875,0.5427717566490173,-0.1324481964111328,0.0932115912437439
1713358385116076500,5.13307666015625,0.5749543905258179,-0.07295989990234375,0.05138957500457764
1713358385126055700,5.1430556640625,0.5075547695159912,0.07941532135009766,0.09488809108734131
1713358385136004400,5.15300439453125,0.3958020806312561,0.2170429229736328,0.12477290630340576
1713358385145983700,5.162983642578125,0.3209340572357178,0.33759403228759766,0.031219482421875
1713358385155963000,5.172962890625,0.2988734245300293,0.4291801452636719,-0.08027195930480957
1713358385165911600,5.18291162109375,0.42221254110336304,0.554051399230957,-0.24060595035552979
1713358385175891000,5.192890869140625,0.5124815702438354,0.532989501953125,-0.36245203018188477
1713358385185870000,5.2028701171875,0.5716249346733093,0.4643573760986328,-0.46983087062835693
1713358385195819000,5.212819091796875,0.5856692790985107,0.5035457611083984,-0.3845168352127075
1713358385205798100,5.222798095703125,0.47953587770462036,0.5237398147583008,-0.2225501537322998
1713358385215777300,5.23277734375,0.38772380352020264,0.5107707977294922,-0.11164546012878418
1713358385225756700,5.242756591796875,0.3799999952316284,0.45743370056152344,-0.02962195873260498
1713358385235735800,5.25273583984375,0.4767036437988281,0.25867462158203125,-0.04681551456451416
1713358385245684700,5.262684814453125,0.4588897228240967,0.15367603302001953,0.178145170211792
1713358385255663900,5.272663818359375,0.37795013189315796,0.02507781982421875,0.41079676151275635
1713358385265643000,5.28264306640625,0.3259044885635376,-0.0865945816040039,0.5154403448104858
1713358385275592000,5.292592041015625,0.3006001114845276,-0.10982990264892578,0.6815216541290283
1713358385285571000,5.302571044921875,0.311708927154541,-0.07590007781982422,0.8467211723327637
1713358385295550500,5.312550537109375,0.3993343710899353,-0.03258037567138672,1.0009795427322388
1713358385305499100,5.3224990234375,0.4758421778678894,-0.02758502960205078,1.0324105024337769
1713358385315478300,5.332478271484375,0.6462163329124451,0.022856712341308594,0.9789704084396362
1713358385325457700,5.342457763671875,0.641882061958313,-0.0008678436279296875,0.9457699060440063
1713358385335406300,5.35240625,0.6890145540237427,-0.057952880859375,0.80663001537323
1713358385345385500,5.362385498046875,0.6213290095329285,-0.16515827178955078,0.643356442451477
1713358385355364900,5.37236474609375,0.6739199757575989,-0.3009929656982422,0.49219703674316406
1713358385365313500,5.3823134765625,0.7698549628257751,-0.37713050842285156,0.27035951614379883
1713358385375292700,5.392292724609375,0.8729307651519775,-0.4176044464111328,0.3076738119125366
1713358385385241600,5.40224169921875,0.8756416440010071,-0.28629398345947266,0.4188351631164551
1713358385395220700,5.412220703125,0.9219495058059692,-0.14593505859375,0.471649169921875
1713358385405200100,5.4222001953125,0.8406019806861877,-0.08018875122070312,0.46813929080963135
1713358385415148800,5.432148681640625,0.9079592227935791,0.05203056335449219,0.4243626594543457
1713358385425128000,5.4421279296875,0.9709736108779907,0.1287250518798828,0.31389451026916504
1713358385435107300,5.452107421875,1.039443016052246,0.06872272491455078,0.22303080558776855
1713358385445056000,5.462055908203125,1.046743392944336,-0.08229351043701172,0.19682717323303223
1713358385455035100,5.47203515625,1.0005524158477783,-0.43413257598876953,0.2949991226196289
1713358385465014500,5.4820146484375,1.136711835861206,-0.8333854675292969,0.4070812463760376
1713358385474963200,5.491963134765625,1.1977754831314087,-1.0290565490722656,0.5755959749221802
1713358385484942300,5.5019423828125,1.2952253818511963,-0.9356279373168945,0.657136082649231
1713358385494921700,5.511921630859375,1.4903184175491333,-0.7783269882202148,0.6236196756362915
1713358385504900900,5.52190087890625,1.5672245025634766,-0.6436176300048828,0.5539610385894775
1713358385514849800,5.531849853515625,1.8195774555206299,-0.45030879974365234,0.5516564846038818
1713358385524829000,5.541828857421875,2.1225624084472656,-0.3251476287841797,0.6286739110946655
1713358385534808000,5.55180810546875,2.3001365661621094,-0.30121326446533203,0.8472917079925537
1713358385544787500,5.561787353515625,2.521660327911377,-0.3494853973388672,0.8894284963607788
1713358385554736000,5.571736083984375,2.4766242504119873,-0.39536571502685547,1.0714054107666016
1713358385564715300,5.58171533203125,2.6065876483917236,-0.4194765090942383,0.9315497875213623
1713358385574694700,5.591694580078125,2.469581127166748,-0.5144205093383789,0.8236352205276489
1713358385584643300,5.601643310546875,2.100943088531494,-0.6796932220458984,0.6806190013885498
1713358385594622700,5.611622802734375,1.4172312021255493,-0.9558820724487305,0.6995779275894165
1713358385604601900,5.621601806640625,1.0816596746444702,-1.0962486267089844,0.7486414909362793
1713358385614550500,5.631550537109375,0.37538063526153564,-1.1394739151000977,0.8468421697616577
1713358385624530000,5.641530029296875,-0.11243629455566406,-1.1627492904663086,0.678354024887085
1713358385634509000,5.651509033203125,-1.126404881477356,-1.6761140823364258,0.48734843730926514
1713358385644457700,5.661457763671875,-0.8753436803817749,-1.88275146484375,-0.06389439105987549
1713358385654437000,5.67143701171875,-0.646459698677063,-1.9213619232177734,-0.6458117961883545
1713358385664385800,5.6813857421875,-0.20481348037719727,-1.9775161743164062,-0.9160109758377075
1713358385674365000,5.691364990234375,0.31292474269866943,-2.1505537033081055,-1.0912305116653442
1713358385684344300,5.70134423828125,0.6447381973266602,-2.0867481231689453,-1.2943205833435059
1713358385694293000,5.71129296875,0.8528515100479126,-1.7511749267578125,-1.2550824880599976
1713358385704272400,5.7212724609375,0.8638911247253418,-1.1181211471557617,-0.8598500490188599
1713358385714251500,5.73125146484375,0.5737158060073853,-0.39376068115234375,-0.17630445957183838
1713358385724200200,5.7412001953125,0.16392278671264648,0.17803192138671875,0.4989835023880005
1713358385734179600,5.7511796875,-0.35179805755615234,0.6480703353881836,1.0902228355407715
1713358385744158700,5.76115869140625,-0.8690398931503296,0.9970970153808594,1.2861846685409546
1713358385754107400,5.771107421875,-1.2194066047668457,1.2825145721435547,1.217886209487915
1713358385764086800,5.781086669921875,-1.5340733528137207,1.5186653137207031,0.8364467620849609
1713358385774066000,5.79106591796875,-1.681723713874817,1.5355701446533203,0.2518649101257324
1713358385784045300,5.80104541015625,-1.588292121887207,1.4714641571044922,-0.594092845916748
1713358385793994000,5.810993896484375,-1.4628417491912842,1.4906949996948242,-1.1015156507492065
1713358385803973000,5.82097314453125,-1.3366475105285645,1.4302396774291992,-1.5396398305892944
1713358385813952500,5.830952392578125,-1.2112236022949219,1.2662649154663086,-1.619212031364441
1713358385823931600,5.840931640625,-0.9465421438217163,1.1198768615722656,-2.761228322982788
1713358385833880300,5.85088037109375,-0.7585045099258423,0.9222469329833984,-2.469712257385254
1713358385843859700,5.860859619140625,-0.7623810172080994,0.4666013717651367,-2.0869641304016113
1713358385853838800,5.8708388671875,-0.8989415764808655,-0.06995201110839844,-2.1375603675842285
1713358385863787800,5.880787841796875,-1.142193078994751,-0.27208423614501953,-2.041193962097168
1713358385873767000,5.890766845703125,-1.373117208480835,-0.1621875762939453,-1.6826930046081543
1713358385883746000,5.90074609375,-1.8847349882125854,-0.049231529235839844,-1.0924726724624634
1713358385893695000,5.910695068359375,-2.447080612182617,-0.021167755126953125,-0.22085118293762207
1713358385903674000,5.920674072265625,-2.7731311321258545,-0.2230815887451172,0.09242963790893555
1713358385913653500,5.930653564453125,-2.759442090988159,-0.5350732803344727,0.07221794128417969
1713358385923602200,5.940602294921875,-2.986328363418579,-0.7080764770507812,0.11196780204772949
1713358385933581300,5.950581298828125,-2.6037375926971436,-0.7614240646362305,-0.10876059532165527
1713358385943560700,5.960560791015625,-1.666198968887329,-0.4156789779663086,0.13064581155776978
1713358385953509400,5.97050927734375,-0.8030523061752319,-0.1756420135498047,0.4521523714065552
1713358385963488500,5.980488525390625,-0.4411962926387787,-0.12243270874023438,0.6480907201766968
1713358385973468000,5.990468017578125,-0.03314846754074097,0.17158985137939453,0.6989015340805054
1713358385983416600,6.00041650390625,0.3147154450416565,0.5049304962158203,0.8259372711181641
1713358385993395700,6.010395751953125,-0.07143357396125793,0.5454025268554688,0.7532529830932617
1713358386003344600,6.0203447265625,-0.19068333506584167,0.7999391555786133,0.9338789582252502
1713358386013323800,6.03032373046875,-0.22226932644844055,1.1246747970581055,1.0888731479644775
1713358386023303000,6.040302978515625,-0.22643256187438965,1.4165878295898438,0.8496783971786499
1713358386033251800,6.050251953125,-0.3330441117286682,1.549112319946289,0.4274347126483917
1713358386043231000,6.06023095703125,-0.5436997413635254,1.6183891296386719,0.017410099506378174
1713358386053210400,6.07021044921875,-0.5662038326263428,1.615218162536621,-0.42829740047454834
1713358386063159000,6.080158935546875,-0.3426360487937927,1.6260261535644531,-0.8003504872322083
1713358386073138200,6.09013818359375,-0.20083165168762207,1.5983829498291016,-1.103090524673462
1713358386083117600,6.10011767578125,-0.22481924295425415,1.561356544494629,-1.22500479221344
1713358386093096700,6.1100966796875,-0.13349419832229614,1.64178466796875,-1.1951583623886108
1713358386103076000,6.120076171875,0.002862989902496338,1.7343864440917969,-0.9974932074546814
1713358386113024800,6.130024658203125,0.2610474228858948,1.6933202743530273,-0.6921931505203247
1713358386123004000,6.14000390625,0.40062177181243896,1.561854362487793,-0.4432065784931183
1713358386132983300,6.1499833984375,0.2269783616065979,1.4334335327148438,-0.3522912859916687
1713358386142932000,6.159931884765625,0.2207944393157959,1.4751911163330078,-0.14274930953979492
1713358386152911000,6.1699111328125,0.28946352005004883,1.490708351135254,0.17241065204143524
1713358386162890500,6.179890380859375,0.36036837100982666,1.5563783645629883,0.6012253761291504
1713358386172839200,6.189839111328125,0.3668864965438843,1.6242647171020508,1.1011621952056885
1713358386182818300,6.199818359375,0.4343227744102478,1.6371212005615234,1.6795494556427002
1713358386192797700,6.209797607421875,0.567110538482666,1.4876232147216797,2.3556792736053467
1713358386202746400,6.219746337890625,0.8346326947212219,1.2310199737548828,3.182908058166504
1713358386212725800,6.229725830078125,1.0986018180847168,0.9032449722290039,3.8871524333953857
1713358386222705000,6.239704833984375,1.244092345237732,0.5878629684448242,4.403031349182129
1713358386232653600,6.249653564453125,1.0090312957763672,0.134368896484375,4.690818786621094
1713358386242633000,6.259633056640625,0.5059170722961426,-0.44227027893066406,4.635699272155762
1713358386252581600,6.26958154296875,0.032200515270233154,-0.9886045455932617,4.271892070770264
1713358386262560800,6.279560791015625,-0.5388196110725403,-1.5714597702026367,3.499363660812378
1713358386272540200,6.2895400390625,-1.0347661972045898,-2.133411407470703,2.690840244293213
1713358386282488800,6.29948876953125,-1.461829662322998,-2.6338329315185547,1.8197460174560547
1713358386292468000,6.309468017578125,-1.7300376892089844,-3.280241012573242,0.24002590775489807
1713358386302447400,6.319447265625,-1.4764199256896973,-3.826174736022949,-0.652237594127655
1713358386312396000,6.32939599609375,-0.9801090359687805,-3.820744514465332,-0.9038584232330322
1713358386322375400,6.33937548828125,0.13317984342575073,-3.144129753112793,-0.7629486918449402
1713358386332354600,6.3493544921875,2.080019950866699,-2.60135555267334,1.0483514070510864
1713358386342303200,6.35930322265625,3.511594533920288,-2.6655731201171875,2.7337276935577393
1713358386352282600,6.36928271484375,2.0764880180358887,-3.565974235534668,3.184016227722168
1713358386362261800,6.37926171875,-0.09136474132537842,-3.994955062866211,2.498181104660034
1713358386372241200,6.3892412109375,-1.1111435890197754,-3.373147964477539,1.0646674633026123
1713358386382220300,6.39922021484375,-1.1309152841567993,-2.7265796661376953,0.49296408891677856
1713358386392169000,6.4091689453125,-0.8470190763473511,-3.133843421936035,-0.4849681258201599
1713358386402148400,6.4191484375,-0.7912720441818237,-4.5377197265625,-3.579422950744629
1713358386412127500,6.42912744140625,-2.998500108718872,-5.7235517501831055,-6.366275787353516
1713358386422076200,6.439076171875,-5.401618957519531,-4.445428848266602,-5.875563144683838
1713358386432055600,6.4490556640625,-4.614168643951416,-1.5388898849487305,-2.6496427059173584
1713358386442034700,6.45903466796875,-2.7881107330322266,1.1229076385498047,0.0987001359462738
1713358386451983400,6.4689833984375,-1.5444408655166626,2.668524742126465,1.3917275667190552
1713358386461962800,6.478962646484375,-1.176891565322876,3.3447799682617188,1.0424096584320068
1713358386471942000,6.48894189453125,-1.544281244277954,3.9355831146240234,-0.10109281539916992
1713358386481890600,6.498890625,-1.8540728092193604,4.173982620239258,-0.8529479503631592
1713358386491870000,6.508869873046875,-1.2439758777618408,3.5399675369262695,-1.0637725591659546
1713358386501849000,6.51884912109375,-0.8322411179542542,2.14101505279541,-1.4474971294403076
1713358386511798000,6.528798095703125,-0.36474692821502686,0.9465770721435547,-2.2400736808776855
1713358386521777200,6.538777099609375,-0.10189205408096313,0.10186481475830078,-3.428030252456665
1713358386531756300,6.54875634765625,0.12468975782394409,-0.4727821350097656,-4.22198486328125
1713358386541705200,6.558705322265625,-0.07119530439376831,-0.5535478591918945,-4.7889404296875
1713358386551684400,6.568684326171875,-0.4949228763580322,-0.22539710998535156,-4.838587760925293
1713358386561663700,6.578663818359375,-0.9497831463813782,0.33571624755859375,-4.187717914581299
1713358386571612400,6.5886123046875,-0.6363864541053772,0.8805389404296875,-3.6794331073760986
1713358386581591600,6.598591552734375,-0.025223493576049805,1.1083440780639648,-3.5108659267425537
1713358386591540200,6.608540283203125,0.7272700071334839,1.0563488006591797,-3.380488157272339
1713358386601519600,6.61851953125,1.1825716495513916,1.0696210861206055,-3.062281847000122
1713358386611498800,6.628498779296875,1.2378239631652832,1.5564088821411133,-2.4969968795776367
1713358386621447700,6.63844775390625,1.2157678604125977,1.9278249740600586,-1.8368474245071411
1713358386631426800,6.6484267578125,0.772943913936615,1.727818489074707,-1.104249358177185
1713358386641406000,6.658406005859375,0.14166128635406494,1.08642578125,-0.8880788087844849
1713358386651385300,6.66838525390625,-0.42075836658477783,0.22173023223876953,-0.8132821321487427
1713358386661334000,6.678333984375,-0.7624123096466064,-0.5005731582641602,-0.656364381313324
1713358386671313400,6.6883134765625,-0.8842941522598267,-0.7944831848144531,-0.17218759655952454
1713358386681292500,6.69829248046875,-0.6648887991905212,-0.7113122940063477,0.4239141047000885
1713358386691267800,6.708267822265625,-0.30869966745376587,-0.3332347869873047,0.7111320495605469
1713358386701216500,6.718216552734375,-0.1085958480834961,0.21480274200439453,0.6274880766868591
1713358386711196000,6.72819580078125,0.03702247142791748,0.6743917465209961,0.6006410121917725
1713358386721175000,6.738175048828125,0.22541743516921997,0.9288454055786133,0.3575405478477478
1713358386731123700,6.748123779296875,0.4684901237487793,1.0028667449951172,0.12865090370178223
1713358386741103000,6.75810302734375,0.7323107123374939,0.9594259262084961,0.08625549077987671
1713358386751082200,6.768082275390625,1.0078864097595215,0.8685598373413086,0.11494916677474976
1713358386761031000,6.778031005859375,1.16162109375,0.6613359451293945,0.1752932071685791
1713358386771010300,6.78801025390625,1.1624994277954102,0.4716911315917969,0.326526939868927
1713358386780989400,6.797989501953125,0.9004876613616943,0.3901643753051758,0.5139480233192444
1713358386790938400,6.8079384765625,0.45073044300079346,0.39234447479248047,0.7419717311859131
1713358386800917500,6.81791748046875,-0.00012624263763427734,0.4133119583129883,1.0318435430526733
1713358386810896600,6.827896728515625,-0.3725006580352783,0.5701227188110352,1.4439592361450195
1713358386820845600,6.837845458984375,-0.5670878887176514,0.637934684753418,1.6806997060775757
1713358386830824700,6.84782470703125,-0.5916861295700073,0.5618314743041992,1.9787994623184204
1713358386840804000,6.85780419921875,-0.5249993801116943,0.40424156188964844,2.2708020210266113
1713358386850752800,6.867752685546875,-0.3552846908569336,0.2919492721557617,2.403674602508545
1713358386860732000,6.87773193359375,-0.2492375373840332,0.2151479721069336,2.537973403930664
1713358386870680600,6.8876806640625,-0.0920799970626831,0.11643409729003906,2.5994887351989746
1713358386880660000,6.897659912109375,-0.04115736484527588,0.12468814849853516,2.6599740982055664
1713358386890639000,6.90763916015625,0.04742443561553955,0.23005294799804688,2.599390983581543
1713358386900588000,6.917588134765625,-0.004536271095275879,0.13102340698242188,2.373444080352783
1713358386910567200,6.927567138671875,0.03494906425476074,0.01622772216796875,2.0589935779571533
1713358386920546300,6.93754638671875,0.2834974527359009,-0.22923946380615234,1.701124906539917
1713358386930525700,6.947525634765625,0.9984378814697266,-0.5093536376953125,1.3928495645523071
1713358386940474400,6.957474365234375,1.68522047996521,-0.7828655242919922,1.104883074760437
1713358386950453800,6.967453857421875,2.167548656463623,-0.9417057037353516,0.8667559623718262
1713358386960433000,6.977432861328125,2.78267765045166,-0.9277973175048828,0.7231932878494263
1713358386970412000,6.987412109375,2.815390110015869,-0.7072029113769531,0.769134521484375
1713358386980361000,6.99736083984375,2.6451432704925537,-0.34888458251953125,1.0859183073043823
1713358386990340000,7.007340087890625,2.2491960525512695,0.039577484130859375,1.3510886430740356
1713358387000319500,7.017319580078125,1.95692777633667,0.10419559478759766,1.5756083726882935
1713358387010268200,7.02726806640625,1.7504398822784424,-0.030900955200195312,1.6791181564331055
1713358387020247300,7.037247314453125,1.4848864078521729,-0.3303213119506836,1.647001028060913
1713358387030226700,7.047226806640625,1.362243890762329,-0.6746892929077148,1.3068593740463257
1713358387040175400,7.05717529296875,1.8873083591461182,-0.8386011123657227,1.061838150024414
1713358387050154500,7.067154541015625,2.7523977756500244,-0.8449335098266602,0.8490220308303833
1713358387060134000,7.0771337890625,3.2963757514953613,-0.5249824523925781,0.9385385513305664
1713358387070082600,7.08708251953125,3.254382848739624,-0.2800559997558594,1.2495266199111938
1713358387080061700,7.097061767578125,2.3781394958496094,-0.46242713928222656,1.6898701190948486
1713358387090041000,7.107041015625,1.1643531322479248,-0.87664794921875,2.400731086730957
1713358387099989800,7.11698974609375,-0.2512037754058838,-1.171285629272461,3.0421953201293945
1713358387109969000,7.126968994140625,-1.2237794399261475,-1.6448392868041992,2.9888134002685547
1713358387119948300,7.1369482421875,-1.1010069847106934,-2.0448074340820312,2.29510235786438
1713358387129897000,7.14689697265625,-0.4076673984527588,-1.8450632095336914,1.2653441429138184
1713358387139876400,7.15687646484375,0.1423945426940918,-1.027785301208496,0.03661787509918213
1713358387149825000,7.166824951171875,-0.12092280387878418,-0.3431119918823242,-1.2662452459335327
1713358387159804200,7.17680419921875,-0.5238487720489502,0.07784175872802734,-2.505016803741455
1713358387169783600,7.186783447265625,-0.8695580959320068,0.4197874069213867,-3.70822811126709
1713358387179732200,7.196732177734375,-1.190185546875,0.6652002334594727,-4.69270658493042
1713358387189711400,7.20671142578125,-1.7596073150634766,0.7524013519287109,-5.297088146209717
1713358387199690800,7.216690673828125,-2.3188042640686035,0.4612541198730469,-5.541222095489502
1713358387209670000,7.226669921875,-3.019303560256958,-0.34604549407958984,-5.442039489746094
1713358387219618600,7.23661865234375,-3.3532156944274902,-1.512110710144043,-5.508613586425781
1713358387229598000,7.246597900390625,-3.045635223388672,-2.511920928955078,-4.48520040512085
1713358387239577000,7.2565771484375,-2.2812931537628174,-3.417896270751953,-2.70762300491333
1713358387249556500,7.266556396484375,-1.7602869272232056,-3.7079381942749023,-0.5946668386459351
1713358387259505200,7.276505126953125,-2.252262592315674,-3.365607261657715,1.5985398292541504
1713358387269484300,7.286484375,-4.035297393798828,-2.7887954711914062,2.547276496887207
1713358387279463700,7.296463623046875,-5.839600086212158,-2.3481216430664062,2.461416482925415
1713358387289412400,7.306412353515625,-6.780949115753174,-1.7739543914794922,2.5858917236328125
1713358387299391700,7.316391845703125,-6.95905065536499,-0.8565731048583984,2.6687943935394287
1713358387309371000,7.326370849609375,-6.279713153839111,-0.20476341247558594,2.3946473598480225
1713358387319319600,7.336319580078125,-4.448698997497559,0.03477954864501953,1.4870591163635254
1713358387329299000,7.346298828125,-1.9222493171691895,0.28883838653564453,1.0502349138259888
1713358387339278000,7.356278076171875,0.1621084213256836,0.6538887023925781,0.3511241674423218
1713358387349226800,7.366226806640625,1.3444513082504272,1.0022859573364258,-0.24544674158096313
1713358387359206100,7.3762060546875,1.5905050039291382,1.1433286666870117,-0.04785257577896118
1713358387369185300,7.386185302734375,0.9697849154472351,1.5192804336547852,-0.3064306378364563
1713358387379134000,7.396134033203125,0.6151595115661621,2.251461982727051,0.02279531955718994
1713358387389113300,7.40611328125,0.32131341099739075,2.534149169921875,-0.1745091676712036
1713358387399092500,7.416092529296875,0.09323179721832275,2.5904722213745117,-0.8039286732673645
1713358387409041400,7.42604150390625,-0.034852445125579834,2.540329933166504,-1.3581273555755615
1713358387419020500,7.4360205078125,0.08614516258239746,2.6417160034179688,-1.4908043146133423
1713358387428999700,7.445999755859375,0.224787175655365,2.5812244415283203,-1.6890629529953003
1713358387438948600,7.455948486328125,0.20981591939926147,2.392841339111328,-1.7601680755615234
1713358387448927700,7.465927734375,-0.04819124937057495,2.1609506607055664,-1.606733798980713
1713358387458876400,7.47587646484375,-0.4768015146255493,1.969991683959961,-1.4420199394226074
1713358387468855800,7.485855712890625,-0.9443462491035461,1.830052375793457,-1.2364215850830078
1713358387478835000,7.4958349609375,-1.234184741973877,1.7511072158813477,-1.0808753967285156
1713358387488814300,7.505814453125,-1.5032962560653687,1.637812614440918,-0.7123401761054993
1713358387498763000,7.515762939453125,-1.134199857711792,1.817403793334961,-0.5309291481971741
1713358387508742100,7.5257421875,0.003663778305053711,2.0715103149414062,-0.5245685577392578
1713358387518721500,7.535721435546875,0.37769991159439087,2.131779670715332,-0.5850731134414673
1713358387528700700,7.54570068359375,0.43636173009872437,2.1894588470458984,-0.43595433235168457
1713358387538649300,7.5556494140625,0.6075959801673889,2.235154151916504,-0.028153404593467712
1713358387548628700,7.565628662109375,0.768896222114563,2.14739990234375,0.4815041720867157
1713358387558608000,7.57560791015625,1.0316565036773682,2.0318002700805664,1.1300495862960815
1713358387568556500,7.585556640625,1.3039727210998535,1.8954086303710938,1.9959849119186401
1713358387578536000,7.595535888671875,1.60225510597229,1.6255989074707031,3.0463154315948486
1713358387588515000,7.60551513671875,1.8825863599777222,1.1840448379516602,4.1935224533081055
1713358387598464000,7.615464111328125,2.1063804626464844,0.5780754089355469,5.427562713623047
1713358387608443100,7.625443115234375,2.0588812828063965,-0.09405803680419922,6.36555290222168
1713358387618422300,7.63542236328125,1.6651692390441895,-0.7844314575195312,6.516024112701416
1713358387628371200,7.64537109375,0.590514063835144,-1.793691635131836,5.872463703155518
1713358387638350300,7.655350341796875,-0.5913837552070618,-2.941650390625,4.455160140991211
1713358387648329700,7.665329833984375,-1.5039843320846558,-3.931492805480957,2.4701406955718994
1713358387658278400,7.6752783203125,-1.580713152885437,-4.395559310913086,0.4779912829399109
1713358387668257500,7.685257568359375,-1.5076351165771484,-4.578368186950684,-1.673354983329773
1713358387678237000,7.69523681640625,-1.5202885866165161,-4.231595993041992,-2.8879146575927734
1713358387688185600,7.705185546875,-0.24059593677520752,-3.103361129760742,-2.409363031387329
1713358387698164700,7.715164794921875,2.0365774631500244,-1.9606494903564453,-0.5129925608634949
1713358387708144000,7.72514404296875,4.039839267730713,-1.6690483093261719,2.1483654975891113
1713358387718092800,7.7350927734375,4.299322128295898,-2.8808908462524414,3.5555202960968018
1713358387728072000,7.745072021484375,1.7248806953430176,-5.424349784851074,3.581692695617676
1713358387738051300,7.75505126953125,1.114290475845337,-6.672005653381348,2.4087400436401367
1713358387748000000,7.765,0.809160053730011,-5.248493194580078,-0.36202800273895264
1713358387757979400,7.7749794921875,-1.502126693725586,-3.5561227798461914,-3.879361629486084
1713358387767928000,7.784927978515625,-3.1542959213256836,-2.8116607666015625,-7.930546283721924
1713358387777907200,7.7949072265625,-4.702114105224609,-1.5059804916381836,-7.824235439300537
1713358387787886600,7.804886474609375,-4.035914421081543,0.12465572357177734,-3.1125521659851074
1713358387797865700,7.81486572265625,-3.640490770339966,0.09615516662597656,-1.3621621131896973
1713358387807814400,7.824814453125,-2.478545904159546,-1.1006107330322266,-0.5065662860870361
1713358387817793800,7.834793701171875,-1.7605459690093994,-1.8103199005126953,0.9543152451515198
1713358387827789800,7.844789794921875,-2.489302396774292,-1.4943513870239258,1.490368366241455
1713358387837769000,7.85476904296875,-3.648071527481079,-0.4252948760986328,1.4780588150024414
1713358387847717600,7.864717529296875,-3.7089014053344727,0.6518516540527344,1.0272130966186523
1713358387857697000,7.874697021484375,-2.3634536266326904,1.4954938888549805,0.6036657094955444
1713358387867676200,7.88467626953125,-0.9800331592559814,2.1664609909057617,-0.4902254343032837
1713358387877624800,7.894624755859375,0.4579506516456604,2.2096729278564453,-2.199824571609497
1713358387887604200,7.904604248046875,1.3325090408325195,1.3598575592041016,-4.010692119598389
1713358387897583400,7.914583251953125,1.8049094676971436,0.5990428924560547,-5.966177940368652
1713358387907532000,7.924531982421875,1.9640414714813232,0.39585208892822266,-7.920685291290283
1713358387917511400,7.934511474609375,1.9441487789154053,1.06451416015625,-8.512141227722168
1713358387927490600,7.944490478515625,1.5357458591461182,1.9956865310668945,-7.847631931304932
1713358387937439500,7.954439453125,0.7681211233139038,2.700078010559082,-5.623636245727539
1713358387947418600,7.964418701171875,0.521989107131958,2.924128532409668,-3.2460713386535645
1713358387957397800,7.974397705078125,0.807647705078125,2.68343448638916,-1.8936445713043213
1713358387967346700,7.9843466796875,1.062458872795105,2.065582275390625,-1.2373955249786377
1713358387977325800,7.994325927734375,1.27700936794281,1.3800048828125,-0.7924520969390869
1713358387987305200,8.00430517578125,1.4764786958694458,0.8590507507324219,-0.8458797931671143
1713358387997254000,8.01425390625,1.489990234375,0.46926307678222656,-0.7369707822799683
1713358388007233000,8.02423291015625,1.1338164806365967,0.42043590545654297,-0.7350951433181763
1713358388017212400,8.03421240234375,0.3208649158477783,0.7396459579467773,-0.6997092962265015
1713358388027161000,8.0441611328125,-0.3942081928253174,1.1028308868408203,-0.3220402002334595
1713358388037140200,8.05414013671875,-0.5340722799301147,1.4091758728027344,0.17884671688079834
1713358388047119600,8.06411962890625,-0.3772680163383484,1.384103775024414,0.49899721145629883
1713358388057068300,8.074068359375,-0.24288409948349,0.9733829498291016,0.3580295443534851
1713358388067047400,8.08404736328125,-0.3171044588088989,0.24934101104736328,0.37135404348373413
1713358388077026800,8.09402685546875,-0.29771411418914795,-0.26186084747314453,0.2343083620071411
1713358388087006000,8.104005859375,-0.17224586009979248,-0.33146190643310547,0.04136037826538086
1713358388096955000,8.113954833984375,0.2582765817642212,-0.10354328155517578,-0.12324267625808716
1713358388106934000,8.12393408203125,0.6859825849533081,0.17792701721191406,0.11054390668869019
1713358388116913200,8.1339130859375,1.1600213050842285,0.7806549072265625,0.3432762622833252
1713358388126862000,8.143862060546875,1.232667326927185,1.4103307723999023,0.8463819622993469
1713358388136841200,8.15384130859375,1.0355786085128784,1.8398656845092773,1.2938275337219238
1713358388146820400,8.1638203125,0.718570351600647,1.9861984252929688,1.6584020853042603
1713358388156769300,8.173769287109375,0.3415452241897583,1.9500198364257812,1.756186842918396
1713358388166748400,8.18374853515625,0.04856455326080322,1.5975818634033203,1.8055298328399658
1713358388176727800,8.193727783203125,0.007265210151672363,1.0582342147827148,1.5403213500976562
1713358388186676500,8.203676513671875,0.11393845081329346,0.5043601989746094,1.4675607681274414
1713358388196655600,8.213655517578125,0.2922621965408325,-0.4653310775756836,1.5165221691131592
1713358388206635000,8.223635009765625,0.79765784740448,-1.3840770721435547,1.2126518487930298
1713358388216583700,8.233583740234375,1.223818063735962,-2.113401412963867,0.7177892923355103
1713358388226562800,8.243562744140625,1.5115801095962524,-2.359661102294922,0.7458075284957886
1713358388236542200,8.253542236328125,2.3350000381469727,-2.032480239868164,0.7167453765869141
1713358388246491000,8.263490966796875,3.1859629154205322,-1.590977668762207,0.7056770324707031
1713358388256470000,8.273469970703125,4.08453369140625,-1.0320310592651367,0.993049144744873
1713358388266449400,8.283449462890625,5.005561828613281,-0.27359771728515625,1.4942612648010254
1713358388276398000,8.293398193359375,5.220202445983887,0.5797233581542969,2.526108503341675
1713358388286377500,8.30337744140625,4.818377494812012,1.2076606750488281,3.435089588165283
1713358388296356600,8.313356689453125,4.016607284545898,1.415970802307129,3.979696273803711
1713358388306305300,8.32330517578125,3.647322416305542,1.1021451950073242,4.201284408569336
1713358388316284700,8.33328466796875,3.5203025341033936,0.07170295715332031,3.7246956825256348
1713358388326263800,8.343263916015625,2.874783515930176,-1.2606964111328125,2.626997470855713
1713358388336212500,8.35321240234375,2.785672187805176,-2.050787925720215,1.4957059621810913
1713358388346192000,8.36319189453125,3.2221012115478516,-2.369217872619629,0.3591974973678589
1713358388356171000,8.3731708984375,3.4344661235809326,-2.21798038482666,-0.18587374687194824
1713358388366150400,8.383150390625,2.7591042518615723,-1.6250114440917969,0.25238049030303955
1713358388376099000,8.39309912109375,1.2165071964263916,-1.1215591430664062,0.5468950271606445
1713358388386078200,8.403078125,-0.34272241592407227,-0.5896615982055664,0.6826510429382324
1713358388396057600,8.4130576171875,-1.7522422075271606,-0.10887432098388672,1.1235579252243042
1713358388406006300,8.42300634765625,-2.6881861686706543,0.17028141021728516,1.3780492544174194
1713358388415985400,8.4329853515625,-2.734226703643799,0.5005865097045898,1.0918540954589844
1713358388425964800,8.44296484375,-2.2795403003692627,0.8591327667236328,0.01761031150817871
1713358388435913500,8.45291357421875,-1.8313449621200562,1.4797897338867188,-1.6944668292999268
1713358388445892900,8.462892822265625,-1.8177968263626099,1.819321632385254,-3.2389044761657715
1713358388455872000,8.4728720703125,-2.0151615142822266,1.7194910049438477,-4.882052898406982
1713358388465820700,8.482820556640625,-2.372992992401123,1.083876609802246,-6.230351448059082
1713358388475800000,8.492800048828125,-2.4896135330200195,-0.09259223937988281,-7.044280529022217
1713358388485779200,8.502779296875,-2.743041515350342,-1.5574941635131836,-7.567086219787598
1713358388495727900,8.512727783203125,-3.0289697647094727,-3.1430015563964844,-8.06938648223877
1713358388505707300,8.522707275390625,-3.446218252182007,-4.350198745727539,-7.025067329406738
1713358388515686400,8.532686279296875,-3.558516025543213,-5.0310211181640625,-4.518564701080322
1713358388525635000,8.542635009765625,-3.3934338092803955,-5.176058769226074,-1.6324725151062012
1713358388535614500,8.552614501953125,-4.141846656799316,-4.796135902404785,0.44941627979278564
1713358388545593600,8.562593505859375,-5.6347150802612305,-4.385863304138184,1.6579023599624634
1713358388555542500,8.57254248046875,-7.158284664154053,-3.9375600814819336,2.3042852878570557
1713358388565521700,8.582521728515625,-7.712285995483398,-3.192013740539551,3.5128493309020996
1713358388575500800,8.592500732421875,-7.788474082946777,-2.3488082885742188,4.419002056121826
1713358388585449700,8.60244970703125,-7.6214985847473145,-1.582261085510254,4.9319748878479
1713358388595428900,8.612428955078125,-6.194422721862793,-1.0727529525756836,3.512591600418091
1713358388605408000,8.622407958984375,-3.736952781677246,-0.2962017059326172,0.5007442235946655
1713358388615357000,8.63235693359375,-1.3998184204101562,0.39051055908203125,-1.1328904628753662
1713358388625336000,8.642336181640625,0.36472272872924805,1.1555652618408203,-1.65860915184021
1713358388635315500,8.6523154296875,3.017540693283081,1.3192453384399414,-0.9930559396743774
1713358388645264100,8.66226416015625,2.9539434909820557,1.8392553329467773,0.5642200708389282
1713358388655243300,8.6722431640625,2.592535972595215,2.45925235748291,0.2219599485397339
1713358388665222700,8.68222265625,0.9043459296226501,3.1331090927124023,0.7851813435554504
1713358388675201800,8.692201904296875,-0.607796847820282,3.0389060974121094,0.6121808886528015
1713358388685150500,8.702150390625,-0.7619107961654663,3.021181106567383,0.3820827007293701
1713358388695129900,8.7121298828125,-0.6109132766723633,3.2485876083374023,-0.06522685289382935
1713358388705109000,8.72210888671875,-0.25070714950561523,3.0734004974365234,0.12402582168579102
1713358388715057700,8.7320576171875,0.09306252002716064,2.77133846282959,0.18406200408935547
1713358388725037000,8.742037109375,-0.18314969539642334,2.505168914794922,0.4655429720878601
1713358388735016200,8.75201611328125,-0.7300060987472534,2.1320228576660156,0.26577723026275635
1713358388744965000,8.761965087890625,-1.3674802780151367,1.7723312377929688,-0.1517401933670044
1713358388754944300,8.7719443359375,-1.8151558637619019,1.6632957458496094,-0.28578823804855347
1713358388764923400,8.78192333984375,-2.025465488433838,1.5802001953125,-0.5811325311660767
1713358388774872300,8.791872314453125,-1.8758900165557861,1.503920555114746,-1.0236248970031738
1713358388784851500,8.8018515625,-1.1886401176452637,1.429194450378418,-1.2759835720062256
1713358388794830800,8.811830810546875,-0.2805593013763428,1.3000125885009766,-1.214808464050293
1713358388804779500,8.821779541015625,0.3332868814468384,1.1181726455688477,-0.9998113512992859
1713358388814758700,8.831758544921875,0.8897749185562134,0.9814319610595703,-0.5985356569290161
1713358388824738000,8.841738037109375,1.2992279529571533,0.8704595565795898,-0.009438782930374146
1713358388834686700,8.851686767578125,1.500927209854126,0.9141101837158203,1.090155839920044
1713358388844665900,8.861665771484375,1.7193922996520996,0.9662961959838867,2.2242164611816406
1713358388854645200,8.871645263671875,1.8049834966659546,1.10809326171875,3.6278977394104004
1713358388864594000,8.881593994140625,1.7699329853057861,1.198760986328125,5.384878635406494
1713358388874573000,8.891572998046875,1.4287571907043457,1.0454139709472656,6.427990436553955
1713358388884552400,8.901552490234375,0.9838334321975708,0.37151527404785156,6.297192573547363
1713358388894501000,8.911501220703125,0.16460925340652466,-0.6277875900268555,5.962260723114014
1713358388904480500,8.92148046875,-1.0955383777618408,-1.8626508712768555,4.363764762878418
1713358388914459600,8.931459716796875,-1.9143011569976807,-3.2487192153930664,2.256009578704834
1713358388924408300,8.941408203125,-1.6170986890792847,-4.287135124206543,-0.1737869679927826
1713358388934387700,8.9513876953125,-0.872783899307251,-4.927301406860352,-2.4054765701293945
1713358388944366800,8.961366943359375,-0.8965873122215271,-5.507083892822266,-3.7908754348754883
1713358388954346200,8.97134619140625,-0.6568461656570435,-5.134902000427246,-3.20841121673584
1713358388964295000,8.981294921875,1.1362335681915283,-3.97745418548584,-0.27744364738464355
1713358388974274000,8.991274169921875,2.1937198638916016,-3.3188295364379883,2.3495969772338867
1713358388984253400,9.00125341796875,0.5911808013916016,-3.6461095809936523,3.318058967590332
1713358388994202000,9.0112021484375,-0.746860682964325,-5.223724365234375,2.0746684074401855
1713358389004181200,9.02118115234375,1.1072514057159424,-5.367090225219727,1.7605479955673218
1713358389014160600,9.03116064453125,1.0268208980560303,-4.067363739013672,0.13240006566047668
1713358389024109300,9.041109375,0.743930459022522,-2.8901357650756836,-4.277439594268799
1713358389034088400,9.05108837890625,-0.9420291185379028,-1.3200531005859375,-6.149726390838623
1713358389044067800,9.06106787109375,-2.668487071990967,1.5080270767211914,-3.1031460762023926
1713358389054016500,9.0710166015625,-3.077033519744873,2.631871223449707,-0.5034849047660828
1713358389063995600,9.08099560546875,-3.439439296722412,1.336130142211914,0.7153176665306091
1713358389073975000,9.09097509765625,-3.522839069366455,-0.5731134414672852,1.6452866792678833
1713358389083923700,9.100923828125,-3.3082947731018066,-2.2038564682006836,1.6382437944412231
1713358389093903000,9.110903076171875,-3.3114705085754395,-2.3483800888061523,1.6576400995254517
1713358389103882200,9.12088232421875,-3.3511345386505127,-1.547821044921875,0.9911413192749023
1713358389113831000,9.130830810546875,-2.2684519290924072,-0.3612852096557617,-0.24655060470104218
1713358389123810300,9.140810302734375,-0.9718962907791138,0.6442089080810547,-1.4523757696151733
1713358389133789400,9.15078955078125,0.08072537183761597,1.3859758377075195,-2.641852617263794
1713358389143738000,9.160738037109375,0.64521324634552,1.3922348022460938,-3.4981842041015625
1713358389153717500,9.170717529296875,0.942956805229187,1.2597637176513672,-4.711337089538574
1713358389163696600,9.180696533203125,1.315321445465088,1.634068489074707,-6.563042640686035
1713358389173645300,9.190645263671875,1.3419686555862427,2.285154342651367,-7.373198509216309
1713358389183624700,9.200624755859375,1.511831521987915,2.911701202392578,-7.049838066101074
1713358389193603800,9.210603759765625,1.5444276332855225,3.0956220626831055,-6.119491100311279
1713358389203552800,9.220552734375,1.3939669132232666,2.942723274230957,-4.6899638175964355
1713358389213532000,9.230531982421875,1.3028688430786133,2.699766159057617,-3.333101272583008
1713358389223511000,9.240510986328125,1.0496430397033691,2.113844871520996,-2.7913780212402344
1713358389233490400,9.250490478515625,0.6323032379150391,1.2690649032592773,-2.365669012069702
1713358389243469600,9.260469482421875,0.2957271933555603,0.6482458114624023,-1.9414408206939697
1713358389253418500,9.27041845703125,-0.03443223237991333,0.2100048065185547,-1.6979032754898071
1713358389263397600,9.280397705078125,-0.14164167642593384,0.1043100357055664,-1.3405429124832153
1713358389273346300,9.29034619140625,0.042997658252716064,0.3571939468383789,-0.9389461278915405
1713358389283325700,9.30032568359375,-0.08342885971069336,0.7481508255004883,-0.6913223266601562
1713358389293304800,9.310304931640625,-0.3515082001686096,1.106846809387207,-0.4277952313423157
1713358389303253500,9.32025341796875,-0.5426586866378784,1.2847929000854492,-0.2977679967880249
1713358389313233000,9.33023291015625,-0.6086066961288452,1.1269645690917969,0.017557919025421143
1713358389323212000,9.3402119140625,-0.49305295944213867,0.9016551971435547,0.19601035118103027
1713358389333160700,9.35016064453125,-0.34078603982925415,0.7929267883300781,0.28832048177719116
1713358389343140000,9.36014013671875,-0.34870606660842896,0.6285877227783203,0.4095204472541809
1713358389353119200,9.370119140625,-0.21518409252166748,0.49483394622802734,0.4937717318534851
1713358389363068200,9.380068115234375,0.09371626377105713,0.5589981079101562,0.709572434425354
1713358389373047300,9.39004736328125,0.3813319206237793,0.7061986923217773,1.0640771389007568
1713358389383026400,9.4000263671875,0.5871902704238892,0.8051776885986328,1.4426560401916504
1713358389392975400,9.409975341796875,0.6392302513122559,0.9086618423461914,1.750271201133728
1713358389402954500,9.41995458984375,0.5021767616271973,0.7606544494628906,1.8686131238937378
1713358389412933600,9.42993359375,0.2836552858352661,0.5835428237915039,1.8581377267837524
1713358389422882600,9.439882568359375,0.09683346748352051,0.38411712646484375,1.7352834939956665
1713358389432861700,9.44986181640625,-0.01849067211151123,-0.0196685791015625,1.6191214323043823
1713358389442841000,9.459841064453125,0.09974098205566406,-0.4126882553100586,1.4342089891433716
1713358389452789800,9.469789794921875,0.31010758876800537,-0.8548727035522461,1.1765244007110596
1713358389462769000,9.479768798828125,0.8392411470413208,-1.0308055877685547,0.8524255752563477
1713358389472748300,9.489748291015625,1.2172292470932007,-0.840418815612793,0.7422778606414795
1713358389482697000,9.499697021484375,1.580817699432373,-0.573155403137207,0.81847083568573
1713358389492676000,9.509676025390625,2.0581436157226562,-0.23089885711669922,1.1626893281936646
1713358389502655500,9.519655517578125,2.5317976474761963,0.15344619750976562,1.4420298337936401
1713358389512634600,9.529634521484375,3.0757980346679688,0.28407955169677734,1.1263855695724487
1713358389522583300,9.539583251953125,3.8513810634613037,0.4834632873535156,1.2829325199127197
1713358389532562700,9.549562744140625,4.21800422668457,0.6304302215576172,1.0723191499710083
1713358389542541800,9.559541748046875,4.349976539611816,0.6201639175415039,1.0159437656402588
1713358389552521200,9.569521240234375,4.177806854248047,0.40053558349609375,1.2334539890289307
1713358389562470000,9.579469970703125,3.635279417037964,0.03566741943359375,1.6060012578964233
1713358389572449000,9.589448974609375,2.9536731243133545,-0.47531700134277344,1.8869483470916748
1713358389582428400,9.599428466796875,2.672459840774536,-0.9969453811645508,1.8147385120391846
1713358389592377000,9.609377197265625,2.638009548187256,-1.615631103515625,1.3506947755813599
1713358389602356500,9.6193564453125,2.5656020641326904,-2.2522287368774414,0.9006553888320923
1713358389612335600,9.629335693359375,3.2714741230010986,-2.4240713119506836,0.7116454839706421
1713358389622284300,9.6392841796875,4.193345546722412,-2.088197708129883,0.7384127378463745
1713358389632263700,9.649263671875,4.194765090942383,-1.8760395050048828,1.046870470046997
1713358389642242800,9.659242919921875,3.1583683490753174,-1.9570274353027344,1.1840049028396606
1713358389652191500,9.66919140625,1.7311499118804932,-2.055448532104492,1.1505423784255981
1713358389662171000,9.6791708984375,0.1683821678161621,-1.8037071228027344,1.398248553276062
1713358389672119600,9.68911962890625,-0.9029197692871094,-1.4073257446289062,1.505262851715088
1713358389682098700,9.6990986328125,-1.3607001304626465,-0.6744470596313477,1.7525871992111206
1713358389692078000,9.709078125,-1.2773730754852295,0.649287223815918,1.7522757053375244
1713358389702026800,9.71902685546875,-1.2195862531661987,2.309591293334961,0.6788338422775269
1713358389712006100,9.729006103515625,-1.177151083946228,3.5229835510253906,-0.9455212354660034
1713358389721985300,9.7389853515625,-1.4085278511047363,4.047574043273926,-2.0344109535217285
1713358389731934000,9.748933837890625,-1.8557088375091553,3.804837226867676,-3.1298599243164062
1713358389741913300,9.758913330078125,-2.324296236038208,2.94303035736084,-4.37784481048584
1713358389751892500,9.768892578125,-2.2220406532287598,1.7082843780517578,-5.047270774841309
1713358389761841200,9.778841064453125,-2.0315446853637695,-0.1782245635986328,-5.230497360229492
1713358389771820500,9.788820556640625,-1.8437201976776123,-2.704303741455078,-6.386332988739014
1713358389781799700,9.798799560546875,-2.1548867225646973,-4.932160377502441,-7.2238006591796875
1713358389791779000,9.808779052734375,-2.215048313140869,-6.3470659255981445,-6.276543617248535
1713358389801727700,9.818727783203125,-1.9571175575256348,-6.969088554382324,-3.8068861961364746
1713358389811707000,9.828706787109375,-2.6055142879486084,-6.20712947845459,-1.09736967086792
1713358389821686300,9.838686279296875,-4.576295375823975,-4.938602447509766,0.4584232568740845
1713358389831665400,9.84866552734375,-6.831146717071533,-3.760004997253418,1.4930402040481567
1713358389841614000,9.858614013671875,-7.840600490570068,-2.6233339309692383,2.775001049041748
1713358389851593500,9.868593505859375,-7.76762056350708,-1.588606834411621,3.442020893096924
1713358389861572600,9.878572509765625,-7.958066940307617,-1.0625133514404297,3.003688335418701
1713358389871521300,9.888521240234375,-7.285869121551514,-0.9135761260986328,2.0552265644073486
1713358389881500700,9.898500732421875,-4.8411970138549805,-0.8161106109619141,1.8355928659439087
1713358389891479800,9.908479736328125,-1.957757830619812,-0.7375659942626953,1.5925726890563965
1713358389901428700,9.9184287109375,0.3769945800304413,-0.3501596450805664,1.411598801612854
1713358389911407900,9.928407958984375,2.514854907989502,0.1991252899169922,1.2460421323776245
1713358389921356500,9.9383564453125,2.987229108810425,0.6476631164550781,1.285451889038086
1713358389931336000,9.9483359375,2.2916979789733887,1.0915298461914062,1.1484904289245605
1713358389941315000,9.958315185546875,1.699869990348816,1.619110107421875,1.135274887084961
1713358389951263700,9.968263671875,1.0104293823242188,1.8667020797729492,0.5495390892028809
1713358389961243100,9.9782431640625,0.24229878187179565,2.2147226333618164,0.001608729362487793
1713358389971222300,9.98822216796875,-0.19155997037887573,2.6392879486083984,-0.14718487858772278
1713358389981171000,9.9981708984375,-0.33638834953308105,2.837106704711914,-0.3371588885784149
1713358389991150300,10.008150390625,-0.41237974166870117,2.8924131393432617,-0.6996988654136658
1713358390001129500,10.01812939453125,-0.34148573875427246,2.8582420349121094,-0.9292632937431335
1713358390011078400,10.028078369140625,-0.2670971155166626,2.7087459564208984,-1.265079140663147
1713358390021057500,10.0380576171875,-0.36827540397644043,2.571183204650879,-1.7520148754119873
1713358390031036700,10.04803662109375,-0.5720861554145813,2.410226821899414,-2.086639642715454
1713358390040985600,10.057985595703125,-0.7663758397102356,2.305145263671875,-2.1553592681884766
1713358390050964700,10.06796484375,-0.7873608469963074,2.2751636505126953,-2.2005014419555664
1713358390060944100,10.077944091796875,-0.6922999620437622,2.3560056686401367,-2.183629274368286
1713358390070923300,10.08792333984375,-0.27811598777770996,2.463637351989746,-2.1733038425445557
1713358390080872000,10.097871826171875,0.14484500885009766,2.5808305740356445,-2.0215651988983154
1713358390090851300,10.107851318359375,0.4224323034286499,2.621335029602051,-1.7161980867385864
1713358390100830500,10.11783056640625,0.7466734647750854,2.608926773071289,-1.3976620435714722
1713358390110809900,10.127809814453125,1.1144691705703735,2.5315866470336914,-0.7423431873321533
1713358390120758500,10.137758544921875,1.5764226913452148,2.2961864471435547,0.07840988039970398
1713358390130737700,10.147737548828125,1.978640079498291,1.7908668518066406,1.1298747062683105
1713358390140717000,10.157717041015625,2.2478761672973633,1.1740846633911133,2.426436185836792
1713358390150665700,10.167665771484375,2.26528000831604,0.2767677307128906,3.9077534675598145
1713358390160644900,10.177644775390625,2.0008533000946045,-0.7260074615478516,4.962192535400391
1713358390170624300,10.187624267578125,1.3602044582366943,-1.6764001846313477,5.290493965148926
1713358390180573000,10.197572998046875,0.32671982049942017,-2.4618444442749023,4.963766574859619
1713358390190552000,10.207552001953125,-0.6507552266120911,-2.9342727661132812,3.1426055431365967
1713358390200531500,10.217531494140625,-1.2883796691894531,-3.2541122436523438,1.8202608823776245
1713358390210480000,10.227480224609375,-1.3243119716644287,-3.058767318725586,1.095444917678833
1713358390220459500,10.23745947265625,-1.181405782699585,-2.9300642013549805,-0.6845159530639648
1713358390230438700,10.247438720703125,-0.9518962502479553,-3.0443248748779297,-1.8441505432128906
1713358390240387300,10.25738720703125,-0.7467615008354187,-2.975741386413574,-2.0767574310302734
1713358390250366700,10.26736669921875,0.04927051067352295,-2.663137435913086,-0.08866816759109497
1713358390260345900,10.277345947265625,2.440937042236328,-2.949191093444824,1.9227063655853271
1713358390270294500,10.28729443359375,4.2439470291137695,-3.74245548248291,3.684596061706543
1713358390280274000,10.29727392578125,3.381105899810791,-5.303699493408203,4.242105484008789
1713358390290222600,10.30722265625,0.6944862604141235,-6.9940385818481445,3.414987325668335
1713358390300201700,10.31720166015625,-0.05433627963066101,-6.506026268005371,1.6777863502502441
1713358390310181000,10.32718115234375,-0.3193106949329376,-4.0043230056762695,-0.19155310094356537
1713358390320129800,10.3371298828125,-0.4081174433231354,-2.012150764465332,-3.311190128326416
1713358390330109000,10.34710888671875,-0.5143284797668457,-0.14319324493408203,-6.829975605010986
1713358390340088300,10.35708837890625,-1.9591070413589478,1.4680662155151367,-6.820627212524414
1713358390350037000,10.367037109375,-3.086132526397705,2.2612390518188477,-3.5018258094787598
1713358390360016400,10.377016357421875,-3.6559598445892334,1.793898582458496,-1.7677903175354004
1713358390369995500,10.38699560546875,-2.8458497524261475,0.6849126815795898,-0.5793964862823486
1713358390379974700,10.396974609375,-1.8112051486968994,-0.4910001754760742,0.15802037715911865
1713358390389954000,10.4069541015625,-1.8088806867599487,-0.7711000442504883,0.5308271646499634
1713358390399902700,10.41690283203125,-2.135185480117798,-0.20080852508544922,0.3372957706451416
1713358390409882000,10.426882080078125,-2.072557210922241,0.16676712036132812,-0.4821692407131195
1713358390419861200,10.436861328125,-1.6281498670578003,0.3178091049194336,-1.293479084968567
1713358390429810000,10.446809814453125,-1.0158007144927979,0.2219715118408203,-2.191788673400879
1713358390439789300,10.456789306640625,-0.5048074722290039,0.054411888122558594,-2.958505392074585
1713358390449768400,10.4667685546875,0.1503395438194275,0.09757804870605469,-4.008498191833496
1713358390459717000,10.476717041015625,0.5188782811164856,0.49671173095703125,-4.496367454528809
1713358390469696500,10.486696533203125,0.562345027923584,1.0575103759765625,-5.04864501953125
1713358390479675600,10.496675537109375,0.7086948752403259,1.5960969924926758,-5.252161502838135
1713358390489624300,10.506624267578125,0.8139070272445679,1.9647951126098633,-5.226012706756592
1713358390499603700,10.516603759765625,0.7686458230018616,2.132883071899414,-5.344950199127197
1713358390509582800,10.526582763671875,0.6299115419387817,2.074258804321289,-5.116741180419922
1713358390519531800,10.53653173828125,0.350888729095459,1.925114631652832,-4.479310512542725
1713358390529511000,10.546510986328125,0.4147443175315857,1.7856206893920898,-3.9753575325012207
1713358390539459600,10.55645947265625,0.5615988969802856,1.404520034790039,-3.2216923236846924
1713358390549439000,10.56643896484375,0.9001541137695312,0.9712638854980469,-2.539471387863159
1713358390559418000,10.576418212890625,1.1246520280838013,0.5939617156982422,-2.1315252780914307
1713358390569366800,10.58636669921875,1.1110891103744507,0.4351205825805664,-1.8175745010375977
1713358390579346200,10.59634619140625,1.0589910745620728,0.5420465469360352,-1.4730162620544434
1713358390589325300,10.6063251953125,0.647857666015625,0.8278036117553711,-1.0005359649658203
1713358390599274000,10.61627392578125,0.19347113370895386,1.1842899322509766,-0.10723823308944702
1713358390609253400,10.62625341796875,-0.24506092071533203,1.300532341003418,0.5755459070205688
1713358390619232500,10.636232421875,-0.6037468314170837,1.0618772506713867,0.8401952385902405
1713358390629181400,10.646181396484375,-0.6304716467857361,0.6048803329467773,0.7582541108131409
1713358390639160600,10.65616064453125,-0.3668992519378662,0.16166305541992188,0.8136980533599854
1713358390649139700,10.6661396484375,0.06616270542144775,-0.2073974609375,1.1733307838439941
1713358390659119000,10.676119140625,0.5137296915054321,-0.37294960021972656,1.3359103202819824
1713358390669067800,10.68606787109375,0.7698071002960205,-0.09418010711669922,1.4070768356323242
1713358390679047200,10.696047119140625,0.977123498916626,0.28156089782714844,1.493147611618042
1713358390689026300,10.7060263671875,1.0447309017181396,0.7277755737304688,1.6088861227035522
1713358390699005400,10.71600537109375,0.5183839797973633,1.0264301300048828,1.4541503190994263
1713358390708954400,10.725954345703125,0.17682862281799316,1.251638412475586,1.6132853031158447
1713358390718933500,10.73593359375,-0.02848076820373535,1.3365821838378906,1.8212522268295288
1713358390728912600,10.74591259765625,-0.09919023513793945,1.152735710144043,1.9944452047348022
1713358390738861600,10.755861572265625,-0.29699671268463135,0.5074148178100586,2.354983329772949
1713358390748840700,10.7658408203125,-0.1387401819229126,0.019990921020507812,2.034034252166748
1713358390758820000,10.775820068359375,-0.07412731647491455,-0.22678756713867188,1.7731716632843018
1713358390768768800,10.785768798828125,0.1447659730911255,-0.6470727920532227,1.6219265460968018
1713358390778748000,10.795747802734375,0.7435125112533569,-0.8152923583984375,1.48125159740448
1713358390788727300,10.805727294921875,1.4354679584503174,-0.7641868591308594,1.6204407215118408
1713358390798676000,10.815676025390625,2.1529088020324707,-0.6508121490478516,1.340212106704712
1713358390808655000,10.825655029296875,2.9440762996673584,-0.2881641387939453,1.0875511169433594
1713358390818604000,10.83560400390625,3.839705228805542,0.20958900451660156,0.7290445566177368
1713358390828583200,10.845583251953125,4.572183609008789,0.8524904251098633,0.6209009885787964
1713358390838562300,10.855562255859375,4.575423717498779,1.4376325607299805,0.9517666101455688
1713358390848511200,10.86551123046875,3.842071771621704,1.5770978927612305,1.4747600555419922
1713358390858490400,10.875490478515625,2.9656009674072266,1.024454116821289,2.1387996673583984
1713358390868469800,10.8854697265625,2.3894364833831787,-0.2937326431274414,2.671388864517212
1713358390878418400,10.89541845703125,2.384507656097412,-1.7404088973999023,2.789283275604248
1713358390888397600,10.9053974609375,2.794931411743164,-2.7415409088134766,2.128060817718506
1713358390898377000,10.915376953125,2.782001495361328,-3.2827882766723633,1.9024471044540405
1713358390908325600,10.92532568359375,3.3757081031799316,-3.1453380584716797,1.4921090602874756
1713358390918304800,10.9353046875,4.174849987030029,-2.732996940612793,1.1588003635406494
1713358390928284200,10.9452841796875,4.0102691650390625,-2.063396453857422,1.451560616493225
1713358390938263300,10.95526318359375,2.8864569664001465,-1.0045108795166016,2.183995008468628
1713358390948212000,10.9652119140625,1.2824137210845947,-0.20193004608154297,2.513228416442871
1713358390958191400,10.97519140625,-0.3139467239379883,0.030275344848632812,2.7388486862182617
1713358390968170500,10.98517041015625,-1.4621890783309937,-0.38590049743652344,2.7605013847351074
1713358390978150000,10.99514990234375,-1.816448450088501,-1.0547380447387695,1.782348871231079
1713358390988098600,11.0050986328125,-1.432990312576294,-1.374664306640625,0.29402613639831543
1713358390998077700,11.01507763671875,-0.9243490695953369,-1.050541877746582,-0.8701510429382324
1713358391008057000,11.02505712890625,-0.5517003536224365,-0.31479835510253906,-1.882737398147583
1713358391018005800,11.035005859375,-0.5883653163909912,0.5519418716430664,-2.7429161071777344
1713358391027985200,11.044985107421875,-0.8458826541900635,1.2854948043823242,-3.733884334564209
1713358391037964300,11.05496435546875,-1.2352306842803955,1.7172012329101562,-4.593542098999023
1713358391047913000,11.064912841796875,-1.7712411880493164,1.8598098754882812,-5.329543113708496
1713358391057892400,11.074892333984375,-2.2548232078552246,1.7596931457519531,-5.678450584411621
1713358391067871500,11.08487158203125,-2.6253414154052734,1.2485580444335938,-5.5580854415893555
1713358391077820200,11.094820068359375,-3.0174102783203125,0.2834587097167969,-5.289844512939453
1713358391087799600,11.104799560546875,-3.095560073852539,-0.9815263748168945,-4.738512992858887
1713358391097748200,11.114748291015625,-2.8816118240356445,-2.1716413497924805,-3.2934670448303223
1713358391107727400,11.124727294921875,-2.63358736038208,-3.2426013946533203,-1.5713753700256348
1713358391117706800,11.134706787109375,-2.495954990386963,-4.199082374572754,-0.16163575649261475
1713358391127655400,11.144655517578125,-3.1020495891571045,-4.676530838012695,0.5463392734527588
1713358391137634600,11.154634521484375,-4.744375705718994,-4.5567827224731445,0.7047348022460938
1713358391147614000,11.164614013671875,-6.86699104309082,-4.094714164733887,0.8114018440246582
1713358391157562600,11.174562744140625,-7.664686679840088,-3.2548046112060547,2.6470327377319336
1713358391167542000,11.1845419921875,-7.595569610595703,-2.0401906967163086,3.4826831817626953
1713358391177521200,11.194521240234375,-7.527321815490723,-1.3203916549682617,2.395261764526367
1713358391187469800,11.2044697265625,-6.076613903045654,-0.5588283538818359,1.7043774127960205
1713358391197449200,11.21444921875,-3.7756969928741455,-0.08710956573486328,0.9134186506271362
1713358391207428400,11.224428466796875,-1.357738733291626,0.2820158004760742,0.4011223316192627
1713358391217407700,11.23440771484375,1.1847180128097534,0.3011131286621094,0.6264247894287109
1713358391227356400,11.2443564453125,2.5293760299682617,0.3747520446777344,1.0134738683700562
1713358391237335600,11.25433544921875,2.491523265838623,0.6944131851196289,1.0062830448150635
1713358391247315000,11.26431494140625,1.6340519189834595,1.164504051208496,1.0242635011672974
1713358391257294000,11.274294189453125,0.7259743213653564,1.6226587295532227,0.9562268257141113
1713358391267242800,11.28424267578125,0.214058518409729,1.8660354614257812,0.6593315005302429
1713358391277222100,11.29422216796875,0.19849556684494019,2.0884695053100586,0.39997875690460205
1713358391287201300,11.304201171875,0.44627469778060913,2.3064279556274414,0.15536373853683472
1713358391297150000,11.31414990234375,0.12495839595794678,2.3265810012817383,0.5425933003425598
1713358391307129300,11.32412939453125,-0.253323495388031,2.2882814407348633,0.5590793490409851
1713358391317108500,11.3341083984375,-0.8017325401306152,2.2135534286499023,0.07911837100982666
1713358391327057400,11.344057373046875,-1.2506968975067139,2.1698713302612305,-0.3364459276199341
1713358391337036500,11.35403662109375,-1.5024707317352295,2.0767250061035156,-0.8422186970710754
1713358391346985200,11.363985107421875,-1.5260306596755981,2.123293876647949,-1.046841025352478
1713358391356964600,11.373964599609375,-1.1681028604507446,2.239910125732422,-1.2246229648590088
1713358391366943700,11.38394384765625,-0.7029191851615906,2.406985282897949,-1.2537219524383545
1713358391376892400,11.393892333984375,-0.1782415509223938,2.5092687606811523,-1.2961139678955078
1713358391386871800,11.403871826171875,0.2598823308944702,2.462986946105957,-1.2484180927276611
1713358391396851000,11.413850830078125,0.6277226209640503,2.316133499145508,-0.9111156463623047
1713358391406799600,11.423799560546875,0.9597852826118469,2.0305490493774414,-0.3297613263130188
1713358391416779000,11.433779052734375,1.3523461818695068,1.6850929260253906,0.6044617891311646
1713358391426758100,11.443758056640625,1.615532398223877,1.3657722473144531,1.7012999057769775
1713358391436707000,11.45370703125,1.8768889904022217,1.1322755813598633,2.9485483169555664
1713358391446686200,11.463686279296875,2.0407161712646484,0.9487228393554688,4.223630428314209
1713358391456665300,11.473665283203125,2.038106679916382,0.6361351013183594,5.368200778961182
1713358391466614300,11.4836142578125,1.5057882070541382,0.039768218994140625,5.820086479187012
1713358391476593400,11.493593505859375,0.30346572399139404,-0.7222204208374023,5.5892486572265625
1713358391486572800,11.50357275390625,-0.8382280468940735,-1.4215593338012695,4.914177417755127
1713358391496521500,11.513521484375,-1.5507681369781494,-2.2728538513183594,3.6360838413238525
1713358391506500600,11.52350048828125,-1.5686450004577637,-3.061028480529785,2.0427746772766113
1713358391516480000,11.53347998046875,-0.6873400211334229,-3.2066726684570312,0.33146601915359497
1713358391526459100,11.543459228515625,-0.16961663961410522,-3.4618825912475586,-1.511741042137146
1713358391536438300,11.553438232421875,-0.6002455949783325,-4.13386344909668,-1.9839739799499512
1713358391546387200,11.56338720703125,-0.8952159285545349,-4.66457462310791,-0.8877650499343872
1713358391556366300,11.573366455078125,0.5494512915611267,-4.529473304748535,1.7666507959365845
1713358391566315000,11.58331494140625,2.7340502738952637,-4.615129470825195,4.234210014343262
1713358391576294400,11.59329443359375,2.353525400161743,-5.893331527709961,4.57849645614624
1713358391586273500,11.6032734375,-0.7808074355125427,-7.831404685974121,2.8828020095825195
1713358391596222200,11.61322216796875,-1.9941730499267578,-8.055057525634766,-0.8163703083992004
1713358391606201600,11.62320166015625,-0.852270245552063,-6.142827033996582,-4.430138111114502
1713358391616180700,11.6331806640625,0.947089433670044,-3.233942985534668,-6.500454425811768
1713358391626129700,11.643129638671875,0.6173908710479736,1.1776542663574219,-8.040918350219727
1713358391636108800,11.65310888671875,-1.1714873313903809,4.681739807128906,-6.308816432952881
1713358391646088000,11.663087890625,-2.1761879920959473,5.604540824890137,-2.2721846103668213
1713358391656036900,11.673036865234375,-2.820369243621826,4.367961883544922,0.4795742332935333
1713358391666016000,11.68301611328125,-2.4939606189727783,1.688863754272461,2.013986349105835
1713358391675995400,11.692995361328125,-2.079110860824585,-1.120377540588379,2.2938225269317627
1713358391685944000,11.702944091796875,-2.8386504650115967,-2.8628787994384766,1.778740644454956
1713358391695923200,11.712923095703125,-4.050232410430908,-2.899083137512207,0.6530427932739258
1713358391705902600,11.722902587890625,-4.130428314208984,-2.017165184020996,-0.7208199501037598
1713358391715851300,11.732851318359375,-2.9451794624328613,-0.6566219329833984,-1.8379133939743042
1713358391725830400,11.742830322265625,-1.2879846096038818,0.5729618072509766,-2.529515027999878
1713358391735809800,11.752809814453125,-0.12009841203689575,1.1998653411865234,-3.0854501724243164
1713358391745758500,11.762758544921875,0.5722000002861023,1.5269231796264648,-4.160617351531982
1713358391755737600,11.772737548828125,0.9249194860458374,1.848719596862793,-5.0738677978515625
1713358391765717000,11.782717041015625,1.3566687107086182,2.149078369140625,-5.644781589508057
1713358391775665700,11.792665771484375,1.8337470293045044,2.650609016418457,-5.837525367736816
1713358391785645000,11.80264501953125,1.7802836894989014,2.9728431701660156,-5.594540596008301
1713358391795624200,11.812624267578125,1.5376873016357422,3.1402063369750977,-4.820093154907227
1713358391805603300,11.822603271484375,0.9649466276168823,2.9734439849853516,-4.02825927734375
1713358391815552300,11.83255224609375,0.4504178762435913,2.510843276977539,-3.2941668033599854
1713358391825531400,11.842531494140625,0.04174625873565674,1.7573232650756836,-2.676050901412964
1713358391835510800,11.8525107421875,-0.14868056774139404,0.9521760940551758,-2.2143750190734863
1713358391845490000,11.862489990234375,-0.12058842182159424,0.26767539978027344,-1.8455932140350342
1713358391855438600,11.8724384765625,0.2732231616973877,0.026526451110839844,-1.4301247596740723
1713358391865418000,11.88241796875,0.8112137317657471,0.24018001556396484,-1.1752746105194092
1713358391875397000,11.892397216796875,0.8410927057266235,0.7142496109008789,-0.9036906957626343
1713358391885345800,11.902345703125,0.5071097612380981,1.204092025756836,-0.4106179475784302
1713358391895325200,11.9123251953125,0.15156853199005127,1.4034662246704102,0.1143186092376709
1713358391905273900,11.92227392578125,-0.03834128379821777,1.245920181274414,0.6698483228683472
1713358391915253000,11.9322529296875,-0.23493731021881104,0.8224477767944336,0.7434754967689514
1713358391925232400,11.942232421875,-0.1466120481491089,0.25039100646972656,0.9454219341278076
1713358391935181000,11.95218115234375,0.06640875339508057,-0.19968891143798828,1.3070147037506104
1713358391945160400,11.962160400390625,0.2772737741470337,-0.32027435302734375,1.2174484729766846
1713358391955139600,11.9721396484375,0.21095824241638184,-0.22417926788330078,1.4540151357650757
1713358391965088300,11.982088134765625,0.2647228240966797,0.080780029296875,1.471874475479126
1713358391975067600,11.992067626953125,0.3574497699737549,0.4574556350708008,1.554170846939087
1713358391985046800,12.002046875,0.5368396043777466,0.8606319427490234,1.955289363861084
1713358391994995500,12.011995361328125,0.7810630798339844,1.0564641952514648,2.0391945838928223
1713358392004974800,12.021974853515625,1.1002020835876465,0.9907455444335938,2.1697592735290527
1713358392014954000,12.0319541015625,1.1027889251708984,0.776331901550293,2.203216075897217
1713358392024902700,12.041902587890625,1.0028963088989258,0.5135459899902344,1.9886915683746338
1713358392034882000,12.051882080078125,0.8721997737884521,0.09975719451904297,2.140563488006592
1713358392044861200,12.061861083984375,0.8957221508026123,-0.3427391052246094,2.0376534461975098
1713358392054809900,12.071809814453125,0.7910410165786743,-0.8165302276611328,1.7133729457855225
1713358392064789200,12.081789306640625,0.5723286867141724,-1.1142778396606445,1.486165165901184
1713358392074768400,12.091768310546875,0.5861372947692871,-1.1501836776733398,1.2914766073226929
1713358392084747800,12.101747802734375,0.8381345272064209,-0.9047861099243164,1.308212161064148
1713358392094696400,12.111696533203125,1.2971978187561035,-0.4966468811035156,1.3337234258651733
1713358392104675600,12.121675537109375,1.923332929611206,-0.06105518341064453,1.433860421180725
1713358392114655000,12.131655029296875,2.741884708404541,0.12130451202392578,1.2593843936920166
1713358392124603600,12.141603759765625,3.8613572120666504,-0.04811573028564453,1.0365240573883057
1713358392134583000,12.1515830078125,4.695743560791016,-0.08747386932373047,0.9610437154769897
1713358392144562200,12.161562255859375,4.6454877853393555,0.12163066864013672,0.8865951299667358
1713358392154510800,12.1715107421875,3.6266584396362305,0.28468990325927734,1.0830975770950317
1713358392164490200,12.181490234375,2.536616325378418,0.2743644714355469,1.2888959646224976
1713358392174469400,12.191469482421875,2.347416877746582,-0.1415567398071289,1.6697139739990234
1713358392184418000,12.20141796875,2.399519205093384,-0.9009056091308594,1.8641821146011353
1713358392194397400,12.2113974609375,2.659842014312744,-1.182657241821289,1.412231206893921
1713358392204376600,12.22137646484375,2.2992637157440186,-1.512582778930664,1.627545714378357
1713358392214325200,12.2313251953125,3.3146867752075195,-1.7323589324951172,1.9903342723846436
1713358392224304600,12.2413046875,3.117631673812866,-2.161383628845215,2.410707950592041
1713358392234283800,12.25128369140625,1.9023163318634033,-2.7043209075927734,2.2957234382629395
1713358392244232700,12.261232666015625,0.7584724426269531,-2.6783084869384766,1.581862211227417
1713358392254211800,12.2712119140625,-0.13579416275024414,-1.9576921463012695,1.0445157289505005
1713358392264191000,12.28119091796875,-1.249385118484497,-1.3312873840332031,0.839856743812561
1713358392274140000,12.291139892578125,-1.8142518997192383,-0.2977008819580078,0.809982419013977
1713358392284119000,12.301119140625,-1.7966221570968628,1.1168851852416992,0.48217225074768066
1713358392294098400,12.311098388671875,-1.5694624185562134,2.1278018951416016,-1.0081270933151245
1713358392304047000,12.321047119140625,-1.791347861289978,2.3135242462158203,-2.5733509063720703
1713358392314026200,12.331026123046875,-1.9905016422271729,2.008772850036621,-3.7913289070129395
1713358392324005600,12.341005615234375,-2.00341534614563,1.2457847595214844,-5.310812950134277
1713358392333954300,12.350954345703125,-2.2088565826416016,-0.10131359100341797,-6.790142059326172
1713358392343933400,12.360933349609375,-2.2195820808410645,-1.9843435287475586,-7.40451192855835
1713358392353912800,12.370912841796875,-2.189634323120117,-4.074422836303711,-6.492694854736328
1713358392363892000,12.38089208984375,-2.094588041305542,-5.713230133056641,-4.5738067626953125
1713358392373840600,12.390840576171875,-2.5619120597839355,-6.190858840942383,-1.6922519207000732
1713358392383820000,12.400820068359375,-3.941990852355957,-5.974991798400879,0.3307156562805176
1713358392393799200,12.410799072265625,-6.324926853179932,-5.712368011474609,1.0948405265808105
1713358392403778600,12.420778564453125,-8.101922035217285,-5.116615295410156,2.846492290496826
1713358392413727200,12.430727294921875,-8.378175735473633,-3.372234344482422,4.707598686218262
1713358392423706400,12.440706298828125,-8.121185302734375,-1.4065532684326172,4.852745056152344
1713358392433685800,12.450685791015625,-6.752960681915283,-0.1959390640258789,3.891578435897827
1713358392443634400,12.460634521484375,-4.1399102210998535,0.5742177963256836,3.0222949981689453
1713358392453613600,12.470613525390625,-0.3110237717628479,0.8427524566650391,2.1108717918395996
1713358392463593000,12.480593017578125,2.633852243423462,1.0238170623779297,2.0260157585144043
1713358392473541600,12.490541748046875,4.364268779754639,1.0148124694824219,1.2986639738082886
1713358392483521000,12.50052099609375,4.248215675354004,1.274820327758789,0.7167130708694458
1713358392493469700,12.5104697265625,3.3479721546173096,1.6428375244140625,0.032987356185913086
1713358392503448800,12.52044873046875,2.202172040939331,1.8011322021484375,0.18529218435287476
1713358392513428200,12.53042822265625,1.2973531484603882,2.084444999694824,0.1362941861152649
1713358392523377000,12.540376953125,0.42403268814086914,2.0525503158569336,-0.7970398664474487
1713358392533356000,12.55035595703125,-0.35316768288612366,1.9474725723266602,-1.302038550376892
1713358392543335400,12.56033544921875,-0.5978435277938843,2.0347747802734375,-1.2297465801239014
1713358392553284000,12.5702841796875,-0.4645821750164032,2.0874032974243164,-1.1815537214279175
1713358392563263200,12.58026318359375,-0.5567952394485474,2.089202880859375,-1.3538838624954224
1713358392573242600,12.59024267578125,-0.7549106478691101,2.093433380126953,-1.4626245498657227
1713358392583191300,12.60019140625,-0.9133319854736328,2.0551233291625977,-1.4578250646591187
1713358392593170700,12.610170654296875,-0.92803955078125,2.196539878845215,-1.4555827379226685
1713358392603149800,12.62014990234375,-0.8652989864349365,2.3451709747314453,-1.599622368812561
1713358392613098500,12.630098388671875,-0.8529713153839111,2.359943389892578,-1.9223017692565918
1713358392623078000,12.640077880859375,0.6619921922683716,2.809347152709961,-2.347872734069824
1713358392633057000,12.65005712890625,1.3039047718048096,3.2215662002563477,-2.6502363681793213
1713358392643005700,12.660005615234375,1.330265998840332,3.513106346130371,-2.6994640827178955
1713358392652985000,12.669985107421875,1.4522507190704346,3.743946075439453,-2.6947789192199707
1713358392662964200,12.679964111328125,1.3334780931472778,3.7303342819213867,-2.5435378551483154
1713358392672943600,12.689943603515625,1.3011962175369263,3.4870481491088867,-1.9722466468811035
