time,seconds_elapsed,z,y,x
1713358560970039800,0.172039794921875,-1.3980937004089355,0.16492748260498047,-0.6946078538894653
1713358560980019200,0.182019287109375,-0.016777992248535156,0.17139387130737305,-1.5467348098754883
1713358560989998300,0.191998291015625,-0.5236678123474121,0.03952503204345703,-1.9960529804229736
1713358560999977500,0.2019775390625,-1.708280086517334,-1.7969970703125,-2.4747750759124756
1713358561009956900,0.211956787109375,-1.239610195159912,-2.8653008937835693,-2.9805068969726562
1713358561019936000,0.22193603515625,1.4843759536743164,-2.090726852416992,-2.4978511333465576
1713358561029885000,0.231885009765625,4.377373695373535,-0.9664208889007568,-0.28675293922424316
1713358561039874800,0.241874755859375,5.465571403503418,0.010236978530883789,3.019244432449341
1713358561049854200,0.251854248046875,5.501526832580566,0.5291502475738525,3.963650703430176
1713358561059833300,0.261833251953125,3.9738903045654297,2.397104263305664,2.792663097381592
1713358561069812700,0.271812744140625,0.14073467254638672,1.8619682788848877,0.6564358472824097
1713358561079761400,0.281761474609375,0.2943763732910156,-1.306344985961914,-0.026081204414367676
1713358561089740500,0.291740478515625,2.023214340209961,-1.46109938621521,-0.6500961184501648
1713358561099720000,0.301719970703125,0.6337356567382812,-1.1294608116149902,-1.6074581146240234
1713358561109668600,0.311668701171875,-0.6414422988891602,-1.859384536743164,-1.7518709897994995
1713358561119647700,0.321647705078125,-0.49042415618896484,-0.8944108486175537,-0.3365590572357178
1713358561129609000,0.33160888671875,-0.5551309585571289,0.654484748840332,0.12654858827590942
1713358561139558000,0.341557861328125,-0.5175027847290039,1.5794670581817627,0.5783055424690247
1713358561149544200,0.351544189453125,0.16316604614257812,1.5736327171325684,0.13275611400604248
1713358561159523300,0.3615234375,0.6579885482788086,0.7037019729614258,-0.46677470207214355
1713358561169491200,0.3714912109375,1.2869319915771484,0.1097865104675293,-0.9957962036132812
1713358561179485200,0.381485107421875,1.558669090270996,0.2300868034362793,-1.610693335533142
1713358561189464600,0.391464599609375,0.8718585968017578,0.6812143325805664,-2.472348928451538
1713358561199443700,0.401443603515625,-0.9483747482299805,0.6692547798156738,-2.1678481101989746
1713358561209422800,0.4114228515625,-2.3940114974975586,0.08352375030517578,-0.8432484269142151
1713358561219371800,0.421371826171875,-2.387907028198242,0.13376998901367188,-0.21277791261672974
1713358561229351000,0.431350830078125,-1.3533754348754883,0.9603333473205566,-0.3275860548019409
1713358561239330300,0.441330322265625,-0.715703010559082,0.6671099662780762,-0.026977241039276123
1713358561249279000,0.451279052734375,-0.4355039596557617,-0.1423029899597168,0.10307443141937256
1713358561259227600,0.4612275390625,0.10687732696533203,-0.109771728515625,-0.14814481139183044
1713358561269176300,0.47117626953125,0.697880744934082,-0.05232715606689453,-0.2631077170372009
1713358561279155700,0.48115576171875,0.6221380233764648,-0.5236854553222656,-0.38955798745155334
1713358561289104400,0.4911044921875,0.6935911178588867,-0.7100768089294434,-0.545967698097229
1713358561299083500,0.50108349609375,1.3764848709106445,-0.8210268020629883,-1.136890172958374
1713358561309032400,0.511032470703125,1.2146024703979492,-0.8329024314880371,-0.896764874458313
1713358561319011600,0.521011474609375,0.5358219146728516,-1.287299633026123,-0.98354572057724
1713358561328960300,0.530960205078125,-0.20236587524414062,-1.3248977661132812,-1.1483690738677979
1713358561338939600,0.540939697265625,-0.21668624877929688,-0.6653232574462891,-1.158104658126831
1713358561348888300,0.550888427734375,-0.7307357788085938,-0.019176006317138672,-1.0720140933990479
1713358561358867500,0.560867431640625,-1.3456315994262695,-0.10404729843139648,-1.4305447340011597
1713358561368816400,0.57081640625,-2.0064477920532227,0.11613941192626953,-1.3874270915985107
1713358561378795500,0.58079541015625,-2.343435287475586,0.32718753814697266,-0.9969749450683594
1713358561388744200,0.590744140625,-1.5251588821411133,0.7840347290039062,-0.6682817935943604
1713358561398723600,0.6007236328125,-0.6914882659912109,0.40312767028808594,-0.41711440682411194
1713358561408672300,0.61067236328125,-0.5989551544189453,0.2665414810180664,-0.5771437883377075
1713358561418651400,0.6206513671875,-1.0146598815917969,0.020483016967773438,-0.6827025413513184
1713358561428630800,0.630630859375,-0.914860725402832,0.010302066802978516,-0.5492234826087952
1713358561438579500,0.640579345703125,-1.9357738494873047,0.16832494735717773,-0.3392348885536194
1713358561448558600,0.65055859375,-2.203932762145996,0.4395256042480469,-0.38109922409057617
1713358561458538000,0.6605380859375,-1.546335220336914,0.24724340438842773,-0.24833369255065918
1713358561468486700,0.670486572265625,-0.7729854583740234,0.3429374694824219,-0.03134453296661377
1713358561478466000,0.680466064453125,-0.809138298034668,-0.09940719604492188,-0.3207288682460785
1713358561488445200,0.690445068359375,-2.5712127685546875,-1.3750901222229004,-0.7123090028762817
1713358561498424300,0.70042431640625,-1.1069087982177734,-0.2086324691772461,-1.3650915622711182
1713358561508373200,0.710373291015625,-2.709827423095703,-2.2217955589294434,-3.147078275680542
1713358561518352400,0.720352294921875,-2.9121131896972656,-2.2615537643432617,-1.4821784496307373
1713358561528331800,0.730331787109375,-4.012042045593262,-0.8482012748718262,-1.4143593311309814
1713358561538311000,0.740310791015625,-2.9652204513549805,-1.8631696701049805,-1.8682630062103271
1713358561548268300,0.750268310546875,-2.829334259033203,-3.3818726539611816,-2.3359756469726562
1713358561558247400,0.760247314453125,-3.3006534576416016,-3.899789810180664,-2.5499494075775146
1713358561568196000,0.770196044921875,-2.2649478912353516,-3.925593852996826,-2.707550525665283
1713358561578175500,0.780175537109375,-0.9909982681274414,-3.625291585922241,-2.5573842525482178
1713358561588154600,0.790154541015625,-0.10813331604003906,-3.42102313041687,-2.025721788406372
1713358561598103300,0.800103271484375,0.9422988891601562,-3.192882537841797,-1.2630422115325928
1713358561608082700,0.810082763671875,1.7533931732177734,-2.7634708881378174,-1.0029709339141846
1713358561618061800,0.820061767578125,7.949493408203125,-1.7456119060516357,-1.9124600887298584
1713358561628010800,0.8300107421875,6.471426963806152,1.6666171550750732,-2.8750321865081787
1713358561637990000,0.839989990234375,-0.8972616195678711,6.107468128204346,-8.091242790222168
1713358561647969000,0.849968994140625,7.933161735534668,-1.4131560325622559,-7.9280266761779785
1713358561657918000,0.85991796875,4.984491348266602,-4.467312812805176,-12.98736572265625
1713358561667897000,0.86989697265625,15.278440475463867,-9.2607421875,-15.541852951049805
1713358561677845800,0.879845703125,17.88134002685547,-8.978384971618652,-11.172801971435547
1713358561687825200,0.8898251953125,10.811260223388672,-11.018217086791992,-3.405585765838623
1713358561697804300,0.89980419921875,3.9438018798828125,-13.827932357788086,1.2769594192504883
1713358561707747800,0.909747802734375,-2.7221832275390625,-14.210155487060547,3.7420380115509033
1713358561717727000,0.91972705078125,-6.681761741638184,-12.81464672088623,3.283013105392456
1713358561727706400,0.929706298828125,-8.900416374206543,-12.12109375,1.3917328119277954
1713358561737655000,0.939655029296875,-8.528360366821289,-10.832982063293457,1.5654093027114868
1713358561747634400,0.949634521484375,-8.646090507507324,-9.741013526916504,2.833855390548706
1713358561757613600,0.959613525390625,-9.430313110351562,-10.154296875,4.356029033660889
1713358561767592700,0.9695927734375,-7.943068981170654,-9.692590713500977,6.827109336853027
1713358561777541600,0.979541748046875,-5.778902530670166,-7.344089984893799,10.499190330505371
1713358561787520800,0.989520751953125,-4.0461297035217285,-6.866060256958008,12.288164138793945
1713358561797493200,0.9994931640625,-3.763286590576172,-7.192502975463867,10.264202117919922
1713358561807480800,1.009480712890625,-5.3728928565979,-3.9105966091156006,18.935609817504883
1713358561817414000,1.019413818359375,-4.253004550933838,4.349810600280762,30.432544708251953
1713358561827393000,1.02939306640625,-6.977590560913086,2.330291271209717,25.84419822692871
1713358561837372200,1.0393720703125,-6.1384124755859375,-2.3169991970062256,13.152793884277344
1713358561847314700,1.049314697265625,-1.9521899223327637,-5.821718215942383,-1.1660656929016113
1713358561857293800,1.0592939453125,1.3987727165222168,-4.971434593200684,-5.346134662628174
1713358561867242500,1.069242431640625,3.016859531402588,-1.685035228729248,-4.611345291137695
1713358561877222000,1.079221923828125,3.441694736480713,0.9461656808853149,-5.771617412567139
1713358561887201000,1.089200927734375,-1.234555721282959,-2.5419840812683105,-13.91833209991455
1713358561897150000,1.09914990234375,5.575035572052002,2.2533462047576904,-10.393901824951172
1713358561907129000,1.109129150390625,1.4112014770507812,0.2607823610305786,-13.799226760864258
1713358561917108200,1.119108154296875,1.5731744766235352,2.2459404468536377,-7.164093971252441
1713358561927057200,1.12905712890625,1.7116045951843262,1.672033667564392,-5.031966209411621
1713358561937036300,1.139036376953125,3.597599983215332,1.8011008501052856,-2.656693458557129
1713358561947015700,1.149015625,3.387183666229248,1.612833023071289,-0.48435544967651367
1713358561956964400,1.15896435546875,2.010617256164551,2.2715907096862793,3.4863409996032715
1713358561966943500,1.168943603515625,-0.029469966888427734,2.0289816856384277,6.255870342254639
1713358561976923000,1.1789228515625,-1.1543102264404297,2.6291584968566895,8.757464408874512
1713358561986871600,1.18887158203125,-0.7194209098815918,4.244772434234619,15.601493835449219
1713358561996850700,1.1988505859375,1.7379450798034668,3.1333260536193848,18.562320709228516
1713358562006799600,1.208799560546875,-1.3723454475402832,3.3413422107696533,15.848726272583008
1713358562016778800,1.21877880859375,-7.259076118469238,0.9876608848571777,0.2486119270324707
1713358562026758000,1.2287578125,-11.666590690612793,3.7751407623291016,1.9941024780273438
1713358562036737300,1.2387373046875,-15.704885482788086,5.278700828552246,6.476668357849121
1713358562046686000,1.24868603515625,-14.400081634521484,6.541636943817139,11.159592628479004
1713358562056665300,1.258665283203125,-9.78264331817627,5.811183452606201,10.501455307006836
1713358562066644500,1.26864453125,-4.006957054138184,4.824403762817383,8.466203689575195
1713358562076623600,1.27862353515625,-2.0591602325439453,2.7857677936553955,7.328942775726318
1713358562086572500,1.288572509765625,-1.6776466369628906,1.5943799018859863,5.5799994468688965
1713358562096551700,1.2985517578125,0.6018109321594238,1.1620721817016602,3.6860599517822266
1713358562106531000,1.308531005859375,3.8618364334106445,1.3722691535949707,0.8785629272460938
1713358562116479700,1.318479736328125,7.25752067565918,1.7413806915283203,-0.6340441703796387
1713358562126459000,1.328458984375,4.956998825073242,3.0247445106506348,-1.270474910736084
1713358562136438300,1.338438232421875,4.813107013702393,4.109488487243652,-1.040438175201416
1713358562146387000,1.348386962890625,4.889451503753662,5.115921974182129,0.4233536720275879
1713358562156366000,1.358365966796875,5.570050239562988,4.6968889236450195,3.724215507507324
1713358562166345500,1.368345458984375,6.103651523590088,2.1185336112976074,5.957086563110352
1713358562176294100,1.378294189453125,9.09858226776123,-2.735607147216797,5.979137420654297
1713358562186273300,1.388273193359375,12.314318656921387,-7.898049354553223,5.673708915710449
1713358562196222200,1.39822216796875,17.706775665283203,-10.094432830810547,3.121612548828125
1713358562206201300,1.408201416015625,22.81353759765625,-8.148737907409668,-1.1513662338256836
1713358562216180700,1.4181806640625,21.46134376525879,-5.887491226196289,-2.74179744720459
1713358562226129400,1.42812939453125,13.944435119628906,-4.238779067993164,-0.4575939178466797
1713358562236108500,1.438108642578125,6.274659633636475,-1.107499599456787,2.6233415603637695
1713358562246088000,1.448087890625,0.4966977834701538,-0.6636002063751221,5.532958030700684
1713358562256036600,1.45803662109375,-2.4047837257385254,-2.7334938049316406,6.203028678894043
1713358562266015700,1.468015625,-0.7951226234436035,-4.645604133605957,4.9261627197265625
1713358562275995100,1.4779951171875,2.217538833618164,-6.16975212097168,3.6623525619506836
1713358562285943800,1.48794384765625,4.358673095703125,-7.472393989562988,2.60280704498291
1713358562295923000,1.4979228515625,4.99384880065918,-7.392710208892822,0.5426349639892578
1713358562305902300,1.50790234375,4.114692687988281,-6.6068949699401855,-0.28289794921875
1713358562315870200,1.5178701171875,-0.4577658176422119,-7.478950500488281,-0.1491241455078125
1713358562325849300,1.527849365234375,-6.8040995597839355,-8.245806694030762,-1.839487075805664
1713358562335828700,1.537828857421875,-9.904248237609863,-5.953885078430176,0.4782867431640625
1713358562345808000,1.547807861328125,-7.554938316345215,-1.2929378747940063,2.85396671295166
1713358562355756500,1.557756591796875,-6.170433044433594,-2.217902660369873,2.091567039489746
1713358562365736000,1.56773583984375,-4.532328128814697,-4.755374908447266,0.5532426834106445
1713358562375715000,1.577715087890625,-6.89136266708374,-4.751377582550049,-0.34218788146972656
1713358562385663700,1.587663818359375,-9.362472534179688,-2.915308952331543,-0.2463827133178711
1713358562395643100,1.59764306640625,-8.50407886505127,-2.029977321624756,-0.9649372100830078
1713358562405622300,1.607622314453125,-6.882699012756348,-0.1037524938583374,-0.9983530044555664
1713358562415601700,1.6176015625,-3.6149563789367676,0.5053085088729858,-0.8293819427490234
1713358562425550300,1.62755029296875,5.96243143081665,-0.18257927894592285,-1.870417594909668
1713358562435529500,1.637529541015625,14.067281723022461,-1.8529103994369507,-1.1883115768432617
1713358562445478400,1.647478515625,2.477034330368042,-2.551429033279419,0.9884729385375977
1713358562455457500,1.65745751953125,2.1920602321624756,1.5096917152404785,0.1620779037475586
1713358562465437000,1.66743701171875,2.6489148139953613,2.488898754119873,-0.15665912628173828
1713358562475385600,1.677385498046875,-0.03482341766357422,2.829679250717163,-0.31151580810546875
1713358562485364700,1.68736474609375,-0.9168004989624023,2.8739707469940186,-1.2384777069091797
1713358562495344000,1.69734423828125,0.24567723274230957,2.438432216644287,-2.8125791549682617
1713358562505292800,1.707292724609375,2.120250701904297,2.842252016067505,-3.256855010986328
1713358562515276500,1.717276611328125,3.2063493728637695,2.0730183124542236,-2.2654953002929688
1713358562525255700,1.727255615234375,0.74934983253479,1.727574348449707,-1.2002925872802734
1713358562535204600,1.73720458984375,-7.001450061798096,3.5446205139160156,-0.36922454833984375
1713358562545183700,1.747183837890625,-27.498817443847656,5.751886367797852,1.1883535385131836
1713358562555132400,1.75713232421875,-7.661190509796143,7.0498504638671875,1.3908586502075195
1713358562565111800,1.76711181640625,-0.13892963528633118,4.663412094116211,-1.2948503494262695
1713358562575091000,1.777091064453125,-3.395707130432129,0.9645979404449463,-0.6225166320800781
1713358562585039600,1.78703955078125,-1.2709791660308838,3.271498918533325,0.6912069320678711
1713358562595019000,1.79701904296875,-2.15364408493042,1.7491223812103271,-3.5869884490966797
1713358562604998100,1.806998046875,0.040333688259124756,1.4074852466583252,-4.863409996032715
1713358562614977500,1.8169775390625,1.1600611209869385,1.0556437969207764,-4.948553085327148
1713358562624926200,1.82692626953125,2.660360336303711,0.9788820743560791,-2.275331497192383
1713358562634905300,1.8369052734375,3.3127293586730957,0.5118281841278076,-0.7339086532592773
1713358562644884700,1.846884765625,0.8864705562591553,-0.5843117237091064,0.5273923873901367
1713358562654864000,1.85686376953125,0.7258537411689758,-0.6983802318572998,0.21613502502441406
1713358562664812500,1.8668125,0.7271883487701416,0.6501002311706543,0.6719493865966797
1713358562674792000,1.8767919921875,-0.32436275482177734,0.7293484210968018,6.781332015991211
1713358562684771000,1.88677099609375,-0.25688380002975464,0.056378841400146484,5.583131790161133
1713358562694720000,1.896719970703125,0.018087871372699738,-1.220163106918335,1.535557746887207
1713358562704699100,1.90669921875,-0.9329913258552551,-1.7749171257019043,1.7908411026000977
1713358562714678300,1.91667822265625,0.14201201498508453,-1.4948666095733643,1.2243633270263672
1713358562724627200,1.926627197265625,0.41091254353523254,-0.8140056133270264,0.7460012435913086
1713358562734606300,1.9366064453125,0.49710267782211304,-0.640904426574707,-0.5489387512207031
1713358562744585700,1.946585693359375,-0.7923983335494995,-0.6317682266235352,-1.7595281600952148
1713358562754534400,1.956534423828125,-0.9022853970527649,-0.4830048084259033,-1.9425020217895508
1713358562764513500,1.966513427734375,-1.0331897735595703,-0.6922433376312256,-0.38453006744384766
1713358562774462200,1.976462158203125,0.20564138889312744,0.2178337574005127,0.8361835479736328
1713358562784441600,1.986441650390625,0.6698716282844543,0.37994813919067383,0.4581308364868164
1713358562794420700,1.996420654296875,0.03411442041397095,0.11096668243408203,-0.32039546966552734
1713358562804369700,2.00636962890625,0.023875057697296143,-0.5407085418701172,-1.115239143371582
1713358562814348800,2.016348876953125,-0.5296115875244141,-0.16531920433044434,-0.2634906768798828
1713358562824328000,2.026327880859375,-0.4956897497177124,0.216477632522583,-0.5906801223754883
1713358562834276900,2.03627685546875,-0.6796703934669495,-0.45348501205444336,-1.347421646118164
1713358562844256000,2.046256103515625,-0.20911654829978943,0.42267751693725586,-1.0642976760864258
1713358562854235400,2.0562353515625,-0.2905075252056122,0.23576736450195312,-2.4404115676879883
1713358562864184000,2.06618408203125,0.20957434177398682,-0.994166374206543,-3.141653060913086
1713358562874163200,2.0761630859375,2.6692428588867188,-1.2779507637023926,-4.53377628326416
1713358562884142600,2.086142578125,-1.6107631921768188,0.20017242431640625,1.4705085754394531
1713358562894121700,2.096121826171875,-1.0471748113632202,0.305570125579834,-2.938652992248535
1713358562904070400,2.1060703125,-1.3870937824249268,1.024763584136963,-1.8776788711547852
1713358562914049800,2.1160498046875,-0.8023238778114319,1.803398609161377,1.032637596130371
1713358562924029000,2.12602880859375,1.8928425312042236,0.5350661277770996,2.378026008605957
1713358562933977600,2.1359775390625,-0.5766878724098206,-0.43651294708251953,3.019120216369629
1713358562943957000,2.14595703125,1.673614501953125,-0.26369762420654297,0.9000883102416992
1713358562953936100,2.15593603515625,-0.6517893075942993,0.5161561965942383,1.432438850402832
1713358562963915500,2.16591552734375,-0.5137553215026855,1.557565689086914,0.7456111907958984
1713358562973864200,2.1758642578125,-1.4340062141418457,2.040177345275879,-0.034090518951416016
1713358562983843300,2.18584326171875,0.6776992082595825,1.8059091567993164,0.42090559005737305
1713358562993822700,2.19582275390625,2.3166980743408203,2.5360260009765625,-1.3881464004516602
1713358563003771400,2.205771484375,-3.065042495727539,3.213172435760498,-2.4037675857543945
1713358563013750500,2.21575048828125,6.018810749053955,-0.02291107177734375,4.3638529777526855
1713358563023699500,2.225699462890625,2.7402124404907227,3.0873026847839355,-0.906975269317627
1713358563033678600,2.2356787109375,-3.329699993133545,3.4754319190979004,-3.160998821258545
1713358563043658000,2.245657958984375,-4.1571784019470215,4.657269477844238,-2.6924562454223633
1713358563053606700,2.255606689453125,-1.9446465969085693,2.3458704948425293,-0.7193441390991211
1713358563063585800,2.265585693359375,-0.36858439445495605,3.8022475242614746,-0.5667247772216797
1713358563073565200,2.275565185546875,3.293013572692871,5.737791061401367,-3.653031349182129
1713358563083513900,2.285513916015625,-0.026546843349933624,2.8100385665893555,-3.046908378601074
1713358563093493000,2.295492919921875,-7.761153221130371,5.385074615478516,-2.769045352935791
1713358563103472400,2.305472412109375,-1.8209829330444336,7.4798078536987305,-2.343832015991211
1713358563113421000,2.315421142578125,-0.2817753255367279,1.0417757034301758,-2.4711203575134277
1713358563123400200,2.325400146484375,6.201986789703369,-5.544569492340088,0.23043298721313477
1713358563133349000,2.33534912109375,-1.2964390516281128,-10.388113975524902,6.765495777130127
1713358563143328300,2.345328369140625,2.3477721214294434,-15.591497421264648,10.239400863647461
1713358563153307600,2.3553076171875,-3.363851308822632,-14.795124053955078,3.969754219055176
1713358563163256300,2.36525634765625,-0.1107015609741211,-10.233856201171875,6.914084434509277
1713358563173235500,2.3752353515625,3.352322578430176,-8.14305305480957,4.351192474365234
1713358563183214800,2.38521484375,-2.9385287761688232,-2.595028877258301,6.412485122680664
1713358563193194000,2.395194091796875,-2.1028943061828613,-1.609013557434082,5.15561580657959
1713358563203142700,2.405142578125,-1.159085988998413,-0.050894737243652344,-1.149341106414795
1713358563213122000,2.4151220703125,-0.8684491515159607,0.7331638336181641,-3.2493200302124023
1713358563223101200,2.42510107421875,-0.2985856533050537,1.9270334243774414,-3.6203999519348145
1713358563233080600,2.43508056640625,0.4988434314727783,3.318352699279785,-2.867401123046875
1713358563243029200,2.445029296875,1.7258374691009521,5.626161575317383,-1.7382183074951172
1713358563253008400,2.45500830078125,-2.797975778579712,3.5548315048217773,1.459416389465332
1713358563262987800,2.46498779296875,-0.15300118923187256,1.094400405883789,1.942021369934082
1713358563272936400,2.4749365234375,1.2057559490203857,-0.6382627487182617,0.0515894889831543
1713358563282915600,2.48491552734375,1.1561710834503174,-0.8503170013427734,-0.4505796432495117
1713358563292895000,2.49489501953125,-0.2147480845451355,-0.5206813812255859,-0.078857421875
1713358563302843600,2.50484375,-0.17825257778167725,-0.7605876922607422,-0.7147598266601562
1713358563312823000,2.514822998046875,-0.041315436363220215,-1.0556774139404297,-1.4984917640686035
1713358563322802200,2.52480224609375,0.20288527011871338,0.41454219818115234,-1.0398025512695312
1713358563332750800,2.534750732421875,0.2678907513618469,1.5794878005981445,0.8434104919433594
1713358563342730200,2.544730224609375,0.8799320459365845,-0.8324403762817383,0.6547255516052246
1713358563352679000,2.554678955078125,-0.12216806411743164,-2.604616165161133,-1.4920768737792969
1713358563362658000,2.564657958984375,1.109727144241333,-0.2752542495727539,0.08771753311157227
1713358563372637400,2.574637451171875,0.3339346647262573,0.0070476531982421875,-0.8346428871154785
1713358563382586000,2.584586181640625,0.35922855138778687,-0.2069988250732422,-0.47530317306518555
1713358563392565200,2.594565185546875,0.07559746503829956,0.3737907409667969,-0.2932581901550293
1713358563402544600,2.604544677734375,-0.019506514072418213,1.7876653671264648,-0.033184051513671875
1713358563412493300,2.614493408203125,0.996665894985199,1.8673677444458008,0.42661190032958984
1713358563422472700,2.62447265625,1.1197563409805298,0.9834537506103516,0.47858667373657227
1713358563432451800,2.634451904296875,0.8135187029838562,0.0044307708740234375,-0.6769537925720215
1713358563442400500,2.644400390625,1.0759739875793457,2.308440685272217,-1.188403606414795
1713358563452380000,2.6543798828125,0.8280555605888367,6.265951633453369,0.12992238998413086
1713358563462359000,2.664359130859375,0.4261670708656311,10.353163719177246,2.409046173095703
1713358563472307700,2.6743076171875,0.0498884916305542,11.45943832397461,2.1024246215820312
1713358563482287000,2.684287109375,-0.04719454050064087,7.253270149230957,0.6837873458862305
1713358563492266200,2.694266357421875,0.6913692951202393,-0.10254096984863281,-1.3707098960876465
1713358563502245600,2.70424560546875,-2.2400524616241455,-9.595098495483398,-3.2201294898986816
1713358563512194300,2.7141943359375,0.18141716718673706,-10.76374626159668,-2.412795066833496
1713358563522176800,2.7241767578125,3.0540385246276855,-3.8168702125549316,0.013788223266601562
1713358563532156200,2.73415625,2.024465560913086,1.7307519912719727,1.6837420463562012
1713358563542104800,2.744104736328125,-0.8362363576889038,-1.171269416809082,2.155261516571045
1713358563552084000,2.754083984375,-1.1542067527770996,-2.0152812004089355,2.4443531036376953
1713358563562063400,2.7640634765625,0.5263189673423767,0.7487568855285645,4.085026264190674
1713358563572012000,2.774011962890625,0.6083275079727173,-0.9680538177490234,2.00911808013916
1713358563581991200,2.7839912109375,0.9680972099304199,-3.372392177581787,-1.3348207473754883
1713358563591970600,2.793970458984375,-0.2036331295967102,-2.2494120597839355,-1.582972526550293
1713358563601919200,2.803919189453125,-0.7264183759689331,-1.4692950248718262,-0.7264623641967773
1713358563611898600,2.813898681640625,-1.1852418184280396,-2.636104106903076,-0.258211612701416
1713358563621877800,2.823877685546875,-1.2756083011627197,-0.7187347412109375,0.02349090576171875
1713358563631826400,2.833826416015625,-0.8608417510986328,-1.247973918914795,0.27493858337402344
1713358563641805800,2.843805908203125,-0.09704414010047913,1.5639095306396484,1.465695858001709
1713358563651785000,2.853784912109375,0.07061198353767395,-0.8344545364379883,-0.08593082427978516
1713358563661733600,2.863733642578125,-0.4162953495979309,2.00216007232666,0.23905372619628906
1713358563671713000,2.873713134765625,0.7928440570831299,0.7682352066040039,-0.07948541641235352
1713358563681661700,2.88366162109375,-0.3811420798301697,-1.7586264610290527,-1.779737949371338
1713358563691640800,2.893640869140625,-0.6813675761222839,0.004815578460693359,-0.18787908554077148
1713358563701620200,2.9036201171875,0.10291805863380432,-3.7240705490112305,-1.4475445747375488
1713358563711569000,2.91356884765625,-0.5973626971244812,-1.7791776657104492,-0.5039196014404297
1713358563721548300,2.92354833984375,-0.637485146522522,-1.6255402565002441,-0.02597951889038086
1713358563731527400,2.93352734375,-0.01373240351676941,-1.8905792236328125,-0.12556695938110352
1713358563741476000,2.94347607421875,0.3372478485107422,-0.7840075492858887,-0.2478618621826172
1713358563751455500,2.95345556640625,0.6059727668762207,-0.8750405311584473,-0.6945085525512695
1713358563761434600,2.9634345703125,0.9022407531738281,-0.1652512550354004,-0.9094014167785645
1713358563771414000,2.9734140625,0.45835474133491516,0.019909381866455078,-0.6293563842773438
1713358563781393200,2.98339306640625,0.5785089135169983,-0.33678150177001953,-1.1255388259887695
1713358563791341800,2.993341796875,0.2881995141506195,1.0288949012756348,0.0792241096496582
1713358563801321200,3.0033212890625,1.2484320402145386,-0.5828437805175781,-2.2953286170959473
1713358563811300400,3.01330029296875,0.3274475932121277,0.31578588485717773,-2.2276740074157715
1713358563821249000,3.0232490234375,0.021549761295318604,-0.08021783828735352,-1.3443021774291992
1713358563831228400,3.033228515625,-0.7788900136947632,0.5872035026550293,-3.8284783363342285
1713358563841207600,3.04320751953125,1.2692300081253052,0.5907220840454102,1.6016569137573242
1713358563851156200,3.05315625,0.0226285457611084,0.11336946487426758,-1.9776086807250977
1713358563861135600,3.063135498046875,0.8520512580871582,0.26872730255126953,2.275373935699463
1713358563871114800,3.07311474609375,0.9995244741439819,-0.1977405548095703,1.616196632385254
1713358563881063400,3.0830634765625,-0.7705215215682983,0.34079694747924805,-1.1959562301635742
1713358563891042800,3.093042724609375,-2.5770297050476074,-1.564521312713623,5.01054573059082
1713358563901022000,3.10302197265625,-3.6738433837890625,-0.9235095977783203,3.499143600463867
1713358563910971000,3.112970947265625,1.324522852897644,-0.6756892204284668,3.951545238494873
1713358563920950000,3.122949951171875,3.2441279888153076,-0.29357337951660156,-0.0067234039306640625
1713358563930898700,3.132898681640625,0.8739385008811951,0.6173100471496582,-1.3724141120910645
1713358563940878000,3.142878173828125,-0.9863214492797852,0.9435839653015137,-0.8562588691711426
1713358563950857200,3.152857177734375,-1.1901596784591675,0.4977874755859375,-0.2835536003112793
1713358563960806000,3.162805908203125,-0.5442176461219788,0.16809415817260742,-0.007133007049560547
1713358563970785300,3.172785400390625,1.0923253297805786,0.2167506217956543,-0.5750484466552734
1713358563980764400,3.182764404296875,0.4223969280719757,-0.09379768371582031,-0.04788541793823242
1713358563990713000,3.192713134765625,-0.38647469878196716,-0.26297616958618164,-0.045975685119628906
1713358564000692500,3.2026923828125,-0.20139667391777039,-0.22828006744384766,-0.13924074172973633
1713358564010671600,3.212671630859375,-0.2068517506122589,-0.02829456329345703,0.02358245849609375
1713358564020620500,3.22262060546875,-0.3989134728908539,0.10485363006591797,-0.04757213592529297
1713358564030599700,3.232599609375,-0.1691809892654419,0.7544727325439453,-0.443511962890625
1713358564040578800,3.242578857421875,1.8176316022872925,0.9703583717346191,-1.7143044471740723
1713358564050558200,3.25255810546875,0.19839975237846375,0.9188699722290039,-1.4148669242858887
1713358564060507000,3.2625068359375,-1.8961893320083618,0.44976282119750977,-0.6325359344482422
1713358564070486300,3.272486328125,-0.28548935055732727,0.20171833038330078,1.022779941558838
1713358564080465400,3.28246533203125,-0.5997313261032104,0.43758678436279297,2.0993285179138184
1713358564090414000,3.2924140625,-0.5936493277549744,0.27480077743530273,0.900723934173584
1713358564100393500,3.3023935546875,-0.253822922706604,-0.3010425567626953,0.22894668579101562
1713358564110372600,3.31237255859375,-0.3627140522003174,-0.931157112121582,1.011706829071045
1713358564120352000,3.32235205078125,-0.21173173189163208,-0.6025662422180176,0.6609973907470703
1713358564130300700,3.33230078125,0.44103944301605225,-1.3073234558105469,-0.37471675872802734
1713358564140279800,3.34227978515625,0.7729149460792542,1.1267518997192383,1.190596103668213
1713358564150228500,3.352228515625,0.02743631601333618,0.08884525299072266,-0.3100123405456543
1713358564160208000,3.362207763671875,0.013249218463897705,-0.4453587532043457,0.022958755493164062
1713358564170187000,3.37218701171875,-0.4473602771759033,-0.8103938102722168,-0.18401050567626953
1713358564180136000,3.382135986328125,0.23618042469024658,-1.2348179817199707,-0.8013110160827637
1713358564190115000,3.392114990234375,0.6081575751304626,-1.1007251739501953,-0.5062203407287598
1713358564200094200,3.40209423828125,0.09712213277816772,-0.7179532051086426,-0.13464879989624023
1713358564210043100,3.412043212890625,-0.6493575572967529,-0.6392612457275391,-0.21925735473632812
1713358564220022300,3.422022216796875,-0.8195042610168457,-0.41379880905151367,-0.1342625617980957
1713358564230001700,3.432001708984375,-0.3926076889038086,0.08941507339477539,-0.12659454345703125
1713358564239950300,3.441950439453125,-0.47268378734588623,-0.24234914779663086,-0.3857269287109375
1713358564249929500,3.451929443359375,0.38574886322021484,-0.4360847473144531,-0.3608217239379883
1713358564259878100,3.461878173828125,1.1159398555755615,-0.3111581802368164,-0.9097270965576172
1713358564269857500,3.471857421875,1.1197552680969238,0.47562265396118164,-1.459399700164795
1713358564279836700,3.481836669921875,0.5396808981895447,0.3156270980834961,-1.0522356033325195
1713358564289785600,3.49178564453125,0.6359922289848328,-0.045360565185546875,-0.7590804100036621
1713358564299764700,3.5017646484375,0.97911137342453,0.3609647750854492,-0.19404125213623047
1713358564309743900,3.511743896484375,-0.06059539318084717,-0.24442815780639648,-1.5768804550170898
1713358564319692800,3.52169287109375,-0.03418165445327759,-0.6675691604614258,0.5239315032958984
1713358564329672000,3.531671875,-0.25645357370376587,-0.19906044006347656,-0.3442840576171875
1713358564339651000,3.541651123046875,-0.896350622177124,-0.824183464050293,-0.8894023895263672
1713358564349630500,3.55163037109375,-0.9416876435279846,-2.2270565032958984,-1.2779192924499512
1713358564359579100,3.5615791015625,-0.7202440500259399,-2.7279343605041504,-0.8798885345458984
1713358564369558500,3.57155859375,-1.2347638607025146,-3.1109933853149414,-0.5619320869445801
1713358564379537700,3.58153759765625,-1.7696624994277954,-2.3852124214172363,-0.011768817901611328
1713358564389516800,3.591516845703125,-2.019716262817383,-2.687955379486084,0.009250640869140625
1713358564399465700,3.6014658203125,0.20708119869232178,-1.4179096221923828,0.8132801055908203
1713358564409444900,3.61144482421875,-0.17417657375335693,1.4019813537597656,-1.93253755569458
1713358564419424300,3.62142431640625,0.7650265693664551,1.2026634216308594,5.0967631340026855
1713358564429373000,3.631373046875,2.191385507583618,5.344770431518555,-3.503683090209961
1713358564439352000,3.64135205078125,-0.6455094218254089,2.664339542388916,1.2752890586853027
1713358564449331500,3.65133154296875,-0.8154515027999878,0.7116341590881348,-0.3546113967895508
1713358564459280100,3.661280029296875,0.3794388771057129,-0.5754055976867676,-0.6319050788879395
1713358564469259300,3.67125927734375,0.8170496821403503,-0.4617652893066406,-0.6434316635131836
1713358564479208200,3.681208251953125,0.3741806745529175,-1.263817310333252,-0.7940220832824707
1713358564489187300,3.691187255859375,-0.31282681226730347,-0.6559176445007324,-1.013772964477539
1713358564499166500,3.70116650390625,0.5046995878219604,2.0700340270996094,-3.0596370697021484
1713358564509115400,3.711115478515625,3.149385452270508,8.10818099975586,-8.418376922607422
1713358564519094500,3.721094482421875,-4.226012706756592,0.09127426147460938,1.9666881561279297
1713358564529074000,3.731073974609375,0.3094712197780609,-3.2717318534851074,1.7548651695251465
1713358564539022600,3.741022705078125,1.030585527420044,-1.9105205535888672,3.021851062774658
1713358564549001700,3.751001708984375,0.5218753814697266,-0.8098578453063965,5.379680156707764
1713358564558981000,3.760981201171875,-1.3842135667800903,0.44377613067626953,1.9749670028686523
1713358564568929800,3.7709296875,-1.4705533981323242,0.48160839080810547,-0.12813520431518555
1713358564578909000,3.780908935546875,-1.2062616348266602,0.35262393951416016,-0.9966845512390137
1713358564588888300,3.790888427734375,-2.4189271926879883,0.6391768455505371,-0.9471526145935059
1713358564598837000,3.8008369140625,-2.570197343826294,2.18192195892334,0.33046483993530273
1713358564608816000,3.810816162109375,-1.3777294158935547,3.934375762939453,-0.8926568031311035
1713358564618795500,3.82079541015625,-3.5365984439849854,2.7762670516967773,-1.3875923156738281
1713358564628744200,3.830744140625,-3.7855472564697266,2.417586326599121,-3.7863717079162598
1713358564638723600,3.8407236328125,-1.1727160215377808,-1.8539843559265137,-2.4976696968078613
1713358564648702700,3.85070263671875,4.066647529602051,-5.1418938636779785,0.318758487701416
1713358564658681900,3.860681884765625,4.435450077056885,-5.77935791015625,8.750913619995117
1713358564668630800,3.870630859375,0.012606948614120483,-1.587991714477539,4.8530755043029785
1713358564678610000,3.88060986328125,0.11799420416355133,-2.165740966796875,-2.3479256629943848
1713358564688589300,3.89058935546875,1.3037323951721191,0.12120914459228516,-1.825650691986084
1713358564698538000,3.9005380859375,0.45775362849235535,2.326544761657715,-0.9386286735534668
1713358564708517000,3.91051708984375,0.19462522864341736,2.1990933418273926,-0.3849673271179199
1713358564718496500,3.92049658203125,0.5692621469497681,1.284318447113037,-0.008214473724365234
1713358564728445200,3.930445068359375,0.7685570120811462,0.7944879531860352,-0.06794452667236328
1713358564738424300,3.94042431640625,0.30405598878860474,0.42698144912719727,0.1227269172668457
1713358564748403700,3.95040380859375,-0.36986297369003296,0.09221553802490234,-0.8636951446533203
1713358564758352400,3.960352294921875,-0.61521977186203,-0.2892799377441406,1.4939312934875488
1713358564768331500,3.97033154296875,-0.703388512134552,-0.9619894027709961,1.8176379203796387
1713358564778311000,3.980310791015625,-0.38011080026626587,-1.142892837524414,1.1274523735046387
1713358564788259600,3.990259521484375,-0.8634807467460632,-1.5719003677368164,0.3748297691345215
1713358564798238700,4.00023876953125,-1.165115237236023,-1.2847590446472168,1.2709808349609375
1713358564808218000,4.010218017578125,-0.21352867782115936,-0.788001537322998,0.41242551803588867
1713358564818166800,4.020166748046875,-0.247182235121727,-0.1741485595703125,0.2339181900024414
1713358564828146200,4.030146240234375,1.1688015460968018,0.12029218673706055,-0.19952106475830078
1713358564838125300,4.040125244140625,1.0964469909667969,1.2673282623291016,-0.008992195129394531
1713358564848074000,4.050073974609375,-1.026665210723877,3.622596263885498,0.4088735580444336
1713358564858053400,4.060053466796875,0.27279841899871826,2.7192249298095703,3.232457160949707
1713358564868002000,4.070001953125,-0.2388649582862854,1.0386590957641602,1.2460975646972656
1713358564877981200,4.079981201171875,0.2847200036048889,0.6464266777038574,1.2614874839782715
1713358564887960600,4.089960693359375,0.15671446919441223,0.8635625839233398,1.1958746910095215
1713358564897939700,4.099939697265625,-0.27635130286216736,0.9890279769897461,1.6225738525390625
1713358564907888400,4.109888427734375,-0.3204476535320282,0.8859596252441406,1.4645562171936035
1713358564917867800,4.11986767578125,-0.4526864290237427,0.743743896484375,0.9310064315795898
1713358564927847000,4.129846923828125,-0.3006892204284668,0.5120201110839844,0.6625685691833496
1713358564937826300,4.139826416015625,-0.16456681489944458,0.47195005416870117,0.5359249114990234
1713358564947775000,4.14977490234375,-0.18061548471450806,0.436978816986084,0.35748863220214844
1713358564957754000,4.159754150390625,-0.2925060987472534,0.41046619415283203,0.04949378967285156
1713358564967733500,4.1697333984375,-0.36885690689086914,0.4849114418029785,-0.044626712799072266
1713358564977682200,4.17968212890625,-0.29182982444763184,0.49040937423706055,-0.04241466522216797
1713358564987661600,4.18966162109375,-0.4584490656852722,0.503324031829834,-0.008792400360107422
1713358564997640700,4.199640625,-0.5703572034835815,0.5354094505310059,-0.010779857635498047
1713358565007589400,4.20958935546875,-0.6467280387878418,0.6298108100891113,-0.10302877426147461
1713358565017568800,4.21956884765625,-0.6970143914222717,0.8006100654602051,-0.13498640060424805
1713358565027548000,4.2295478515625,-0.6724148392677307,0.9782428741455078,-0.11653757095336914
1713358565037496600,4.23949658203125,-0.5766041278839111,1.090630054473877,0.030683040618896484
1713358565047476000,4.24947607421875,-0.6414388418197632,1.1098814010620117,0.09918737411499023
1713358565057455000,4.259455078125,-0.8136265277862549,1.0124940872192383,0.23496103286743164
1713358565067403800,4.26940380859375,-1.0890729427337646,0.8136463165283203,0.29252099990844727
1713358565077383200,4.279383056640625,-1.2445855140686035,0.690742015838623,0.43953466415405273
1713358565087331800,4.289331787109375,-1.308509349822998,0.700462818145752,0.5796933174133301
1713358565097311200,4.299311279296875,-1.338411569595337,0.8191542625427246,0.541618824005127
1713358565107290400,4.309290283203125,-1.3436129093170166,0.8672823905944824,0.5882363319396973
1713358565117239000,4.319239013671875,-1.404546856880188,0.8402562141418457,0.6069722175598145
1713358565127218400,4.329218505859375,-1.51558256149292,0.8008823394775391,0.5840029716491699
1713358565137197600,4.339197509765625,-1.5097424983978271,0.8061928749084473,0.6003360748291016
1713358565147146200,4.349146240234375,-1.5990806818008423,0.8466014862060547,0.5173602104187012
1713358565157125600,4.359125732421875,-1.4385889768600464,0.8812007904052734,0.5577902793884277
1713358565167104800,4.369104736328125,-1.7708594799041748,0.8907942771911621,0.5348529815673828
1713358565177053400,4.379053466796875,-1.6653177738189697,1.1042137145996094,0.5464005470275879
1713358565187032800,4.38903271484375,-1.8075100183486938,1.3300156593322754,0.5494050979614258
1713358565197012000,4.399011962890625,-1.6250426769256592,1.6818194389343262,0.6938600540161133
1713358565206991400,4.408991455078125,-1.671621322631836,1.9517993927001953,0.6953301429748535
1713358565216970500,4.418970458984375,-1.201678991317749,2.31596040725708,0.8954157829284668
1713358565226919200,4.428919189453125,-0.9505014419555664,2.602511405944824,1.152902603149414
1713358565236898600,4.438898681640625,-0.9378823041915894,2.667607307434082,1.5506577491760254
1713358565246877700,4.448877685546875,-0.8797595500946045,2.6339945793151855,1.8572468757629395
1713358565256826400,4.458826416015625,-0.78839111328125,2.4805893898010254,2.0923008918762207
1713358565266805800,4.4688056640625,-0.9535086154937744,2.306364059448242,2.101761817932129
1713358565276785000,4.478784912109375,-1.0944463014602661,2.145294189453125,2.139997959136963
1713358565286733800,4.48873388671875,-1.29501473903656,1.9490861892700195,2.1894278526306152
1713358565296713000,4.498712890625,-1.4314028024673462,1.6942453384399414,2.319394588470459
1713358565306692000,4.508692138671875,-1.8277058601379395,1.374197006225586,2.446082592010498
1713358565316641000,4.51864111328125,-1.9186255931854248,1.231886386871338,2.6352620124816895
1713358565326620200,4.5286201171875,-1.9399266242980957,1.1131834983825684,2.773221969604492
1713358565336568800,4.53856884765625,-2.000150203704834,0.9189066886901855,3.0063962936401367
1713358565346548200,4.54854833984375,-2.0324525833129883,0.8445892333984375,3.1523313522338867
1713358565356527400,4.55852734375,-2.1457841396331787,0.6412577629089355,3.277446746826172
1713358565366476000,4.56847607421875,-1.6566660404205322,0.3762845993041992,2.87005615234375
1713358565376455400,4.578455322265625,-2.4950790405273438,0.09446430206298828,2.856778144836426
1713358565386434600,4.5884345703125,-3.036458969116211,0.08755302429199219,3.1749768257141113
1713358565396383500,4.598383544921875,-2.879977226257324,0.3674044609069824,4.010888576507568
1713358565406362600,4.608362548828125,-2.3200607299804688,0.6808357238769531,4.761468410491943
1713358565416341800,4.618341796875,-0.6449275016784668,1.3811898231506348,5.660819053649902
1713358565426290700,4.628290771484375,0.5826671123504639,2.016664505004883,5.939943313598633
1713358565436269800,4.638269775390625,1.049335241317749,1.7913084030151367,5.4188432693481445
1713358565446218500,4.648218505859375,1.3214845657348633,0.7990689277648926,4.820481300354004
1713358565456198000,4.658197998046875,1.6976298093795776,-0.19131803512573242,3.9151973724365234
1713358565466177000,4.668177001953125,1.6435922384262085,-0.8769254684448242,2.590567111968994
1713358565476156400,4.678156494140625,1.2554824352264404,-1.361093521118164,1.4164762496948242
1713358565486105000,4.68810498046875,0.7535769939422607,-1.787759780883789,0.4668765068054199
1713358565496084200,4.698084228515625,0.5403523445129395,-2.0572457313537598,-0.7454590797424316
1713358565506063600,4.708063720703125,0.43040943145751953,-2.2504043579101562,-1.7902979850769043
1713358565516042800,4.718042724609375,0.4130779504776001,-2.4663748741149902,-2.859508514404297
1713358565525991400,4.727991455078125,0.8273228406906128,-2.4760541915893555,-3.5492115020751953
1713358565535970800,4.737970703125,1.1283953189849854,-2.637044906616211,-3.5376205444335938
1713358565545950000,4.747949951171875,1.2496989965438843,-2.8425421714782715,-2.7735047340393066
1713358565555899000,4.75789892578125,0.9363172054290771,-3.1406760215759277,-2.217973232269287
1713358565565878000,4.7678779296875,0.882111668586731,-3.3774800300598145,-1.7786121368408203
1713358565575857200,4.777857177734375,1.5688135623931885,-3.4155821800231934,-1.3119726181030273
1713358565585806000,4.78780615234375,2.5784523487091064,-3.278308868408203,-1.257951259613037
1713358565595785200,4.79778515625,3.0198848247528076,-3.1475138664245605,-1.579599380493164
1713358565605764400,4.807764404296875,2.512938976287842,-3.0335302352905273,-1.6831212043762207
1713358565615713300,4.81771337890625,1.390433430671692,-2.936300277709961,-1.1996302604675293
1713358565625692400,4.8276923828125,0.3424593508243561,-2.493964195251465,-0.46131086349487305
1713358565635671800,4.837671875,-0.6930083632469177,-1.8577299118041992,0.3384237289428711
1713358565645620500,4.847620361328125,-0.7028478384017944,-1.4103775024414062,1.0949110984802246
1713358565655599600,4.857599609375,-0.27707937359809875,-1.2212247848510742,1.7148675918579102
1713358565665548300,4.86754833984375,0.03803534805774689,-0.8522076606750488,1.8481230735778809
1713358565675527700,4.877527587890625,-0.2668766379356384,-0.7557387351989746,1.5192837715148926
1713358565685506800,4.8875068359375,-0.17637401819229126,-0.26332950592041016,1.4977807998657227
1713358565695455700,4.897455810546875,0.34338700771331787,0.10320329666137695,1.1187744140625
1713358565705435000,4.907434814453125,0.5027938485145569,0.42470693588256836,0.3588566780090332
1713358565715414000,4.9174140625,0.7025092244148254,0.9864163398742676,-0.4387345314025879
1713358565725363000,4.927363037109375,0.8635866641998291,1.4963674545288086,-0.9281048774719238
1713358565735342000,4.937342041015625,0.9046770334243774,1.6922845840454102,-1.064824104309082
1713358565745321500,4.947321533203125,1.0331326723098755,1.897085189819336,-1.722571849822998
1713358565755300600,4.957300537109375,1.7476482391357422,2.0062127113342285,-2.065323829650879
1713358565765249300,4.967249267578125,1.7613047361373901,2.0937304496765137,-2.5393190383911133
1713358565775228700,4.977228759765625,1.312950611114502,2.192525863647461,-2.85630464553833
1713358565785207800,4.987207763671875,1.1156373023986816,2.273564338684082,-3.1983799934387207
1713358565795187200,4.997187255859375,1.0147418975830078,2.2571258544921875,-4.162785530090332
1713358565805136000,5.007135986328125,0.7205015420913696,2.4681544303894043,-4.798559188842773
1713358565815115000,5.017114990234375,0.43042421340942383,2.826301097869873,-5.074487686157227
1713358565825094400,5.027094482421875,0.4476437568664551,3.1066408157348633,-4.6456193923950195
1713358565835043000,5.03704296875,0.46420860290527344,3.336428165435791,-4.42427396774292
1713358565845022200,5.047022216796875,0.4750504493713379,3.2515764236450195,-3.750795841217041
1713358565855001600,5.057001708984375,0.6226596832275391,2.913300037384033,-3.1543898582458496
1713358565864950300,5.0669501953125,0.5238690376281738,2.620804786682129,-2.771991729736328
1713358565874929400,5.076929443359375,0.09378576278686523,2.571563720703125,-2.782850742340088
1713358565884908800,5.08690869140625,-0.855318546295166,2.546846866607666,-2.7745718955993652
1713358565894857500,5.096857421875,-1.9955112934112549,2.4123058319091797,-2.5833873748779297
1713358565904836900,5.1068369140625,-2.9675076007843018,2.4518580436706543,-1.8783693313598633
1713358565914816000,5.11681591796875,-3.475247859954834,2.6137094497680664,-1.0922670364379883
1713358565924764700,5.1267646484375,-3.3607168197631836,2.651853561401367,0.0697622299194336
1713358565934744000,5.136744140625,-3.062875270843506,2.692260265350342,1.762303352355957
1713358565944692700,5.146692626953125,-2.6105546951293945,2.4921560287475586,3.6582865715026855
1713358565954671900,5.156671875,-1.9543555974960327,2.0416131019592285,5.333827972412109
1713358565964651300,5.1666513671875,-1.3988627195358276,1.1139001846313477,6.16510009765625
1713358565974600000,5.176599853515625,-1.606586217880249,-0.5895471572875977,6.568583011627197
1713358565984579000,5.1865791015625,-2.166224241256714,-2.308040142059326,7.060947418212891
1713358565994558500,5.196558349609375,-1.4711387157440186,-4.036275863647461,5.707101345062256
1713358566004507100,5.206507080078125,-1.0774915218353271,-6.032870292663574,1.296809196472168
1713358566014486500,5.216486572265625,-2.324622869491577,-7.488463401794434,-2.76393461227417
1713358566024465700,5.226465576171875,-4.60118293762207,-6.008723258972168,-3.6308093070983887
1713358566034414300,5.236414306640625,-6.3026838302612305,-2.7666172981262207,-2.2250733375549316
1713358566044393700,5.246393798828125,-6.502209663391113,0.7123327255249023,0.2202754020690918
1713358566054372900,5.256372802734375,-6.834173679351807,1.3936896324157715,2.6324820518493652
1713358566064352000,5.26635205078125,-5.1823577880859375,-1.1803593635559082,3.959284782409668
1713358566074301000,5.276301025390625,-1.4425113201141357,-4.460819244384766,4.261804580688477
1713358566084280000,5.286280029296875,1.577275037765503,-7.874556064605713,5.38991641998291
1713358566094259500,5.296259521484375,5.063841342926025,-11.006574630737305,4.43051815032959
1713358566104208100,5.3062080078125,8.844754219055176,-10.556133270263672,3.269486427307129
1713358566114187300,5.316187255859375,8.0646333694458,-4.807818412780762,1.191911220550537
1713358566124166700,5.326166748046875,2.050236701965332,0.25987863540649414,-1.8960247039794922
1713358566134145800,5.336145751953125,-1.1759366989135742,1.5934185981750488,-3.781789779663086
1713358566144094500,5.346094482421875,0.32255053520202637,2.097963333129883,-4.522216320037842
1713358566154073900,5.356073974609375,3.6650636196136475,3.479837417602539,-2.9062771797180176
1713358566164022500,5.3660224609375,5.711163520812988,4.590763568878174,-1.2263884544372559
1713358566174001700,5.376001708984375,6.203907012939453,5.061515808105469,0.9480104446411133
1713358566183981000,5.38598095703125,7.002667427062988,4.502971649169922,1.6475286483764648
1713358566193929700,5.3959296875,7.826435089111328,3.2001194953918457,1.3842639923095703
1713358566203909000,5.4059091796875,8.478142738342285,1.5846829414367676,0.7663679122924805
1713358566213888300,5.41588818359375,6.864422798156738,-0.6066312789916992,-0.42710351943969727
1713358566223837000,5.4258369140625,3.1709258556365967,-2.8256869316101074,-1.4678864479064941
1713358566233816300,5.43581640625,-0.11516118049621582,-3.278326988220215,-2.035825252532959
1713358566243795500,5.44579541015625,-1.6109222173690796,-2.3603434562683105,-3.4707913398742676
1713358566253744000,5.455744140625,-1.6441757678985596,-0.771355152130127,-4.862626075744629
1713358566263723500,5.4657236328125,-0.5623997449874878,0.4927177429199219,-5.159304618835449
1713358566273702700,5.47570263671875,0.6141467094421387,1.0890145301818848,-4.712045669555664
1713358566283651300,5.4856513671875,1.2819100618362427,1.2732696533203125,-3.9679031372070312
1713358566293630700,5.495630615234375,1.3549169301986694,1.1041135787963867,-3.408170223236084
1713358566303579400,5.505579345703125,1.7449270486831665,0.5290894508361816,-1.4590344429016113
1713358566313558800,5.515558837890625,2.4791340827941895,-0.5535540580749512,1.0364713668823242
1713358566323538000,5.525537841796875,3.1419496536254883,-1.6283316612243652,3.3701882362365723
1713358566333517000,5.53551708984375,2.565072774887085,-1.9473676681518555,4.062528133392334
1713358566343466000,5.545466064453125,1.024946689605713,-0.8962364196777344,2.443586826324463
1713358566353445000,5.555445068359375,-0.11819183826446533,0.3788480758666992,0.25589942932128906
1713358566363424500,5.565424560546875,-0.11830919981002808,1.1121134757995605,-0.8000798225402832
1713358566373403600,5.575403564453125,0.11753076314926147,1.5606131553649902,-1.453500747680664
1713358566383352300,5.585352294921875,0.2815394401550293,1.782270908355713,-1.6244559288024902
1713358566393331700,5.595331787109375,0.5050585269927979,1.749678611755371,-1.2450294494628906
1713358566403310800,5.605310791015625,0.3915133476257324,1.7515883445739746,-0.530491828918457
1713358566413259500,5.615259521484375,0.11804318428039551,1.7248811721801758,-0.005754947662353516
1713358566423239000,5.625239013671875,-0.06397426128387451,1.7437553405761719,-0.021099567413330078
1713358566433218000,5.635218017578125,0.0636364221572876,2.0488061904907227,-0.6279349327087402
1713358566443166700,5.645166748046875,0.3850870728492737,2.103990077972412,-0.023110389709472656
1713358566453146000,5.65514599609375,-0.5081237554550171,2.196958541870117,-1.1054773330688477
1713358566463125200,5.665125244140625,-0.8397212028503418,1.873582363128662,-1.6949734687805176
1713358566473074000,5.675073974609375,-1.0369058847427368,1.3596887588500977,-1.6757116317749023
1713358566483053300,5.68505322265625,-1.2918345928192139,1.1479835510253906,-1.1443991661071777
1713358566493032400,5.695032470703125,-1.0007307529449463,0.8604340553283691,-0.7949047088623047
1713358566502981400,5.7049814453125,-1.0020722150802612,0.4561433792114258,-0.417299747467041
1713358566512960500,5.71496044921875,-1.428251028060913,0.08090591430664062,-0.35275936126708984
1713358566522909200,5.7249091796875,-1.6721559762954712,-0.24695777893066406,0.7984127998352051
1713358566532888600,5.734888671875,-2.1157357692718506,-0.1588606834411621,2.7062230110168457
1713358566542867700,5.74486767578125,-2.6452972888946533,0.6760425567626953,2.990361213684082
1713358566552816400,5.75481640625,-1.759371042251587,1.8733134269714355,4.113421440124512
1713358566562795800,5.764795654296875,-0.8995469808578491,2.937777519226074,4.990771293640137
1713358566572775000,5.77477490234375,-0.7620842456817627,3.939781665802002,5.3316192626953125
1713358566582723600,5.7847236328125,-0.3866056203842163,4.814926624298096,5.402096271514893
1713358566592703000,5.794702880859375,0.9808123111724854,5.300677299499512,5.1362690925598145
1713358566602682000,5.80468212890625,1.9150141477584839,5.823724746704102,4.467345714569092
1713358566612661500,5.81466162109375,2.5895605087280273,5.320547103881836,5.274832248687744
1713358566622610200,5.824610107421875,1.5321698188781738,3.7783455848693848,5.035118579864502
1713358566632589300,5.83458935546875,0.16643770039081573,1.574915885925293,5.678281307220459
1713358566642568700,5.844568603515625,-0.6527034044265747,-0.6374030113220215,5.469898223876953
1713358566652547800,5.8545478515625,-0.5256770849227905,-1.8021869659423828,5.2210187911987305
1713358566662496800,5.864496826171875,0.07413500547409058,-1.8599677085876465,5.445679187774658
1713358566672476000,5.874475830078125,-0.8646730780601501,-1.9837923049926758,4.752138614654541
1713358566682455000,5.884455078125,-0.45480501651763916,-3.0716519355773926,3.5397396087646484
1713358566692404000,5.894404052734375,0.6541210412979126,-3.2190990447998047,3.2522811889648438
1713358566702383000,5.904383056640625,1.1709319353103638,-3.0834593772888184,1.584033489227295
1713358566712362500,5.914362548828125,1.7006020545959473,-3.4549708366394043,-0.3539719581604004
1713358566722311200,5.924311279296875,2.1033496856689453,-3.9242959022521973,-2.2091307640075684
1713358566732290300,5.934290283203125,1.6715152263641357,-3.958005428314209,-3.4740443229675293
1713358566742269700,5.944269775390625,0.48636144399642944,-4.1208930015563965,-4.704617977142334
1713358566752218400,5.95421826171875,0.19418400526046753,-4.542661666870117,-5.66990327835083
1713358566762197500,5.964197509765625,0.46835803985595703,-4.772685527801514,-5.478233337402344
1713358566772146400,5.974146484375,-0.09504565596580505,-5.243255138397217,-4.556637287139893
1713358566782125600,5.98412548828125,-1.1624879837036133,-5.901510715484619,-2.9642834663391113
1713358566792104700,5.994104736328125,-1.237349510192871,-6.019864082336426,-1.1674485206604004
1713358566802053600,6.0040537109375,0.2016213983297348,-5.65565824508667,-0.36008167266845703
1713358566812032800,6.01403271484375,2.5379514694213867,-4.977985382080078,0.13682842254638672
1713358566822012200,6.02401220703125,3.9197661876678467,-3.8590216636657715,0.4237089157104492
1713358566831960800,6.0339609375,3.9085347652435303,-2.8585805892944336,-0.024959564208984375
1713358566841940000,6.04393994140625,2.4736714363098145,-2.1359305381774902,0.10650300979614258
1713358566851919400,6.05391943359375,0.6005409359931946,-1.5829739570617676,0.6308803558349609
1713358566861868000,6.063867919921875,0.2817718982696533,-1.1834053993225098,1.1312065124511719
1713358566871847200,6.07384716796875,0.4582156538963318,-0.7651867866516113,1.849489688873291
1713358566881796000,6.083796142578125,1.1493251323699951,-0.1022191047668457,2.5200514793395996
1713358566891775200,6.093775146484375,0.7842776775360107,0.46650028228759766,2.002257823944092
1713358566901754400,6.10375439453125,0.03163677453994751,1.1542115211486816,1.8940825462341309
1713358566911733800,6.113733642578125,0.1276252269744873,1.547898292541504,0.9820694923400879
1713358566921713000,6.123712890625,0.4724985361099243,1.526418685913086,0.0819559097290039
1713358566931661600,6.13366162109375,0.7812597751617432,0.9790635108947754,-1.0908422470092773
1713358566941641000,6.143640869140625,1.0719033479690552,0.7924098968505859,-1.8136768341064453
1713358566951620000,6.1536201171875,1.3520581722259521,1.1474342346191406,-2.2558999061584473
1713358566961569000,6.163569091796875,1.6827492713928223,1.2261810302734375,-2.665121555328369
1713358566971548200,6.173548095703125,1.9604969024658203,1.5758090019226074,-2.762608528137207
1713358566981527300,6.18352734375,2.063080310821533,2.1830506324768066,-2.997744560241699
1713358566991506700,6.193506591796875,2.184788465499878,2.5727758407592773,-3.520585060119629
1713358567001455400,6.203455322265625,2.1257805824279785,2.9803991317749023,-4.041070461273193
1713358567011434800,6.213434814453125,1.927548885345459,3.1620678901672363,-4.277888298034668
1713358567021383400,6.223383544921875,1.5038301944732666,3.1231493949890137,-4.613607406616211
1713358567031362600,6.233362548828125,1.3556275367736816,2.963563919067383,-5.049001216888428
1713358567041342000,6.243342041015625,1.2224774360656738,2.8429250717163086,-5.300602912902832
1713358567051290600,6.25329052734375,1.01676344871521,2.8320364952087402,-5.30357027053833
1713358567061269800,6.263269775390625,0.8239479064941406,2.7803211212158203,-4.961422920227051
1713358567071249200,6.273249267578125,0.6810276508331299,2.5781736373901367,-4.35659646987915
1713358567081197800,6.28319775390625,0.2644028663635254,2.3636398315429688,-3.9705142974853516
1713358567091177000,6.293177001953125,-0.5502920150756836,2.1660122871398926,-3.6961236000061035
1713358567101156400,6.30315625,-1.6987278461456299,1.887899398803711,-3.305985450744629
1713358567111105000,6.31310498046875,-2.8640174865722656,1.569570541381836,-2.826855182647705
1713358567121084400,6.32308447265625,-3.6770973205566406,1.175321102142334,-2.1497788429260254
1713358567131033000,6.333033203125,-3.5773775577545166,0.7232494354248047,-0.9325761795043945
1713358567141012200,6.34301220703125,-3.293893814086914,0.32782554626464844,1.0714340209960938
1713358567150991600,6.35299169921875,-2.9016313552856445,-0.041826725006103516,3.4357447624206543
1713358567160940300,6.362940185546875,-1.9647281169891357,-0.6778607368469238,5.845613479614258
1713358567170919400,6.37291943359375,-1.1455409526824951,-1.8090834617614746,7.303186893463135
1713358567180898800,6.38289892578125,-0.7657135725021362,-3.3034706115722656,7.473573207855225
1713358567190878000,6.3928779296875,-0.9212453365325928,-4.434399127960205,5.730602741241455
1713358567200826600,6.40282666015625,-1.1505134105682373,-3.9380245208740234,2.9571499824523926
1713358567210806000,6.412805908203125,-2.105661153793335,-2.775059223175049,0.7950072288513184
1713358567220785200,6.42278515625,-3.255436420440674,-1.309586524963379,-0.6352057456970215
1713358567230764500,6.4327646484375,-4.36088752746582,0.7020754814147949,-0.9405941963195801
1713358567240713200,6.442713134765625,-5.208380699157715,2.975529193878174,-0.28241872787475586
1713358567250692400,6.4526923828125,-6.748839855194092,4.098296165466309,1.4756274223327637
1713358567260671700,6.462671630859375,-8.121725082397461,1.6703643798828125,3.9679737091064453
1713358567270620400,6.472620361328125,-5.754854202270508,-3.1184616088867188,5.277886867523193
1713358567280599800,6.482599853515625,-0.3326265811920166,-7.216248035430908,6.043865203857422
1713358567290579000,6.492578857421875,4.604269027709961,-12.025861740112305,6.304734706878662
1713358567300527600,6.502527587890625,9.282649993896484,-14.871368408203125,4.0188398361206055
1713358567310507000,6.512507080078125,11.8402099609375,-10.81132984161377,1.445937156677246
1713358567320486100,6.522486083984375,5.989530563354492,-4.061525821685791,0.3337240219116211
1713358567330434800,6.532434814453125,-2.61734938621521,-0.8111319541931152,-2.37994384765625
1713358567340414200,6.542414306640625,-4.325385093688965,1.2069358825683594,-5.686178684234619
1713358567350393300,6.552393310546875,-0.8712131977081299,3.242706298828125,-6.836521148681641
1713358567360342000,6.562342041015625,3.353663206100464,3.5506224632263184,-5.92603874206543
1713358567370321400,6.5723212890625,5.980873107910156,3.455840587615967,-5.115158557891846
1713358567380270000,6.58227001953125,7.4214372634887695,3.9895429611206055,-2.502835750579834
1713358567390249200,6.592249267578125,8.664312362670898,3.8020529747009277,-0.2606849670410156
1713358567400228600,6.602228515625,9.1143217086792,2.7110652923583984,1.4454479217529297
1713358567410177300,6.61217724609375,7.098882675170898,-0.03180742263793945,1.6345343589782715
1713358567420156700,6.62215673828125,2.91072940826416,-3.7535605430603027,0.3972640037536621
1713358567430135800,6.6321357421875,-1.0878421068191528,-5.191094398498535,-0.2020559310913086
1713358567440084500,6.64208447265625,-2.598379611968994,-3.586544990539551,-1.316026210784912
1713358567450064000,6.65206396484375,-1.602711796760559,-0.9653477668762207,-2.981600761413574
1713358567460043000,6.66204296875,0.16988825798034668,0.6763372421264648,-4.435301303863525
1713358567469991700,6.67199169921875,1.3173080682754517,1.59431791305542,-5.2163496017456055
1713358567479971000,6.68197119140625,1.7970777750015259,2.014866828918457,-5.049331188201904
1713358567489950200,6.6919501953125,2.0248799324035645,1.9897303581237793,-4.435989856719971
1713358567499929600,6.7019296875,2.6359288692474365,1.3991508483886719,-3.1542129516601562
1713358567509878300,6.711878173828125,3.095036029815674,0.4032754898071289,-0.6344199180603027
1713358567519857400,6.721857421875,2.595851182937622,-0.9093289375305176,2.9794464111328125
1713358567529836800,6.7318369140625,1.1351563930511475,-1.8005642890930176,5.912746906280518
1713358567539785500,6.741785400390625,-0.5210614800453186,-1.1150693893432617,5.646492004394531
1713358567549764600,6.7517646484375,-1.281064510345459,0.09090566635131836,2.2484397888183594
1713358567559744000,6.761743896484375,-1.5948185920715332,0.20263910293579102,-0.2285752296447754
1713358567569723100,6.77172314453125,-1.4363431930541992,0.45838499069213867,-0.5827221870422363
1713358567579672000,6.781672119140625,-1.2600570917129517,1.112199306488037,-0.15137863159179688
1713358567589651200,6.791651123046875,-0.6553417444229126,1.3472495079040527,-0.541020393371582
1713358567599630300,6.80163037109375,-0.004399210214614868,1.7534422874450684,-0.9032497406005859
1713358567609579300,6.811579345703125,-0.2904004454612732,2.0193681716918945,-0.7801475524902344
1713358567619558400,6.821558349609375,-0.42825204133987427,2.179363250732422,-0.6668143272399902
1713358567629507000,6.831507080078125,-0.07988125085830688,2.2442784309387207,-0.7725071907043457
1713358567639486500,6.841486572265625,0.1343250572681427,2.082998752593994,-1.2113895416259766
1713358567649465600,6.851465576171875,-0.6476109027862549,2.039858818054199,-1.400123119354248
1713358567659414300,6.861414306640625,-1.5950982570648193,1.742304801940918,-1.71854829788208
1713358567669393700,6.8713935546875,-1.5756499767303467,1.3755955696105957,-1.9981751441955566
1713358567679372800,6.881372802734375,-1.2639776468276978,1.263023853302002,-1.9876976013183594
1713358567689321700,6.89132177734375,-1.834617018699646,1.3670134544372559,-1.6479692459106445
1713358567699300900,6.90130078125,-1.6578223705291748,1.2220630645751953,-0.9693317413330078
1713358567709280000,6.911280029296875,-1.504207730293274,1.088716983795166,0.22601842880249023
1713358567719229000,6.92122900390625,-2.534466505050659,1.134866714477539,1.381495475769043
1713358567729208000,6.9312080078125,-2.496617078781128,1.2505836486816406,2.6167869567871094
1713358567739156700,6.94115673828125,-2.761566638946533,1.735264778137207,4.041890621185303
1713358567749136100,6.95113623046875,-1.6413007974624634,2.984546184539795,5.230635643005371
1713358567759115300,6.961115234375,-0.11228863894939423,3.691091537475586,5.646487712860107
1713358567769094700,6.9710947265625,-0.18186813592910767,3.786043643951416,5.588572025299072
1713358567779073800,6.98107373046875,0.08050628006458282,3.9646167755126953,5.111825466156006
1713358567789022500,6.9910224609375,0.9021000266075134,4.235605716705322,4.477882385253906
1713358567799001900,7.001001953125,1.1715631484985352,4.181270122528076,3.750661849975586
1713358567808981000,7.01098095703125,0.9458825588226318,3.4676198959350586,4.100131988525391
1713358567818929700,7.0209296875,0.37817585468292236,2.1016921997070312,4.24660587310791
1713358567828909000,7.030908935546875,-1.4063273668289185,0.7387399673461914,2.707742214202881
1713358567838875000,7.040875,-2.0694379806518555,-0.7428689002990723,3.0295677185058594
1713358567848854000,7.05085400390625,-3.8278589248657227,-1.8509597778320312,3.8123722076416016
1713358567858803000,7.060802978515625,-3.405409574508667,-2.5004491806030273,3.92673921585083
1713358567868782000,7.070781982421875,-1.351279616355896,-2.2147083282470703,3.194340705871582
1713358567878730800,7.080730712890625,0.7334133982658386,-0.9637951850891113,2.147127628326416
1713358567888710100,7.090710205078125,3.0725901126861572,-0.3510093688964844,2.785808563232422
1713358567898689300,7.100689208984375,3.5146307945251465,-0.5542769432067871,2.556213855743408
1713358567908638000,7.110637939453125,3.0580437183380127,-1.4886016845703125,0.7181229591369629
1713358567918617300,7.120617431640625,2.6043951511383057,-2.860840320587158,-1.2789502143859863
1713358567928596500,7.130596435546875,2.264213800430298,-4.200333595275879,-2.0965576171875
1713358567938545400,7.14054541015625,1.0672607421875,-5.262405872344971,-3.262159824371338
1713358567948524500,7.150524658203125,-0.815628707408905,-6.325511455535889,-5.170327186584473
1713358567958503700,7.160503662109375,-1.6197243928909302,-6.872193336486816,-5.699145793914795
1713358567968452600,7.17045263671875,-1.933496356010437,-7.182923793792725,-4.849215507507324
1713358567978431700,7.180431640625,-2.099283456802368,-7.293270111083984,-2.7706265449523926
1713358567988380400,7.19038037109375,-1.9577654600143433,-7.004202365875244,-1.113105297088623
1713358567998359800,7.20035986328125,-0.31045252084732056,-6.487165451049805,0.10181713104248047
1713358568008339000,7.2103388671875,2.2626891136169434,-5.674943923950195,0.5715079307556152
1713358568018287600,7.22028759765625,4.446598529815674,-4.469743728637695,0.23450469970703125
1713358568028267000,7.23026708984375,5.405216693878174,-2.7145137786865234,-0.26519012451171875
1713358568038246100,7.24024609375,3.7533974647521973,-1.2256994247436523,-0.48410797119140625
1713358568048225500,7.2502255859375,0.883062481880188,-0.36556005477905273,0.2303471565246582
1713358568058174200,7.26017431640625,-1.3670954704284668,-0.2648940086364746,1.176529884338379
1713358568068153300,7.2701533203125,-1.3312790393829346,-0.14481306076049805,3.523688793182373
1713358568078132700,7.2801328125,-0.9242770671844482,-0.7281002998352051,3.9080348014831543
1713358568088111900,7.29011181640625,-0.4923393130302429,-1.322509765625,3.297471046447754
1713358568098060800,7.300060791015625,-0.044421613216400146,-1.5892224311828613,1.8722810745239258
1713358568108040000,7.3100400390625,0.4166445732116699,-1.5820789337158203,0.5526580810546875
1713358568118019000,7.32001904296875,0.6909383535385132,-1.3121824264526367,-0.6865334510803223
1713358568127968000,7.329968017578125,0.9881099462509155,-0.8218588829040527,-1.8284049034118652
1713358568137947100,7.339947021484375,1.4089285135269165,-0.01502084732055664,-3.332576274871826
1713358568147926500,7.349926513671875,0.9732025861740112,1.331162929534912,-2.4884233474731445
1713358568157875200,7.359875244140625,1.3058565855026245,1.8582658767700195,-2.8897252082824707
1713358568167854300,7.369854248046875,1.6386054754257202,2.3273353576660156,-2.9919662475585938
1713358568177833700,7.379833740234375,1.9952667951583862,2.672318935394287,-3.0689139366149902
1713358568187782400,7.389782470703125,2.1185202598571777,2.9573183059692383,-3.6164050102233887
1713358568197761500,7.399761474609375,2.1459593772888184,3.1870765686035156,-4.043558120727539
1713358568207710500,7.40971044921875,1.9918910264968872,3.4127378463745117,-4.406889915466309
1713358568217689600,7.419689697265625,1.5808871984481812,3.5324997901916504,-4.970794200897217
1713358568227668700,7.429668701171875,0.9050247669219971,3.5771870613098145,-5.120551586151123
1713358568237617700,7.43961767578125,0.2777855396270752,3.63336181640625,-5.298110485076904
1713358568247596800,7.4495966796875,-0.03842473030090332,3.283682346343994,-4.990160942077637
1713358568257576000,7.459575927734375,0.13361096382141113,3.058967113494873,-4.426296234130859
1713358568267524900,7.46952490234375,0.3475639820098877,2.9809141159057617,-4.234023094177246
1713358568277504000,7.47950390625,0.20507216453552246,3.0372676849365234,-4.124414443969727
1713358568287483400,7.4894833984375,-0.6112642288208008,3.0708680152893066,-4.11018180847168
1713358568297432000,7.49943212890625,-1.9774973392486572,2.9992423057556152,-3.9555110931396484
1713358568307411200,7.5094111328125,-3.3399627208709717,2.8554539680480957,-3.5048818588256836
1713358568317359900,7.51935986328125,-3.9574694633483887,2.791386604309082,-2.270984649658203
1713358568327339300,7.52933935546875,-3.0105361938476562,2.780038833618164,-0.2985110282897949
1713358568337318400,7.539318359375,-1.1935616731643677,2.3925724029541016,1.8152985572814941
1713358568347297800,7.5492978515625,0.028778791427612305,1.316300868988037,3.9190115928649902
1713358568357277000,7.55927685546875,-0.4684230089187622,-0.45763731002807617,5.815401077270508
1713358568367225600,7.5692255859375,-1.2779924869537354,-2.6437559127807617,6.728006839752197
1713358568377205000,7.579205078125,-1.745806336402893,-4.721735954284668,6.406053066253662
1713358568387184000,7.58918408203125,-2.2566027641296387,-6.621586322784424,4.674933433532715
1713358568397133000,7.599133056640625,-2.2979774475097656,-8.02039909362793,1.436471939086914
1713358568407112200,7.6091123046875,-3.334786891937256,-7.413951396942139,-1.4896512031555176
1713358568417091300,7.61909130859375,-5.150017738342285,-4.141453742980957,-2.177450180053711
1713358568427070700,7.62907080078125,-6.099724292755127,0.20287513732910156,-1.011549949645996
1713358568437019400,7.639019287109375,-6.600798606872559,3.4506258964538574,0.12860679626464844
1713358568446998800,7.648998779296875,-6.7624406814575195,4.470528602600098,1.2315354347229004
1713358568456947500,7.658947509765625,-5.705422401428223,1.9792370796203613,2.834789752960205
1713358568466926600,7.668926513671875,-3.5272345542907715,-3.3680672645568848,3.5068182945251465
1713358568476906000,7.678906005859375,-0.7925674915313721,-8.410871505737305,4.850412368774414
1713358568486854700,7.688854736328125,0.5583961009979248,-11.706296920776367,7.958608150482178
1713358568496833800,7.698833740234375,4.51495361328125,-13.043712615966797,7.960034370422363
1713358568506813200,7.708813232421875,8.856790542602539,-8.996661186218262,4.450705051422119
1713358568516761900,7.718761962890625,6.503682613372803,-1.445298194885254,0.5484580993652344
1713358568526741000,7.728740966796875,0.3924252986907959,2.6258740425109863,-3.3567399978637695
1713358568536720400,7.738720458984375,-0.7800333499908447,3.765353202819824,-4.842446327209473
1713358568546669000,7.7486689453125,2.444056749343872,3.6511240005493164,-3.8138465881347656
1713358568556648400,7.7586484375,4.591851234436035,2.84720516204834,-2.7430901527404785
1713358568566627600,7.768627685546875,4.372014045715332,2.776334285736084,-1.3115744590759277
1713358568576576300,7.778576171875,4.19819450378418,2.887968063354492,0.015195846557617188
1713358568586555600,7.7885556640625,5.507500171661377,2.7825427055358887,1.3908071517944336
1713358568596504300,7.79850439453125,7.591308116912842,2.478205680847168,2.335155487060547
1713358568606483500,7.8084833984375,8.348716735839844,1.3217406272888184,2.28812837600708
1713358568616462800,7.818462890625,7.828492164611816,-0.4791269302368164,1.612703800201416
1713358568626442000,7.82844189453125,4.233506679534912,-2.389162063598633,0.6313238143920898
1713358568636421400,7.83842138671875,-0.09829020500183105,-2.572795867919922,-0.4976768493652344
1713358568646370000,7.8483701171875,-1.7586718797683716,-1.1157350540161133,-2.2687902450561523
1713358568656349200,7.85834912109375,-1.0307945013046265,0.31433582305908203,-3.767498016357422
1713358568666328600,7.86832861328125,-0.25627458095550537,0.7956476211547852,-5.303604602813721
1713358568676277200,7.87827734375,-0.18762409687042236,0.818507194519043,-5.284552574157715
1713358568686256400,7.88825634765625,-0.6474255323410034,0.20962190628051758,-4.814799785614014
1713358568696235800,7.89823583984375,-0.5959278345108032,-0.4397916793823242,-4.191312313079834
1713358568706184400,7.908184326171875,0.021445631980895996,-0.6962957382202148,-2.4363460540771484
1713358568716163600,7.91816357421875,1.2122975587844849,-0.894474983215332,-0.12582921981811523
1713358568726143000,7.92814306640625,1.9027091264724731,-1.1905856132507324,1.0691657066345215
1713358568736091600,7.938091552734375,2.0086312294006348,-0.7327675819396973,1.8819208145141602
1713358568746071000,7.948071044921875,2.1034626960754395,0.20318174362182617,2.477229118347168
1713358568756050200,7.95805029296875,1.3952224254608154,1.178727149963379,1.8623361587524414
1713358568765998800,7.967998779296875,0.5205326080322266,2.0089244842529297,0.3306565284729004
1713358568775978200,7.977978271484375,0.23885655403137207,2.2400622367858887,-1.3588314056396484
1713358568785957400,7.987957275390625,0.2970534563064575,2.0253396034240723,-2.6091713905334473
1713358568795906000,7.997906005859375,0.08825033903121948,1.6541223526000977,-2.920454502105713
1713358568805885400,8.007885498046875,-0.5017688870429993,1.197892665863037,-2.123619556427002
1713358568815864600,8.017864501953126,-0.9117714166641235,0.8009152412414551,-0.7655115127563477
1713358568825813200,8.027813232421876,-0.976222574710846,0.7444062232971191,0.15322589874267578
1713358568835792600,8.037792724609375,-0.7784845232963562,1.0905346870422363,0.15945005416870117
1713358568845741300,8.0477412109375,-0.41001802682876587,1.7063508033752441,-0.20328855514526367
1713358568855720700,8.057720703125,-0.5396442413330078,2.287003993988037,-0.7174801826477051
1713358568865699800,8.067699951171875,-0.6074587106704712,2.5166587829589844,-0.8217644691467285
1713358568875648500,8.0776484375,-0.45221394300460815,2.3968615531921387,-0.42855262756347656
1713358568885628000,8.0876279296875,-0.9837772846221924,2.166274070739746,-0.06992816925048828
1713358568895607000,8.09760693359375,-1.3661686182022095,1.9364261627197266,0.155792236328125
1713358568905586400,8.10758642578125,-1.2882270812988281,1.724168300628662,0.32579612731933594
1713358568915535000,8.11753515625,-1.230356216430664,1.5141000747680664,0.41550636291503906
1713358568925514200,8.12751416015625,-2.014943838119507,1.3428168296813965,0.48346471786499023
1713358568935493600,8.13749365234375,-2.35859751701355,1.350893497467041,0.6916251182556152
1713358568945472800,8.14747265625,-1.6100202798843384,1.4005217552185059,1.235954761505127
1713358568955421400,8.15742138671875,-1.331670880317688,1.5800886154174805,2.1959033012390137
1713358568965400800,8.16740087890625,-1.1864962577819824,2.1248297691345215,3.444148540496826
1713358568975380000,8.1773798828125,-0.46317824721336365,2.5386624336242676,4.686677932739258
1713358568985328600,8.18732861328125,-0.5329655408859253,3.0467886924743652,5.827617645263672
1713358568995308000,8.19730810546875,-0.04239638149738312,3.825368881225586,6.098128795623779
1713358569005287200,8.207287109375,1.4011913537979126,4.6207594871521,5.854703426361084
1713358569015236000,8.217236083984375,1.9954887628555298,4.530891418457031,5.117610931396484
1713358569025215200,8.22721533203125,0.4302157759666443,3.4674291610717773,5.047080993652344
1713358569035194400,8.2371943359375,-0.620006263256073,1.4146857261657715,5.2252397537231445
1713358569045143300,8.247143310546875,-1.6915295124053955,-0.7195925712585449,4.823291301727295
1713358569055122400,8.257122314453126,-2.264756202697754,-1.6204547882080078,4.981285095214844
1713358569065101800,8.267101806640625,-1.538926124572754,-1.5432019233703613,5.726352214813232
1713358569075050500,8.277050537109375,0.6227524876594543,-1.132300853729248,4.458069801330566
1713358569085029600,8.287029541015626,1.1188347339630127,-1.2718820571899414,2.6579442024230957
1713358569094978300,8.296978271484376,1.5380264520645142,-1.788827896118164,3.223069190979004
1713358569104957700,8.306957763671875,3.232210636138916,-2.187725067138672,2.2697057723999023
1713358569114936800,8.316936767578126,2.8496780395507812,-3.0480246543884277,0.25415706634521484
1713358569124885800,8.3268857421875,1.2182223796844482,-4.334231853485107,-1.5090107917785645
1713358569134865000,8.336864990234375,0.7257966995239258,-5.269436836242676,-3.3279175758361816
1713358569144844000,8.346843994140626,-0.024257302284240723,-5.4218854904174805,-4.770467758178711
1713358569154793000,8.35679296875,-0.9926533699035645,-5.317910671234131,-5.4455037117004395
1713358569164772000,8.366772216796875,-1.0288255214691162,-5.1850738525390625,-4.940339088439941
1713358569174751200,8.376751220703126,-1.3182814121246338,-5.273693084716797,-3.6388697624206543
1713358569184700200,8.3867001953125,-1.5248169898986816,-5.440558910369873,-1.6292972564697266
1713358569194679300,8.39667919921875,-0.7693215608596802,-5.590591907501221,0.03750753402709961
1713358569204658700,8.40665869140625,1.3582860231399536,-5.697183609008789,0.7223553657531738
1713358569214637800,8.416637939453125,3.7398555278778076,-5.315492153167725,0.4584970474243164
1713358569224586500,8.42658642578125,4.914906024932861,-4.199728488922119,0.03157806396484375
1713358569234566000,8.43656591796875,4.23510217666626,-2.656318187713623,-0.19434022903442383
1713358569244545000,8.446544921875,2.134490489959717,-1.1851940155029297,-0.46085071563720703
1713358569254493700,8.45649365234375,-0.3126140832901001,-0.6860213279724121,-0.2201085090637207
1713358569264473000,8.46647314453125,-1.5691871643066406,-0.4774899482727051,1.4130382537841797
1713358569274452200,8.4764521484375,-1.4521797895431519,-0.6741948127746582,2.807722568511963
1713358569284431600,8.486431640625,-0.9741992950439453,-0.7104229927062988,3.661038875579834
1713358569294380300,8.49638037109375,-0.7076373100280762,-0.8225603103637695,3.5807547569274902
1713358569304359400,8.506359375,-0.2893269658088684,-0.6631350517272949,2.5029892921447754
1713358569314338800,8.5163388671875,0.07008814811706543,-0.5326371192932129,1.156771183013916
1713358569324287500,8.52628759765625,0.5573604106903076,-0.34157609939575195,-0.07896852493286133
1713358569334266600,8.5362666015625,1.168458104133606,0.16852140426635742,-1.4168643951416016
1713358569344215600,8.546215576171875,1.8006290197372437,0.8784980773925781,-2.630188465118408
1713358569354194700,8.556194580078126,1.8391728401184082,2.003676414489746,-2.4668540954589844
1713358569364174000,8.566174072265625,2.4503912925720215,2.7925362586975098,-3.100940704345703
1713358569374122800,8.576122802734375,2.5881381034851074,3.442864418029785,-3.542257785797119
1713358569384102000,8.586101806640626,2.5954084396362305,3.6571011543273926,-4.202632427215576
1713358569394081300,8.596081298828125,2.3626744747161865,3.7408065795898438,-4.74198055267334
1713358569404030000,8.606030029296875,1.966194748878479,3.8711252212524414,-5.027469158172607
1713358569414009000,8.616009033203126,1.3488436937332153,3.987300395965576,-5.081233501434326
1713358569423988500,8.625988525390625,0.9899420738220215,3.6502504348754883,-4.6488518714904785
1713358569433937200,8.635937255859375,0.8465739488601685,3.738065242767334,-4.939112186431885
1713358569443916300,8.645916259765626,0.7342151403427124,3.668776512145996,-4.800552845001221
1713358569453865200,8.655865234375,0.564428448677063,3.5267372131347656,-4.397268295288086
1713358569463844400,8.66584423828125,0.30532658100128174,3.2748160362243652,-4.040843963623047
1713358569473823700,8.67582373046875,-0.21132194995880127,3.101269245147705,-3.809032917022705
1713358569483803000,8.685802978515625,-0.9509655237197876,2.81624698638916,-3.534773826599121
1713358569493782000,8.695781982421876,-2.0043792724609375,2.3340654373168945,-3.271595001220703
1713358569503731000,8.70573095703125,-3.227189540863037,1.8215551376342773,-2.889554500579834
1713358569513710000,8.7157099609375,-3.8570098876953125,1.3361096382141113,-2.0237741470336914
1713358569523689500,8.725689453125,-3.718259334564209,1.1239395141601562,-0.4101676940917969
1713358569533638100,8.73563818359375,-3.101316452026367,1.0807342529296875,1.8528523445129395
1713358569543617300,8.7456171875,-2.143421173095703,0.7837433815002441,4.05330228805542
1713358569553596700,8.7555966796875,-1.382999062538147,-0.361574649810791,5.799770355224609
1713358569563575800,8.765575927734375,-1.0969104766845703,-2.360335350036621,6.452941417694092
1713358569573524500,8.7755244140625,-1.1903494596481323,-4.570662498474121,5.542651176452637
1713358569583504000,8.78550390625,-1.6313475370407104,-6.51188325881958,3.724289894104004
1713358569593452500,8.79545263671875,-1.7853654623031616,-8.291719436645508,-0.0539088249206543
1713358569603431700,8.805431640625,-2.2417562007904053,-8.059416770935059,-3.4880189895629883
1713358569613411000,8.8154111328125,-4.263214111328125,-5.322152137756348,-3.94218111038208
1713358569623359700,8.82535986328125,-5.596584320068359,-1.1074838638305664,-1.672163486480713
1713358569633339000,8.8353388671875,-6.642521858215332,2.3588056564331055,0.8495979309082031
1713358569643318300,8.845318359375,-7.408933162689209,3.9215831756591797,2.1958088874816895
1713358569653267000,8.855266845703126,-7.244458198547363,2.2223610877990723,3.66671085357666
1713358569663246300,8.865246337890625,-4.473736763000488,-2.7931699752807617,4.419384479522705
1713358569673225500,8.8752255859375,0.9594178199768066,-6.80551290512085,5.638795375823975
1713358569683174100,8.885174072265626,3.086747646331787,-9.162229537963867,8.924745559692383
1713358569693153500,8.895153564453125,5.305947780609131,-10.209287643432617,9.056817054748535
1713358569703102200,8.905102294921875,8.681575775146484,-7.0222039222717285,4.138576507568359
1713358569713081300,8.915081298828126,7.028436660766602,-0.517357349395752,-0.9706573486328125
1713358569723060700,8.925060791015625,1.379382610321045,2.845139503479004,-4.496828079223633
1713358569733009400,8.935009521484375,-0.16045904159545898,3.0631942749023438,-5.756011486053467
1713358569742988500,8.944988525390626,2.141986608505249,2.756166458129883,-3.709714889526367
1713358569752968000,8.954968017578125,3.574587821960449,2.806804656982422,-1.2652978897094727
1713358569762947000,8.964947021484376,2.9110636711120605,2.974008083343506,0.23750591278076172
1713358569772896000,8.97489599609375,4.362548828125,3.1507744789123535,0.9693832397460938
1713358569782875100,8.984875244140625,6.761025428771973,3.2348203659057617,2.189040184020996
1713358569792854300,8.994854248046876,8.562273979187012,2.690143585205078,2.8747353553771973
1713358569802833700,9.004833740234375,9.910122871398926,1.8463807106018066,3.5966687202453613
1713358569812782300,9.0147822265625,8.735239028930664,-0.737511157989502,2.2157106399536133
1713358569822761700,9.02476171875,3.471895694732666,-3.198763847351074,-0.0931558609008789
1713358569832740900,9.034740966796875,-1.1791077852249146,-3.0679588317871094,-1.4114160537719727
1713358569842689500,9.044689453125,-2.270479679107666,-1.524731159210205,-2.8637290000915527
1713358569852669000,9.0546689453125,-1.6276311874389648,-0.24896812438964844,-4.407421112060547
1713358569862648000,9.06464794921875,-1.032530665397644,0.23855972290039062,-5.344151020050049
1713358569872596700,9.0745966796875,-0.5649256706237793,0.17711734771728516,-5.376068592071533
1713358569882576100,9.084576171875,-0.07280278205871582,-0.1125650405883789,-5.420070171356201
1713358569892555300,9.09455517578125,0.08168816566467285,-0.018095016479492188,-4.854814052581787
1713358569902504000,9.10450390625,0.5555307865142822,0.18684673309326172,-3.285128593444824
1713358569912483300,9.1144833984375,1.473994255065918,0.24826717376708984,-0.707517147064209
1713358569922462500,9.12446240234375,3.0278337001800537,0.009675025939941406,2.1366748809814453
1713358569932411400,9.134411376953125,3.8485727310180664,-0.3029513359069824,5.279303550720215
1713358569942390500,9.144390625,3.0174779891967773,-0.10728740692138672,6.531662464141846
1713358569952369700,9.15436962890625,1.0995492935180664,1.0151925086975098,3.190878391265869
1713358569962318600,9.164318603515625,-0.30042731761932373,1.9515056610107422,-1.6102967262268066
1713358569972297700,9.174297607421876,-0.2512637972831726,2.0021071434020996,-3.642465591430664
1713358569982246400,9.184246337890626,0.1776551604270935,2.0277881622314453,-4.162662506103516
1713358569992225800,9.194225830078125,-0.05514448881149292,2.1071462631225586,-4.355095863342285
1713358570002205000,9.204204833984376,-0.3444703221321106,2.051943778991699,-3.4322967529296875
1713358570012153600,9.214153564453126,-0.28653842210769653,1.6536459922790527,-1.501469612121582
1713358570022133000,9.224133056640625,-0.29506659507751465,1.3488407135009766,0.3175220489501953
1713358570032112000,9.234112060546876,-0.3502897024154663,1.4356985092163086,0.8900051116943359
1713358570042060800,9.244060791015626,-0.31884756684303284,1.6086511611938477,0.40658092498779297
1713358570052040200,9.254040283203125,-0.38198983669281006,1.6292200088500977,-0.14312744140625
1713358570062019300,9.264019287109376,-0.7790365219116211,1.587449073791504,-0.2345743179321289
1713358570071998700,9.273998779296875,-0.9848718643188477,1.5583786964416504,0.01502370834350586
1713358570081977900,9.283977783203126,-1.306838035583496,1.3786544799804688,0.2291398048400879
1713358570091926500,9.293926513671876,-1.6476749181747437,1.15533447265625,0.3834366798400879
1713358570101906000,9.303906005859375,-1.5335546731948853,0.8412227630615234,0.6243724822998047
1713358570111885000,9.313885009765626,-1.543980360031128,0.4496426582336426,0.9814968109130859
1713358570121834000,9.323833984375,-1.9759790897369385,0.2808971405029297,1.4795846939086914
1713358570131813000,9.333813232421875,-2.2776713371276855,0.5840945243835449,1.9135046005249023
1713358570141792300,9.343792236328126,-2.181241750717163,1.3942346572875977,2.600308418273926
1713358570151741200,9.3537412109375,-1.8024959564208984,2.459895133972168,3.541167736053467
1713358570161720300,9.36372021484375,-1.2554776668548584,3.3061580657958984,4.322548866271973
1713358570171699700,9.37369970703125,-0.5818142890930176,3.75203275680542,4.737042427062988
1713358570181648400,9.3836484375,0.22563762962818146,4.344902515411377,5.110396385192871
1713358570191627500,9.39362744140625,1.3687912225723267,5.02490758895874,5.357645034790039
1713358570201607000,9.40360693359375,2.441028356552124,5.013187408447266,5.165117263793945
1713358570211555600,9.4135556640625,1.8552953004837036,3.872114658355713,5.079372406005859
1713358570221534700,9.42353466796875,0.40562620759010315,2.0086770057678223,4.628333568572998
1713358570231483600,9.433483642578125,-1.8063267469406128,-0.4170355796813965,3.6181640625
1713358570241462800,9.443462890625,-3.689112663269043,-2.3154826164245605,3.4203433990478516
1713358570251442000,9.45344189453125,-5.113986968994141,-3.3571348190307617,3.7365269660949707
1713358570261390800,9.463390869140625,-4.484898090362549,-3.303511142730713,4.0641045570373535
1713358570271370000,9.473369873046876,-1.6154183149337769,-2.8739991188049316,3.770599842071533
1713358570281349400,9.483349365234375,0.8842172026634216,-1.7882356643676758,4.104609966278076
1713358570291298000,9.493298095703125,2.850980281829834,-0.7787485122680664,4.182560443878174
1713358570301277200,9.503277099609376,4.043827533721924,-0.5816183090209961,1.9151782989501953
1713358570311256600,9.513256591796875,3.811613082885742,-0.8438687324523926,-0.32897520065307617
1713358570321205200,9.523205322265625,2.9406652450561523,-1.4084415435791016,-1.7604951858520508
1713358570331184400,9.533184326171876,1.8474862575531006,-2.2017312049865723,-2.6000475883483887
1713358570341163800,9.543163818359375,0.851317822933197,-3.297304153442383,-3.208878517150879
1713358570351143000,9.553142822265626,-0.12498617172241211,-4.705894947052002,-3.2748231887817383
1713358570361091600,9.563091552734376,-1.3530080318450928,-5.925941467285156,-3.2294979095458984
1713358570371071000,9.573071044921875,-2.1330924034118652,-6.63043737411499,-2.4973645210266113
1713358570381050000,9.583050048828126,-2.2273662090301514,-6.925482749938965,-1.4598064422607422
1713358570390999000,9.5929990234375,-0.9386476278305054,-7.055078983306885,-0.7739729881286621
1713358570400978200,9.602978271484375,1.076213002204895,-6.7332353591918945,-0.37761640548706055
1713358570410957300,9.612957275390626,3.1135199069976807,-5.872199535369873,-0.7032890319824219
1713358570420936700,9.622936767578125,4.399995803833008,-4.290899276733398,-0.9278397560119629
1713358570430885400,9.632885498046875,3.700120449066162,-2.531426429748535,-0.899411678314209
1713358570440864500,9.642864501953126,2.2365622520446777,-1.203199863433838,-1.0124640464782715
1713358570450844000,9.652843994140625,0.6059513092041016,-0.3599586486816406,-0.17865324020385742
1713358570460792600,9.66279248046875,-0.7796506285667419,0.09705066680908203,1.591670036315918
1713358570470772000,9.67277197265625,-1.5986299514770508,0.2508816719055176,3.4372215270996094
1713358570480720600,9.682720703125,-1.3818118572235107,-0.1849513053894043,3.7885398864746094
1713358570490699800,9.69269970703125,-0.6144276857376099,-0.7034182548522949,2.7549924850463867
1713358570500679200,9.70267919921875,0.34738075733184814,-0.9355878829956055,0.3281536102294922
1713358570510627800,9.7126279296875,0.5839934349060059,-0.44715356826782227,-0.4340672492980957
1713358570520607000,9.72260693359375,1.05119788646698,-0.20084762573242188,-1.1326632499694824
1713358570530586400,9.73258642578125,1.2815625667572021,0.6027593612670898,-1.5141191482543945
1713358570540535000,9.74253515625,1.4400626420974731,1.7264914512634277,-1.3176960945129395
1713358570550514200,9.75251416015625,1.777323842048645,2.6352334022521973,-1.597517967224121
1713358570560493600,9.76249365234375,2.3540563583374023,3.3087158203125,-2.1981329917907715
1713358570570442200,9.772442138671876,3.045088052749634,3.625936985015869,-3.051292896270752
1713358570580421600,9.782421630859375,3.239119529724121,3.8280787467956543,-3.9341139793395996
1713358570590370300,9.792370361328125,2.935549736022949,3.647420883178711,-4.960773944854736
1713358570600349400,9.802349365234376,2.292579412460327,3.521639823913574,-5.190236568450928
1713358570610328800,9.812328857421875,1.4916023015975952,3.421992778778076,-5.124914169311523
1713358570620308000,9.822307861328126,0.8954035043716431,3.238213062286377,-5.151698112487793
1713358570630256600,9.832256591796876,0.5022763013839722,3.0477051734924316,-5.285767078399658
1713358570640236000,9.842236083984375,0.37794530391693115,2.928232192993164,-4.9428791999816895
1713358570650215200,9.852215087890626,0.4150826930999756,2.840183734893799,-4.547372817993164
1713358570660194600,9.862194580078125,0.3194699287414551,2.801954746246338,-4.216458320617676
1713358570670143200,9.872143310546875,-0.08240830898284912,2.839254379272461,-4.0307111740112305
1713358570680122400,9.882122314453126,-1.053887128829956,2.7440457344055176,-3.8557424545288086
1713358570690101800,9.892101806640625,-2.6157138347625732,2.5088043212890625,-3.5974011421203613
1713358570700081000,9.902080810546876,-4.2336578369140625,2.206146717071533,-2.6857528686523438
1713358570710029600,9.912029541015626,-5.2417402267456055,1.9478240013122559,-1.15309476852417
1713358570720009000,9.922009033203125,-4.22213888168335,1.8991718292236328,0.7538266181945801
1713358570729957600,9.93195751953125,-2.242532730102539,2.0031509399414062,2.669010639190674
1713358570739937000,9.94193701171875,-0.8775907754898071,1.15596342086792,4.292401313781738
1713358570749916200,9.951916259765625,-0.6744294166564941,-0.7222566604614258,5.881669521331787
1713358570759864800,9.96186474609375,-0.4428129196166992,-2.7205586433410645,6.921473979949951
1713358570769844200,9.97184423828125,-0.14284265041351318,-5.300295829772949,6.284005641937256
1713358570779823400,9.9818232421875,-0.4285842180252075,-8.547750473022461,3.299999713897705
1713358570789772000,9.99177197265625,-1.9075344800949097,-9.694917678833008,-0.1519789695739746
1713358570799751400,10.00175146484375,-4.774142742156982,-7.065671443939209,-2.0315194129943848
1713358570809700000,10.0117001953125,-6.42421817779541,-1.6770243644714355,-0.9809107780456543
1713358570819679200,10.02167919921875,-6.829846382141113,3.0153698921203613,0.7441134452819824
1713358570829658600,10.03165869140625,-7.065955638885498,5.752096176147461,1.6542606353759766
1713358570839607300,10.041607177734376,-6.861207485198975,5.0822434425354,2.5823311805725098
1713358570849586700,10.051586669921875,-5.493303298950195,0.38161420822143555,3.4073891639709473
1713358570859565800,10.06156591796875,-1.588944435119629,-5.123564720153809,3.520144462585449
1713358570869514500,10.071514404296876,1.6560964584350586,-8.863040924072266,6.747469425201416
1713358570879494000,10.081493896484375,4.315855026245117,-12.361602783203125,9.127523422241211
1713358570889473000,10.09147314453125,8.464320182800293,-11.69796085357666,6.088881015777588
1713358570899421700,10.101421630859376,8.922554016113281,-4.146493911743164,0.9915742874145508
1713358570909401000,10.111401123046875,3.126114845275879,0.775700569152832,-2.4092516899108887
1713358570919380200,10.121380126953126,-1.1657114028930664,1.8086824417114258,-5.018631935119629
1713358570929359600,10.131359619140625,0.014413118362426758,2.5630078315734863,-4.626896381378174
1713358570939338800,10.1413388671875,2.782761335372925,3.0155558586120605,-2.78737735748291
1713358570949287400,10.151287353515626,3.904984474182129,3.221639633178711,-1.3177318572998047
1713358570959266800,10.161266845703125,5.097523212432861,3.2825369834899902,-0.7529144287109375
1713358570969246000,10.171245849609376,6.868529319763184,2.865842342376709,-0.38881874084472656
1713358570979194600,10.181194580078126,8.354825973510742,2.767855644226074,1.333916187286377
1713358570989174000,10.191174072265625,9.272706985473633,2.124324321746826,2.1829237937927246
1713358570999153200,10.201153076171876,8.628327369689941,0.32166337966918945,1.8721413612365723
1713358571009101800,10.211101806640626,4.152522563934326,-2.48557710647583,-0.1304492950439453
1713358571019081200,10.221081298828125,-0.5765247344970703,-3.295454502105713,-1.1082048416137695
1713358571029060400,10.231060302734376,-2.156277656555176,-2.446361541748047,-2.0306544303894043
1713358571039009300,10.24100927734375,-1.9180454015731812,-1.450767993927002,-3.6767563819885254
1713358571048988400,10.250988525390625,-1.4364358186721802,-0.7077546119689941,-4.346457004547119
1713358571058967600,10.260967529296876,-0.9945955276489258,-0.4058995246887207,-4.462261199951172
1713358571068916500,10.27091650390625,-0.5268862247467041,-0.15107345581054688,-4.349664688110352
1713358571078895600,10.2808955078125,0.11573529243469238,0.3253498077392578,-3.713977813720703
1713358571088844300,10.29084423828125,0.8793352842330933,0.5480279922485352,-2.61429500579834
1713358571098823700,10.30082373046875,2.0035667419433594,0.2881498336791992,-0.8875269889831543
1713358571108802800,10.310802734375,3.1980514526367188,-0.30108070373535156,1.2905755043029785
1713358571118751500,10.32075146484375,3.8434574604034424,-0.6353855133056641,3.853818416595459
1713358571128731000,10.33073095703125,2.792182683944702,-0.5455188751220703,5.354910850524902
1713358571138710000,10.3407099609375,0.7271854877471924,0.6623573303222656,4.300442695617676
1713358571148659000,10.350658935546875,-0.7008517980575562,1.6093463897705078,0.5256824493408203
1713358571158638000,10.36063818359375,-0.9888430237770081,1.7041587829589844,-2.1808972358703613
1713358571168617200,10.3706171875,-0.7087885737419128,1.664198398590088,-2.6171512603759766
1713358571178566100,10.380566162109375,-0.13949590921401978,1.991269588470459,-2.767425060272217
1713358571188545300,10.390545166015626,-0.16213136911392212,2.1692519187927246,-2.689866065979004
1713358571198524700,10.400524658203125,-0.5801967978477478,2.0743212699890137,-2.5827927589416504
1713358571208503800,10.41050390625,-0.5379719734191895,2.026484489440918,-1.9214959144592285
1713358571218452500,10.420452392578126,0.20354002714157104,1.9246525764465332,-1.231640338897705
1713358571228432000,10.430431884765625,0.19637903571128845,1.9065756797790527,-0.5765423774719238
1713358571238411000,10.440410888671876,-0.36903512477874756,1.8935770988464355,-0.6911654472351074
1713358571248359700,10.450359619140626,-1.1220729351043701,1.8371944427490234,-0.8692798614501953
1713358571258339000,10.460339111328125,-1.436830759048462,1.7773613929748535,-0.7551817893981934
1713358571268318200,10.470318115234376,-1.6311777830123901,1.6387677192687988,-0.45340633392333984
1713358571278297600,10.480297607421875,-2.205799102783203,1.453406810760498,0.14151525497436523
1713358571288246300,10.490246337890625,-1.9904221296310425,1.2813777923583984,1.050410270690918
1713358571298225400,10.500225341796876,-1.3315761089324951,0.8645939826965332,1.6012377738952637
1713358571308204800,10.510204833984375,-1.583236813545227,0.8987460136413574,2.289050579071045
1713358571318153500,10.520153564453125,-1.5418473482131958,1.330183982849121,2.981541156768799
1713358571328132600,10.530132568359376,-1.6183466911315918,2.27315092086792,3.8716955184936523
1713358571338081500,10.54008154296875,-1.1237292289733887,3.2430295944213867,4.658349990844727
1713358571348060700,10.550060791015625,-0.40548810362815857,3.7025222778320312,5.131280899047852
1713358571358039800,10.560039794921876,-0.5977491736412048,3.9760918617248535,5.5421600341796875
1713358571367988700,10.56998876953125,-0.16553568840026855,4.4090895652771,5.768191814422607
1713358571377967900,10.5799677734375,1.072455644607544,4.6483330726623535,5.749344348907471
1713358571387947300,10.589947265625,2.0130836963653564,4.703001022338867,5.672293186187744
1713358571397896000,10.59989599609375,2.2874507904052734,4.061281204223633,5.627014636993408
1713358571407875000,10.609875,1.2561585903167725,2.740569591522217,5.31195068359375
1713358571417854500,10.6198544921875,0.015021860599517822,0.975304126739502,4.860828399658203
1713358571427803100,10.62980322265625,-2.1152164936065674,-1.03580904006958,4.562874794006348
1713358571437782300,10.6397822265625,-4.171954154968262,-2.1177568435668945,4.474490165710449
1713358571447731200,10.649731201171875,-3.136497735977173,-2.797800064086914,4.18394136428833
1713358571457710300,10.65971044921875,-2.4204611778259277,-3.39329195022583,2.378204822540283
1713358571467689500,10.669689453125,-1.1903363466262817,-3.3294425010681152,1.5820159912109375
1713358571477668900,10.6796689453125,1.3419890403747559,-2.7963404655456543,2.721877098083496
1713358571487617500,10.689617431640626,2.9584286212921143,-2.390979290008545,1.9919023513793945
1713358571497597000,10.699596923828125,3.0360987186431885,-2.226606845855713,-0.23613929748535156
1713358571507576000,10.709576171875,3.0923635959625244,-2.3461508750915527,-1.7669386863708496
1713358571517555200,10.71955517578125,2.549506664276123,-2.7700510025024414,-3.1475439071655273
1713358571527504100,10.729504150390625,0.9896028637886047,-3.5421204566955566,-4.915390968322754
1713358571537483300,10.739483154296876,-0.3358568549156189,-4.359559535980225,-5.804985046386719
1713358571547462700,10.749462646484375,-1.2948064804077148,-5.153931617736816,-5.836013317108154
1713358571557441800,10.75944189453125,-1.9582176208496094,-6.153103351593018,-4.999719619750977
1713358571567390500,10.769390380859376,-2.2537996768951416,-6.409799098968506,-3.0318994522094727
1713358571577369900,10.779369873046875,-1.659665822982788,-6.17873477935791,-1.5642356872558594
1713358571587318500,10.789318603515625,0.5247995257377625,-5.795196533203125,-0.31389951705932617
1713358571597297700,10.799297607421876,2.7403557300567627,-5.112499237060547,0.7082386016845703
1713358571607277000,10.809277099609375,3.236344337463379,-3.9203848838806152,1.3305354118347168
1713358571617225700,10.819225830078125,2.509209394454956,-2.460635185241699,1.5448269844055176
1713358571627204900,10.829204833984376,1.1973904371261597,-1.2163209915161133,2.0573339462280273
1713358571637184300,10.839184326171875,-0.45095646381378174,-0.064910888671875,2.4170732498168945
1713358571647133000,10.8491328125,-0.30691641569137573,0.4605860710144043,2.727924346923828
1713358571657112300,10.8591123046875,0.5104211568832397,0.7504959106445312,4.0852155685424805
1713358571667091500,10.869091552734375,0.16479039192199707,0.27929115295410156,3.8752098083496094
1713358571677040000,10.8790400390625,-0.4790164828300476,-0.4788703918457031,2.9775443077087402
1713358571687019500,10.88901953125,0.16041260957717896,-0.9207921028137207,1.625464916229248
1713358571696968200,10.89896826171875,0.6324962377548218,-1.0497069358825684,-0.12394142150878906
1713358571706947300,10.908947265625,0.47492384910583496,-0.759864330291748,-1.722513198852539
1713358571716926700,10.9189267578125,0.13030743598937988,0.026838302612304688,-2.0071163177490234
1713358571726875400,10.92887548828125,0.23881840705871582,0.816716194152832,-2.6869149208068848
1713358571736854500,10.9388544921875,0.6388252973556519,1.5380887985229492,-3.054007053375244
1713358571746834000,10.948833984375,1.2429487705230713,2.016691207885742,-3.243588924407959
1713358571756782600,10.958782470703126,1.6712559461593628,2.3635106086730957,-3.466705322265625
1713358571766761700,10.96876171875,1.9137543439865112,2.9435977935791016,-3.300196647644043
1713358571776741000,10.9787412109375,1.9719282388687134,3.3319807052612305,-3.4089555740356445
1713358571786720300,10.98872021484375,2.0883288383483887,3.4410719871520996,-3.675205707550049
1713358571796699600,10.99869970703125,1.8815022706985474,3.6064796447753906,-4.45133113861084
1713358571806648300,11.0086484375,1.3294798135757446,3.57373046875,-5.077805519104004
1713358571816627500,11.01862744140625,0.9018464088439941,3.4105663299560547,-5.291242599487305
1713358571826606800,11.02860693359375,0.7863277196884155,3.138631820678711,-5.13297700881958
1713358571836555500,11.038555419921876,0.7939119338989258,3.02473783493042,-4.675085067749023
1713358571846535000,11.048534912109375,0.6458102464675903,3.06834077835083,-4.406508445739746
1713358571856514000,11.05851416015625,0.22906064987182617,3.077572822570801,-4.16060209274292
1713358571866462700,11.068462646484376,-0.8669867515563965,2.9403486251831055,-4.0468430519104
1713358571876442000,11.078442138671875,-2.3637032508850098,2.6206564903259277,-3.9991722106933594
1713358571886421200,11.088421142578126,-3.7025909423828125,2.0851950645446777,-3.6532669067382812
1713358571896370000,11.098369873046876,-4.506086349487305,1.2809290885925293,-2.72770357131958
1713358571906349300,11.108349365234375,-4.446917533874512,0.8472633361816406,-1.0617303848266602
1713358571916328400,11.118328369140626,-3.1834545135498047,0.7294692993164062,1.2234363555908203
1713358571926277000,11.128277099609376,-1.697300910949707,0.14315271377563477,3.7192254066467285
1713358571936256500,11.138256591796875,-0.9207724332809448,-1.0113821029663086,6.026412487030029
1713358571946205200,11.148205078125,-0.4659777879714966,-2.4171218872070312,7.6253132820129395
1713358571956184600,11.1581845703125,0.06041431427001953,-4.428717136383057,7.438930988311768
1713358571966163700,11.168163818359375,-0.8304094076156616,-6.520373344421387,5.127233028411865
1713358571976112400,11.1781123046875,-2.890678882598877,-7.203979015350342,1.3276538848876953
1713358571986091800,11.188091796875,-6.023390769958496,-5.8888750076293945,-1.4353389739990234
1713358571996071000,11.19807080078125,-7.710756301879883,-2.7322511672973633,-1.7900171279907227
1713358572006019600,11.20801953125,-7.138670921325684,0.735130786895752,-0.813774585723877
1713358572015999000,11.2179990234375,-6.096616268157959,2.362041473388672,-0.2545962333679199
1713358572025978000,11.22797802734375,-4.894974708557129,0.9166932106018066,0.6094269752502441
1713358572035926800,11.2379267578125,-3.6965200901031494,-3.4820542335510254,2.643820285797119
1713358572045906200,11.24790625,-2.3945024013519287,-7.593801498413086,5.737070083618164
1713358572055885300,11.25788525390625,0.4744293689727783,-9.883382797241211,8.558645248413086
1713358572065864700,11.26786474609375,5.365298271179199,-11.062837600708008,7.3769025802612305
1713358572075813400,11.2778134765625,9.07736873626709,-8.465190887451172,3.423264503479004
1713358572085792500,11.28779248046875,6.49127721786499,-1.9464335441589355,0.13489532470703125
1713358572095772000,11.29777197265625,1.4679276943206787,2.5201478004455566,-2.3004870414733887
1713358572105720600,11.307720458984376,0.6589691638946533,3.9381422996520996,-4.337235927581787
1713358572115700000,11.317699951171875,3.6951777935028076,3.7796125411987305,-3.9587669372558594
1713358572125679000,11.32767919921875,5.911635398864746,3.4319510459899902,-2.1947755813598633
1713358572135658200,11.337658203125,5.339189052581787,3.0196213722229004,-0.7687010765075684
1713358572145607200,11.347607177734375,5.354973793029785,2.9249534606933594,1.3131413459777832
1713358572155586300,11.35758642578125,6.327511787414551,2.6313586235046387,2.124274253845215
1713358572165565400,11.3675654296875,7.204981803894043,2.2084693908691406,2.176492691040039
1713358572175514400,11.377514404296875,7.620463848114014,1.1397705078125,1.1857571601867676
1713358572185493500,11.387493408203126,5.8187713623046875,-0.8566455841064453,-0.9405527114868164
1713358572195442200,11.397442138671876,1.8610620498657227,-2.306368827819824,-2.1054468154907227
1713358572205421600,11.407421630859375,-0.9188660383224487,-2.2573189735412598,-2.426802158355713
1713358572215400700,11.417400634765626,-1.61598539352417,-1.4400663375854492,-2.8439455032348633
1713358572225349400,11.427349365234376,-1.5708940029144287,-0.5334906578063965,-3.3024187088012695
1713358572235328800,11.437328857421875,-0.8041549921035767,0.04275846481323242,-3.222532272338867
1713358572245286400,11.447286376953125,-0.007672548294067383,0.2110462188720703,-2.900752544403076
1713358572255235000,11.457235107421875,0.5458551645278931,0.24417734146118164,-2.5761475563049316
1713358572265214500,11.46721435546875,0.8281682729721069,0.3325481414794922,-1.9417028427124023
1713358572275193600,11.477193603515625,1.4806227684020996,0.46938133239746094,-0.41712093353271484
1713358572285142300,11.487142333984375,2.257141351699829,0.20995664596557617,0.34940195083618164
1713358572295121700,11.49712158203125,2.9181039333343506,-0.0185699462890625,0.8775143623352051
1713358572305070300,11.5070703125,2.9469313621520996,0.0595545768737793,1.7459931373596191
1713358572315049500,11.517049560546875,1.844233751296997,0.30269336700439453,2.0889711380004883
1713358572325028900,11.52702880859375,0.6195729970932007,0.6466970443725586,1.2541403770446777
1713358572335008000,11.537008056640625,-0.22682338953018188,0.9836053848266602,-0.09675121307373047
1713358572344956700,11.546956787109375,-0.6929222941398621,1.0421805381774902,-1.5861310958862305
1713358572354936000,11.55693603515625,-0.7907519340515137,0.7460689544677734,-3.0231575965881348
1713358572364915200,11.566915283203125,-0.6577818989753723,0.5099081993103027,-3.64093017578125
1713358572374894600,11.57689453125,-0.5943309664726257,0.43029308319091797,-3.7729744911193848
1713358572384843300,11.58684326171875,-0.5146750211715698,0.6224226951599121,-3.1067724227905273
1713358572394822400,11.596822509765625,-0.5146374702453613,0.8814940452575684,-1.6929855346679688
1713358572404801800,11.6068017578125,-0.3380773663520813,1.1937503814697266,-0.6670756340026855
1713358572414750500,11.61675048828125,0.1278570294380188,1.4199371337890625,-0.46607494354248047
1713358572424729900,11.626729736328125,-0.009411141276359558,1.6255507469177246,-0.5878086090087891
1713358572434709000,11.636708984375,-0.5011287927627563,1.8450632095336914,-0.7412419319152832
1713358572444657700,11.64665771484375,-1.0332083702087402,2.1432790756225586,-0.5653109550476074
1713358572454637000,11.656636962890625,-1.4982044696807861,2.2908835411071777,-0.14193439483642578
1713358572464616200,11.6666162109375,-1.8510451316833496,2.304920196533203,0.36099672317504883
1713358572474564900,11.67656494140625,-1.625490665435791,2.072692394256592,0.8827366828918457
1713358572484544300,11.686544189453125,-1.6386502981185913,1.637434959411621,1.3584012985229492
1713358572494523400,11.6965234375,-1.7119752168655396,1.1948137283325195,1.753934383392334
1713358572504472000,11.70647216796875,-1.2931503057479858,1.3037567138671875,2.582697868347168
1713358572514451500,11.716451416015625,-1.239962100982666,2.171567916870117,3.585707664489746
1713358572524430600,11.7264306640625,-0.9071216583251953,3.005039691925049,4.509869575500488
1713358572534379500,11.736379638671876,-0.43114301562309265,3.242981433868408,5.211332321166992
1713358572544358700,11.746358642578125,-0.5567421913146973,3.7070226669311523,5.698248386383057
1713358572554307300,11.756307373046875,0.4642665386199951,4.567865371704102,5.81551456451416
1713358572564286700,11.76628662109375,2.208747625350952,5.311544418334961,5.445960521697998
1713358572574265900,11.776265869140625,2.386317729949951,5.360938549041748,5.542635440826416
1713358572584214500,11.786214599609375,1.2919093370437622,3.9463539123535156,4.897017955780029
1713358572594194000,11.79619384765625,-0.16672304272651672,1.8290777206420898,4.882556915283203
1713358572604173000,11.806173095703125,-1.7356126308441162,-0.20372915267944336,4.788778781890869
1713358572614121700,11.816121826171875,-4.134671688079834,-1.443678855895996,4.76849365234375
1713358572624101000,11.82610107421875,-3.580033302307129,-1.3769941329956055,5.704432964324951
1713358572634080300,11.836080322265625,-1.4306378364562988,-1.1010856628417969,5.313685417175293
1713358572644059600,11.8460595703125,-1.650757074356079,-1.040452480316162,3.77839994430542
1713358572654008300,11.85600830078125,-0.3398538827896118,-0.8832645416259766,3.864663600921631
1713358572663987500,11.865987548828125,1.4605540037155151,-1.1142001152038574,3.8365230560302734
1713358572673966800,11.875966796875,2.8965985774993896,-1.6507658958435059,1.9065513610839844
1713358572683946000,11.885946044921875,3.2773165702819824,-2.3404035568237305,-0.29381513595581055
1713358572693894700,11.895894775390625,2.4716572761535645,-3.472860336303711,-2.307979106903076
1713358572703874000,11.9058740234375,1.601844072341919,-4.3976616859436035,-3.7158946990966797
1713358572713853200,11.915853271484375,0.4218035936355591,-4.797580718994141,-5.331418514251709
1713358572723802000,11.925802001953125,-0.6336747407913208,-4.692432403564453,-6.13865327835083
1713358572733781200,11.93578125,-1.4038043022155762,-4.5336503982543945,-5.364635467529297
1713358572743760400,11.945760498046875,-1.2490918636322021,-4.695397853851318,-3.839672565460205
1713358572753709300,11.955709228515625,-1.0058687925338745,-5.096553325653076,-1.7347536087036133
1713358572763688400,11.9656884765625,-0.20874911546707153,-5.385806560516357,-0.24210596084594727
1713358572773667800,11.975667724609375,1.1490199565887451,-5.560533046722412,0.31490325927734375
1713358572783616500,11.985616455078125,2.920081615447998,-5.446420669555664,0.10409736633300781
1713358572793595600,11.995595703125,3.843950033187866,-4.746546268463135,-0.017502307891845703
1713358572803544300,12.00554443359375,3.8404250144958496,-3.7939453125,-0.348968505859375
1713358572813523700,12.015523681640625,3.1809682846069336,-2.899265766143799,-1.236661434173584
1713358572823502800,12.0255029296875,0.8892297744750977,-2.3975725173950195,-1.8690104484558105
1713358572833451800,12.03545166015625,-0.9680647850036621,-2.090679168701172,-1.4921598434448242
1713358572843431000,12.045430908203125,-1.4019947052001953,-1.6128506660461426,0.24028301239013672
1713358572853410000,12.05541015625,-1.1760107278823853,-1.201869010925293,1.9942803382873535
1713358572863359000,12.06535888671875,-0.5684936046600342,-1.4006638526916504,2.724083423614502
1713358572873338000,12.075338134765625,-0.5174953937530518,-1.7511711120605469,2.4351515769958496
1713358572883317500,12.0853173828125,-0.4134877324104309,-1.930046558380127,1.524294376373291
1713358572893266200,12.09526611328125,-0.40703248977661133,-2.0259766578674316,0.3243074417114258
1713358572903245300,12.105245361328125,0.04132574796676636,-1.710644245147705,-1.0948548316955566
1713358572913224700,12.115224609375,0.09440988302230835,-0.6598286628723145,-1.8212294578552246
1713358572923203800,12.125203857421875,0.2217313051223755,0.4512906074523926,-1.2609734535217285
1713358572933152500,12.135152587890625,0.9436218738555908,1.2841930389404297,-1.1342473030090332
1713358572943132000,12.1451318359375,1.5978081226348877,1.9031586647033691,-0.9354772567749023
1713358572953111000,12.155111083984375,2.003636360168457,2.2936387062072754,-1.1460118293762207
1713358572963090400,12.16509033203125,2.1386754512786865,2.6203832626342773,-1.9887027740478516
1713358572973039000,12.1750390625,2.178175449371338,2.883680820465088,-3.1527419090270996
1713358572983018200,12.185018310546875,1.9541171789169312,3.280367374420166,-4.154792308807373
1713358572992997600,12.19499755859375,1.5476510524749756,3.4482064247131348,-4.439773082733154
1713358573002946300,12.2049462890625,1.0491547584533691,3.5918092727661133,-5.0922040939331055
1713358573012925400,12.214925537109375,0.5250694751739502,3.670504570007324,-5.366280555725098
1713358573022904800,12.22490478515625,0.22817754745483398,3.61271333694458,-5.148087024688721
1713358573032853500,12.234853515625,0.27698636054992676,3.535651206970215,-5.0653076171875
1713358573042832600,12.24483251953125,0.5873908996582031,3.385166645050049,-4.685267448425293
1713358573052781600,12.254781494140625,0.7151618003845215,3.306447982788086,-4.567049980163574
1713358573062760700,12.2647607421875,0.29917633533477783,3.322725296020508,-4.587100505828857
1713358573072740000,12.274739990234375,-0.8619029521942139,3.2185587882995605,-4.496582508087158
1713358573082688800,12.284688720703125,-2.651881217956543,3.1486830711364746,-4.083056449890137
1713358573092668000,12.29466796875,-4.784169673919678,2.9861865043640137,-3.335482597351074
1713358573102647300,12.304647216796875,-6.356762886047363,2.576963424682617,-2.2416343688964844
1713358573112596000,12.314595947265625,-5.939716815948486,1.9400625228881836,-0.8013467788696289
1713358573122575000,12.3245751953125,-3.7968809604644775,1.182281494140625,1.2337870597839355
1713358573132554500,12.334554443359375,-1.8936959505081177,0.29929447174072266,3.9760384559631348
1713358573142503200,12.344503173828125,-1.026550054550171,-1.388737678527832,7.179563045501709
1713358573152482300,12.354482421875,-0.837984561920166,-3.690361499786377,9.009313583374023
1713358573162461700,12.364461669921875,0.19370019435882568,-7.569820404052734,6.950553894042969
1713358573172410400,12.374410400390625,0.06714439392089844,-11.848799705505371,2.442157745361328
1713358573182389800,12.3843896484375,-1.7442402839660645,-11.358477592468262,-0.8637852668762207
1713358573192369000,12.394368896484375,-4.760909557342529,-6.311828136444092,-1.7551031112670898
1713358573202317600,12.404317626953125,-7.027953147888184,-0.28267717361450195,0.3293881416320801
1713358573212297000,12.414296875,-8.715023040771484,4.858229637145996,2.226754665374756
1713358573222276000,12.424276123046875,-9.790834426879883,7.639509201049805,2.2757444381713867
1713358573232255500,12.43425537109375,-9.229349136352539,6.1251912117004395,2.910067081451416
1713358573242204200,12.4442041015625,-4.531856536865234,1.2155070304870605,4.577940464019775
1713358573252183300,12.454183349609375,2.8152291774749756,-3.450563430786133,4.683041572570801
1713358573262162700,12.46416259765625,5.939965724945068,-7.59720516204834,6.551789283752441
1713358573272111400,12.474111328125,6.677197456359863,-12.200536727905273,6.0371270179748535
1713358573282090500,12.484090576171875,10.037018775939941,-12.616601943969727,3.0148749351501465
1713358573292070000,12.49406982421875,8.766546249389648,-6.6945343017578125,1.696730613708496
1713358573302018600,12.5040185546875,2.288705587387085,-1.2490878105163574,0.014929771423339844
1713358573311997700,12.513997802734375,-1.5409934520721436,1.2087998390197754,-3.5480194091796875
1713358573321977000,12.52397705078125,-0.1211705207824707,3.39144229888916,-5.528504848480225
1713358573331925800,12.53392578125,1.9148786067962646,4.445464611053467,-5.728528022766113
1713358573341905200,12.5439052734375,3.2995340824127197,3.9441418647766113,-4.786654472351074
1713358573351884300,12.55388427734375,4.407051086425781,3.0865941047668457,-3.474128246307373
1713358573361833000,12.5638330078125,5.465828895568848,2.6127266883850098,-1.6604366302490234
1713358573371812400,12.573812255859375,7.177884101867676,2.200277805328369,-0.0346221923828125
1713358573381791500,12.58379150390625,7.8404622077941895,1.5765376091003418,1.8876152038574219
1713358573391740200,12.593740234375,6.041476726531982,-0.6385927200317383,1.8024787902832031
1713358573401719600,12.603719482421875,2.0114331245422363,-3.2928614616394043,0.735501766204834
1713358573411698700,12.61369873046875,-1.5994396209716797,-3.9926366806030273,-0.503870964050293
1713358573421647400,12.6236474609375,-2.6593565940856934,-2.518454074859619,-2.447619915008545
1713358573431626800,12.633626708984375,-1.6303529739379883,-0.5840053558349609,-3.5243473052978516
1713358573441575400,12.643575439453125,-0.44135522842407227,0.343808650970459,-4.054506778717041
1713358573451554800,12.653554931640626,-0.11082720756530762,0.7512016296386719,-4.240621089935303
1713358573461534000,12.663533935546875,0.31500422954559326,0.983306884765625,-3.9089317321777344
1713358573471513000,12.67351318359375,1.0925443172454834,1.1025819778442383,-3.3180389404296875
1713358573481462000,12.6834619140625,2.1563634872436523,1.2834820747375488,-2.17604398727417
1713358573491441200,12.693441162109375,2.9494779109954834,1.2390437126159668,-0.5065689086914062
1713358573501420300,12.703420166015626,2.93159818649292,0.8902945518493652,1.3620061874389648
1713358573511399700,12.713399658203125,2.1775355339050293,0.08012151718139648,3.2311482429504395
1713358573521348400,12.723348388671875,1.1894886493682861,-0.9257349967956543,4.488181114196777
1713358573531327700,12.73332763671875,-0.10646829009056091,-1.1723313331604004,3.9750304222106934
1713358573541307000,12.743306884765625,-1.0697522163391113,-0.5945343971252441,1.3677082061767578
1713358573551255600,12.753255615234375,-1.6942335367202759,0.0830388069152832,-1.1727991104125977
