time,seconds_elapsed,z,y,x
1715093331536941800,0.16494189453125,-1.8684682846069336,0.9638991355895996,-1.0759832859039307
1715093331546921200,0.174921142578125,-1.04010009765625,0.7044863700866699,-0.6824487447738647
1715093331556900400,0.184900390625,-0.29195213317871094,0.47606468200683594,-0.3665969967842102
1715093331566879700,0.194879638671875,0.21804428100585938,0.429732084274292,-0.15077078342437744
1715093331576859000,0.20485888671875,0.41248035430908203,0.4494967460632324,-0.07381042838096619
1715093331586838300,0.21483837890625,0.2931690216064453,0.4418814182281494,-0.08307453989982605
1715093331596787000,0.224786865234375,-0.1686248779296875,0.38879895210266113,-0.2561487853527069
1715093331606766000,0.23476611328125,-0.7150945663452148,0.45012664794921875,-0.280447781085968
1715093331616745500,0.244745361328125,-1.1466588973999023,0.5473227500915527,-0.20762969553470612
1715093331626724600,0.254724609375,-1.3666810989379883,0.6574370861053467,-0.015945695340633392
1715093331636673300,0.26467333984375,-1.6825790405273438,0.66229248046875,0.02848738431930542
1715093331646652700,0.274652587890625,-1.896885871887207,0.624213457107544,-0.08144567906856537
1715093331656631800,0.2846318359375,-2.1878671646118164,0.5196883678436279,-0.23128889501094818
1715093331666611200,0.294611083984375,-2.193190574645996,0.4114260673522949,-0.2874717712402344
1715093331676560000,0.304559814453125,-2.093496322631836,0.3312382698059082,-0.5590567588806152
1715093331686539000,0.3145390625,-1.9870672225952148,0.2846202850341797,-0.7152818441390991
1715093331696518400,0.324518310546875,-1.7618694305419922,0.219496488571167,-0.7701882123947144
1715093331706467000,0.334467041015625,-1.5669803619384766,0.05747413635253906,-0.6704016923904419
1715093331716446200,0.3444462890625,-1.3877677917480469,-0.030267715454101562,-0.5458849668502808
1715093331726425600,0.354425537109375,-1.2291240692138672,0.009651422500610352,-0.4604155719280243
1715093331736374300,0.364374267578125,-1.2351980209350586,0.0686497688293457,-0.4360926151275635
1715093331746353700,0.374353759765625,-1.2619285583496094,0.0629429817199707,-0.5671613216400146
1715093331756332800,0.384332763671875,-1.3925352096557617,-0.02313709259033203,-0.8059183359146118
1715093331766281500,0.394281494140625,-1.606247901916504,-0.09611320495605469,-0.9623613357543945
1715093331776260900,0.4042607421875,-1.9297294616699219,-0.07239294052124023,-1.0459578037261963
1715093331786240000,0.414239990234375,-2.194927215576172,0.032881736755371094,-1.189961314201355
1715093331796219400,0.424219482421875,-2.410202980041504,0.09113216400146484,-1.3220388889312744
1715093331806168000,0.43416796875,-2.621051788330078,0.08004093170166016,-1.3812791109085083
1715093331816147200,0.444147216796875,-2.699626922607422,0.07950448989868164,-1.4819700717926025
1715093331826126600,0.454126708984375,-2.381829261779785,0.07631349563598633,-1.5369846820831299
1715093331836105700,0.464105712890625,-1.866765022277832,0.05919456481933594,-1.435198187828064
1715093331846054400,0.474054443359375,-1.4018325805664062,0.055400848388671875,-1.2763161659240723
1715093331856033800,0.48403369140625,-1.0046091079711914,0.06402063369750977,-1.0240834951400757
1715093331866013000,0.494012939453125,-0.6808757781982422,0.03794240951538086,-0.9244246482849121
1715093331875961600,0.503961669921875,-0.48585987091064453,-0.06146717071533203,-0.8981161117553711
1715093331885941000,0.51394091796875,-0.4276895523071289,-0.10521316528320312,-1.0577127933502197
1715093331895921700,0.523921630859375,-0.4027061462402344,-0.1677107810974121,-0.9681756496429443
1715093331905860000,0.533860107421875,-0.33519554138183594,-0.22322654724121094,-0.7877297401428223
1715093331915853000,0.54385302734375,-0.22119998931884766,-0.21152973175048828,-0.6581704616546631
1715093331925844500,0.553844482421875,-0.0895843505859375,-0.22555875778198242,-0.5351523160934448
1715093331935793200,0.563793212890625,0.040656089782714844,-0.2901630401611328,-0.43121135234832764
1715093331945772300,0.573772216796875,0.2099323272705078,-0.33882856369018555,-0.28383874893188477
1715093331955751700,0.583751708984375,0.2795133590698242,-0.3182039260864258,-0.0788431167602539
1715093331965700400,0.593700439453125,0.2629995346069336,-0.3345351219177246,0.13660061359405518
1715093331975679500,0.603679443359375,0.21595191955566406,-0.3234243392944336,0.20764410495758057
1715093331985659000,0.613658935546875,0.06116199493408203,-0.32973289489746094,0.22660863399505615
1715093331995607600,0.623607666015625,-0.04489612579345703,-0.357175350189209,0.26577770709991455
1715093332005586700,0.633586669921875,-0.07037162780761719,-0.35860157012939453,0.33295369148254395
1715093332015535600,0.64353564453125,-0.04250812530517578,-0.28957653045654297,0.4902365207672119
1715093332025514800,0.6535146484375,-0.03707313537597656,-0.24064922332763672,0.5699566602706909
1715093332035494000,0.663493896484375,-0.13161373138427734,-0.19595909118652344,0.6319962739944458
1715093332045442800,0.67344287109375,-0.39606285095214844,-0.14200448989868164,0.7186983823776245
1715093332055422000,0.683421875,-0.6473588943481445,-0.10405921936035156,0.7832973003387451
1715093332065401300,0.6934013671875,-0.827784538269043,-0.06432771682739258,1.0455676317214966
1715093332075380500,0.70338037109375,-0.8870658874511719,0.07480812072753906,1.248659372329712
1715093332085359600,0.713359619140625,-1.0162353515625,0.1631455421447754,1.3332245349884033
1715093332095308500,0.72330859375,-1.1912851333618164,0.22218608856201172,1.3538013696670532
1715093332105287700,0.73328759765625,-1.3978891372680664,0.3342752456665039,1.3172088861465454
1715093332115267000,0.74326708984375,-1.626692771911621,0.469510555267334,1.2525568008422852
1715093332125215700,0.7532158203125,-1.9728918075561523,0.5413026809692383,1.0064733028411865
1715093332135195000,0.76319482421875,-2.2994394302368164,0.5397725105285645,0.6008850336074829
1715093332145174300,0.77317431640625,-2.4464378356933594,0.38492298126220703,0.46813488006591797
1715093332155123000,0.783123046875,-2.5343379974365234,0.33498334884643555,0.7406439781188965
1715093332165102000,0.79310205078125,-2.5757627487182617,0.4912991523742676,0.89286208152771
1715093332175081500,0.80308154296875,-2.209744453430176,0.21661901473999023,1.1364586353302002
1715093332185030100,0.813030029296875,-1.0767526626586914,0.17922544479370117,1.631743311882019
1715093332195009300,0.82300927734375,-0.04299736022949219,0.42868995666503906,1.497597575187683
1715093332204988700,0.83298876953125,0.4649972915649414,0.2764124870300293,1.438731074333191
1715093332214937300,0.842937255859375,0.39293766021728516,0.14470529556274414,1.6490429639816284
1715093332224916700,0.852916748046875,-0.1754302978515625,0.1176137924194336,1.3715312480926514
1715093332234896000,0.862895751953125,-1.0017623901367188,0.03072500228881836,1.0571658611297607
1715093332244844500,0.872844482421875,-1.4169025421142578,-0.10554218292236328,1.1904819011688232
1715093332254824000,0.882823974609375,-1.075967788696289,0.01895761489868164,1.4879271984100342
1715093332264803000,0.892802978515625,-0.822993278503418,0.23518085479736328,1.5493305921554565
1715093332274751700,0.902751708984375,-0.8347139358520508,0.31923770904541016,1.4969755411148071
1715093332284731100,0.912731201171875,-0.6887779235839844,0.3056755065917969,1.550216794013977
1715093332294710300,0.922710205078125,-0.4977884292602539,0.39351415634155273,1.5258835554122925
1715093332304659000,0.932658935546875,-0.13586139678955078,0.4631612300872803,1.6302106380462646
1715093332314638300,0.942638427734375,0.4037609100341797,0.6436712741851807,1.6372913122177124
1715093332324617500,0.952617431640625,0.8208065032958984,0.7227468490600586,1.6172524690628052
1715093332334566400,0.96256640625,1.0111398696899414,0.8172171115875244,1.439298391342163
1715093332344545500,0.972545654296875,0.7234706878662109,0.6986942291259766,1.3532124757766724
1715093332354524700,0.982524658203125,0.040679931640625,0.550177812576294,1.147246241569519
1715093332364504000,0.992504150390625,-0.02626800537109375,0.6290750503540039,0.7720382213592529
1715093332374452700,1.00245263671875,-0.012703895568847656,0.6249322891235352,0.9240269660949707
1715093332384432000,1.01243212890625,0.05804252624511719,0.6496546268463135,1.0477453470230103
1715093332394411300,1.022411376953125,2.3164634704589844,0.8156914710998535,2.767716407775879
1715093332404390400,1.032390380859375,0.3117055892944336,1.7154474258422852,1.0691072940826416
1715093332414339300,1.04233935546875,0.9841165542602539,1.295206069946289,2.379274606704712
1715093332424318500,1.052318359375,1.3988122940063477,1.397071123123169,2.725084066390991
1715093332434297600,1.062297607421875,0.6343135833740234,1.056718349456787,1.5320895910263062
1715093332444246500,1.07224658203125,0.39407920837402344,0.6012086868286133,0.923672080039978
1715093332454225700,1.0822255859375,0.1685962677001953,0.27825188636779785,0.8009155988693237
1715093332464205000,1.092205078125,-0.5216388702392578,0.0713651180267334,0.9342131614685059
1715093332474153700,1.10215380859375,0.0019922256469726562,0.4997560977935791,0.23343491554260254
1715093332484132900,1.1121328125,0.2976875305175781,0.35773372650146484,0.5200271606445312
1715093332494112300,1.1221123046875,0.554509162902832,0.11929678916931152,0.8755244016647339
1715093332504061000,1.13206103515625,0.8529157638549805,-0.10793733596801758,1.289910078048706
1715093332514040000,1.1420400390625,-0.1886882781982422,-0.3028264045715332,1.2559374570846558
1715093332524019500,1.15201953125,-2.379495620727539,-0.6741952896118164,0.5688831806182861
1715093332533968100,1.161968017578125,-2.8729381561279297,-0.5987710952758789,-0.13071703910827637
1715093332543947300,1.171947265625,-3.2673416137695312,-0.41200923919677734,-0.47115135192871094
1715093332553926700,1.1819267578125,-2.980374336242676,-0.5473780632019043,-0.9701797962188721
1715093332563875300,1.191875244140625,-1.9809074401855469,-0.979642391204834,-0.718718409538269
1715093332573854700,1.201854736328125,-1.0066509246826172,-1.127997875213623,-0.5672762393951416
1715093332583833900,1.211833740234375,-0.3232383728027344,-1.3070907592773438,-1.1178216934204102
1715093332593782500,1.221782470703125,0.17429542541503906,-1.4096722602844238,-1.1877048015594482
1715093332603762000,1.231761962890625,0.6724061965942383,-1.3295812606811523,-0.6627720594406128
1715093332613741000,1.241740966796875,0.8970317840576172,-1.0754570960998535,-0.0012933015823364258
1715093332623689700,1.251689697265625,0.5673904418945312,-0.6690526008605957,0.35878968238830566
1715093332633669000,1.261669189453125,-0.007963180541992188,-0.2655935287475586,0.45957624912261963
1715093332643648300,1.271648193359375,-0.7679262161254883,0.036484718322753906,0.4666842222213745
1715093332653628700,1.281628662109375,-1.3566350936889648,0.24693965911865234,0.5395999550819397
1715093332663577300,1.291577392578125,-1.9495391845703125,0.4677762985229492,0.7010799646377563
1715093332673556500,1.301556396484375,-2.623568534851074,0.5526204109191895,0.8174884915351868
1715093332683536000,1.311535888671875,-2.60311222076416,0.7011089324951172,0.6052584052085876
1715093332693484500,1.321484619140625,-1.7640256881713867,0.7004995346069336,-0.1254068911075592
1715093332703463700,1.331463623046875,0.1623859405517578,0.5462784767150879,-0.9569177031517029
1715093332713443000,1.341443115234375,0.42545223236083984,0.12008380889892578,-1.0357564687728882
1715093332723391700,1.351391845703125,-0.05210590362548828,-0.1287703514099121,-1.0145080089569092
1715093332733371000,1.361370849609375,-0.9378595352172852,-0.40574169158935547,-1.1436711549758911
1715093332743350300,1.371350341796875,-1.7921724319458008,0.2096414566040039,-0.3675328493118286
1715093332753299000,1.381298828125,-0.9402561187744141,0.4239630699157715,0.16550451517105103
1715093332763278300,1.3912783203125,0.4418830871582031,-0.1422290802001953,0.12776583433151245
1715093332773257500,1.401257568359375,0.38371944427490234,-0.3338756561279297,-0.032456278800964355
1715093332783206100,1.4112060546875,0.4625368118286133,-0.4204592704772949,-0.9534386992454529
1715093332793185500,1.421185546875,0.6207618713378906,-0.5442013740539551,-1.0873122215270996
1715093332803164700,1.43116455078125,0.48184776306152344,-0.42844438552856445,-0.9311578273773193
1715093332813113300,1.44111328125,0.5406398773193359,-0.27478551864624023,-0.7646064758300781
1715093332823092700,1.4510927734375,0.28646278381347656,-0.2540769577026367,-0.6920325756072998
1715093332833071900,1.46107177734375,-0.5007247924804688,-0.17031002044677734,-0.7035359144210815
1715093332843020500,1.4710205078125,-0.9093236923217773,-0.07613992691040039,-0.8641191720962524
1715093332853000000,1.481,-1.064554214477539,0.025751590728759766,-0.9671560525894165
1715093332862979000,1.49097900390625,-1.445755958557129,0.050479888916015625,-0.986139178276062
1715093332872928000,1.500927978515625,-1.765976905822754,0.1927165985107422,-0.8853864669799805
1715093332882907100,1.5109072265625,-1.6310710906982422,0.15329456329345703,-0.9532897472381592
1715093332892886300,1.52088623046875,-1.4973068237304688,0.1021728515625,-0.8765745162963867
1715093332902835200,1.530835205078125,-1.204148292541504,0.1787705421447754,-0.5455840826034546
1715093332912814300,1.540814453125,-0.6598606109619141,0.05916309356689453,-0.41011524200439453
1715093332922793700,1.550793701171875,-0.13982582092285156,0.014621257781982422,-0.33595728874206543
1715093332932772900,1.56077294921875,0.1960153579711914,-0.0520787239074707,-0.3198291063308716
1715093332942721500,1.570721435546875,0.16348743438720703,-0.15409517288208008,-0.49985992908477783
1715093332952701000,1.580700927734375,-0.9474678039550781,-0.380068302154541,-0.7812411785125732
1715093332962680000,1.59068017578125,-2.4016923904418945,-1.0378193855285645,-1.2210829257965088
1715093332972659500,1.600659423828125,-2.0013036727905273,-0.34884071350097656,-1.1669666767120361
1715093332982608100,1.610608154296875,-0.13135719299316406,-0.3768925666809082,-1.2812435626983643
1715093332992587300,1.620587158203125,2.634845733642578,-0.6568279266357422,-1.3854269981384277
1715093333002566700,1.630566650390625,2.899855613708496,-0.6946506500244141,-0.7152777910232544
1715093333012508700,1.6405087890625,2.0075178146362305,-0.538088321685791,-0.4823129177093506
1715093333022487800,1.65048779296875,1.1145820617675781,-0.4366745948791504,-0.5530584454536438
1715093333032467000,1.660467041015625,0.4056253433227539,-0.3823585510253906,-0.43506401777267456
1715093333042415900,1.670415771484375,-0.05919647216796875,-0.28704214096069336,-0.5578187704086304
1715093333052395000,1.68039501953125,-0.2974815368652344,-0.2779402732849121,-0.9625634551048279
1715093333062374400,1.69037451171875,-0.35228443145751953,-0.2680392265319824,-0.9578906893730164
1715093333072323000,1.700322998046875,-0.4160165786743164,-0.09110212326049805,-0.8607863187789917
1715093333082302200,1.71030224609375,-0.20978641510009766,-0.028950214385986328,-0.5265623331069946
1715093333092281600,1.720281494140625,-0.1284618377685547,-0.002644062042236328,-0.29034852981567383
1715093333102230300,1.730230224609375,-0.3079814910888672,-0.008305072784423828,-0.24010008573532104
1715093333112209400,1.74020947265625,-0.45434093475341797,0.0035614967346191406,-0.3048136234283447
1715093333122188800,1.750188720703125,-0.5169687271118164,0.07089757919311523,-0.2729749083518982
1715093333132137500,1.760137451171875,-0.5380210876464844,0.13335037231445312,-0.10410255193710327
1715093333142116600,1.77011669921875,-0.5262928009033203,0.22685527801513672,0.10075438022613525
1715093333152096000,1.780095947265625,-0.6221456527709961,0.34354496002197266,0.18356472253799438
1715093333162044700,1.790044677734375,-0.6824913024902344,0.338986873626709,0.20823454856872559
1715093333172023800,1.80002392578125,-0.676884651184082,0.26008033752441406,0.2305627465248108
1715093333181972700,1.80997265625,-0.6510343551635742,0.25785255432128906,0.18788057565689087
1715093333191952000,1.819951904296875,-0.7078638076782227,0.25926780700683594,0.16753101348876953
1715093333201931300,1.82993115234375,-0.9293966293334961,0.26001453399658203,0.07255774736404419
1715093333211910400,1.839910400390625,-1.1183891296386719,0.2122049331665039,0.13421481847763062
1715093333221889500,1.8498896484375,-1.154414176940918,0.21723365783691406,0.09207695722579956
1715093333231838500,1.85983837890625,-0.8891944885253906,0.0032815933227539062,0.5221728682518005
1715093333241817600,1.869817626953125,-0.5369634628295898,0.15885257720947266,0.492811381816864
1715093333251797000,1.879796875,-0.19350624084472656,-0.1269512176513672,0.94330233335495
1715093333261745700,1.88974560546875,0.13864707946777344,-0.08722734451293945,0.9381886124610901
1715093333271724800,1.899724853515625,0.36127281188964844,-0.005799293518066406,0.7455500364303589
1715093333281704200,1.9097041015625,0.15075016021728516,0.01059579849243164,0.6110236644744873
1715093333291652900,1.91965283203125,-0.24928760528564453,-0.07311582565307617,0.6498695611953735
1715093333301632000,1.929632080078125,-1.508108139038086,-0.7033958435058594,0.5368927717208862
1715093333311611400,1.939611328125,-0.3337383270263672,-0.20551347732543945,0.4614963233470917
1715093333321560000,1.94956005859375,-0.6092939376831055,0.5485424995422363,0.3046569228172302
1715093333331539200,1.959539306640625,-0.5187797546386719,0.5721421241760254,0.5644111633300781
1715093333341518600,1.9695185546875,-1.137181282043457,0.0856637954711914,0.5316399335861206
1715093333351467300,1.97946728515625,-1.4223146438598633,-0.4917316436767578,0.36737915873527527
1715093333361446700,1.98944677734375,-1.9961366653442383,-0.3355836868286133,0.8717567324638367
1715093333371425800,1.99942578125,-3.9700965881347656,-0.31301259994506836,1.4129879474639893
1715093333381374500,2.00937451171875,-6.013917922973633,-0.08794975280761719,1.4250413179397583
1715093333391353900,2.019353759765625,-1.2146167755126953,0.1597728729248047,0.885628879070282
1715093333401333000,2.0293330078125,0.6898260116577148,-0.5929973125457764,1.3438055515289307
1715093333411281700,2.03928173828125,3.871488571166992,-0.8981666564941406,0.012275278568267822
1715093333421261000,2.049260986328125,4.566842079162598,-0.7988245487213135,-0.02430635690689087
1715093333431240200,2.059240234375,3.6791162490844727,-0.639230489730835,-0.35967546701431274
1715093333441188900,2.06918896484375,2.8107547760009766,-0.25974512100219727,-0.4707082509994507
1715093333451168300,2.079168212890625,1.7607107162475586,0.10221123695373535,-0.2915489673614502
1715093333461147400,2.0891474609375,1.0677213668823242,0.35625672340393066,0.03360253572463989
1715093333471096300,2.099096435546875,0.7270689010620117,0.49380946159362793,0.3766937851905823
1715093333481075500,2.109075439453125,0.36907482147216797,0.7404546737670898,0.6364161968231201
1715093333491054600,2.1190546875,0.022342681884765625,1.032444715499878,0.6816283464431763
1715093333501034000,2.129033935546875,-0.20162391662597656,1.2405352592468262,0.4420888125896454
1715093333510982700,2.138982666015625,-0.21880722045898438,1.3563532829284668,0.0617767870426178
1715093333520962000,2.148962158203125,-0.28111934661865234,1.4281682968139648,-0.22339484095573425
1715093333530941200,2.158941162109375,-0.3017148971557617,1.4215340614318848,-0.6105972528457642
1715093333540920300,2.16892041015625,-0.7367448806762695,0.9033761024475098,-0.8250418305397034
1715093333550869200,2.178869140625,-1.0071115493774414,-0.30654335021972656,0.07924473285675049
1715093333560848400,2.188848388671875,-0.6314477920532227,0.003941535949707031,0.28768229484558105
1715093333570827500,2.19882763671875,-0.15991973876953125,0.21176528930664062,0.5757768154144287
1715093333580776400,2.2087763671875,0.5114946365356445,-0.054708003997802734,0.9482777714729309
1715093333590755600,2.218755615234375,0.9039669036865234,-0.14867448806762695,1.1115634441375732
1715093333600735000,2.22873486328125,0.7630043029785156,-0.16369915008544922,1.023848295211792
1715093333610683600,2.23868359375,0.24997615814208984,-0.3514370918273926,0.8350210785865784
1715093333620662800,2.248662841796875,-0.49034786224365234,-0.6363625526428223,0.5333002209663391
1715093333630642200,2.25864208984375,-1.4798765182495117,-1.089937686920166,0.26899898052215576
1715093333640590800,2.2685908203125,-2.576353073120117,-1.766026496887207,0.22080349922180176
1715093333650570000,2.278570068359375,-5.330890655517578,-3.070955276489258,1.9614570140838623
1715093333660549400,2.28854931640625,-5.248517990112305,-3.1234190464019775,2.2479660511016846
1715093333670498000,2.298498046875,-5.587580680847168,-2.397989511489868,2.903441905975342
1715093333680477200,2.308477294921875,-6.695540428161621,-2.4678151607513428,3.404482364654541
1715093333690456600,2.31845654296875,-7.991743087768555,-2.8888940811157227,2.683654308319092
1715093333700405200,2.3284052734375,-8.73959732055664,-3.2875053882598877,2.3450534343719482
1715093333710384600,2.338384521484375,-8.271503448486328,-3.171564817428589,3.3243002891540527
1715093333720363800,2.34836376953125,-8.055675506591797,-3.0245602130889893,3.6291704177856445
1715093333730312400,2.3583125,-7.730673789978027,-3.367354154586792,3.8075408935546875
1715093333740291800,2.368291748046875,-8.461852073669434,-4.42100715637207,2.8681540489196777
1715093333750236400,2.378236328125,-9.708070755004883,-5.857230186462402,1.2040376663208008
1715093333760215600,2.388215576171875,-9.828287124633789,-6.895913124084473,-0.6927480697631836
1715093333770195000,2.39819482421875,-10.262394905090332,-7.683903694152832,-2.166731357574463
1715093333780167700,2.408167724609375,-10.4630126953125,-8.193181037902832,-3.536160469055176
1715093333790116400,2.418116455078125,-11.399147987365723,-8.135530471801758,-4.61289644241333
1715093333800095700,2.428095703125,-12.949792861938477,-8.192609786987305,-4.876620292663574
1715093333810075000,2.438074951171875,-13.671236991882324,-8.795323371887207,-4.612283706665039
1715093333820054000,2.448053955078125,-14.607839584350586,-10.292619705200195,-4.085249423980713
1715093333830003000,2.4580029296875,-14.80617904663086,-11.54594612121582,-3.1703033447265625
1715093333839982000,2.467982177734375,-14.036858558654785,-12.975078582763672,-2.614494800567627
1715093333849961500,2.47796142578125,-12.813971519470215,-14.870716094970703,-2.4442806243896484
1715093333859910100,2.48791015625,-10.552820205688477,-17.020383834838867,-2.4371299743652344
1715093333869889300,2.49788916015625,-6.013530254364014,-19.65045738220215,-2.2947263717651367
1715093333879866600,2.50786669921875,-5.174937725067139,-22.4254207611084,0.4415102005004883
1715093333889815300,2.517815185546875,-2.588113784790039,-22.942977905273438,3.6244144439697266
1715093333899794400,2.52779443359375,0.5606054067611694,-22.840415954589844,6.869318008422852
1715093333909773800,2.53777392578125,2.7822635173797607,-22.800127029418945,10.81257438659668
1715093333919722500,2.547722412109375,5.795703411102295,-24.532922744750977,14.778705596923828
1715093333929702000,2.557701904296875,8.12343978881836,-26.785409927368164,14.461113929748535
1715093333939681000,2.567680908203125,12.562228202819824,-25.426118850708008,19.684158325195312
1715093333949629700,2.577629638671875,15.402111053466797,-21.89195442199707,25.678585052490234
1715093333959609000,2.587609130859375,15.94698715209961,-18.533260345458984,29.22018814086914
1715093333969588200,2.597588134765625,16.25468635559082,-14.278337478637695,29.639209747314453
1715093333979537000,2.607536865234375,16.976177215576172,-12.202678680419922,28.78139877319336
1715093333989516300,2.617516357421875,15.903831481933594,-10.477910995483398,26.753183364868164
1715093333999495400,2.627495361328125,13.813539505004883,-9.753149032592773,26.52720069885254
1715093334009444000,2.637444091796875,13.378982543945312,-7.991814613342285,26.181827545166016
1715093334019423500,2.647423583984375,13.674671173095703,-4.962667465209961,27.804765701293945
1715093334029412600,2.65741259765625,12.238816261291504,-2.0958194732666016,27.238121032714844
1715093334039361300,2.667361328125,10.435738563537598,0.1691446304321289,26.666383743286133
1715093334049340400,2.67734033203125,4.678244590759277,1.1906929016113281,25.416118621826172
1715093334059319800,2.68731982421875,0.47132062911987305,3.807462692260742,25.967548370361328
1715093334069299000,2.697298828125,-5.117198467254639,5.500910758972168,25.22726058959961
1715093334079248000,2.707247802734375,-10.694780349731445,6.974408149719238,22.577985763549805
1715093334089227000,2.71722705078125,-11.086807250976562,7.710310935974121,17.51628303527832
1715093334099206100,2.7272060546875,-14.523334503173828,8.125581741333008,13.882142066955566
1715093334109173200,2.73717333984375,-15.152050018310547,9.114938735961914,13.357583999633789
1715093334119122200,2.7471220703125,-18.10333824157715,8.483707427978516,10.255274772644043
1715093334129101300,2.757101318359375,-19.078628540039062,8.037687301635742,8.058822631835938
1715093334139080700,2.767080810546875,-18.49764633178711,6.738941192626953,6.426202774047852
1715093334149029400,2.777029296875,-14.913806915283203,2.2313013076782227,3.390758514404297
1715093334159008500,2.787008544921875,-11.884446144104004,-4.251861572265625,-3.3195109367370605
1715093334168988000,2.79698779296875,-10.15444278717041,-5.646117210388184,-6.666806221008301
1715093334178936600,2.8069365234375,-5.06920862197876,-3.9469947814941406,-1.8962740898132324
1715093334188915700,2.816915771484375,-3.355349540710449,-2.5874853134155273,4.435935020446777
1715093334198895000,2.82689501953125,-4.447137832641602,3.2993249893188477,0.8900985717773438
1715093334208843800,2.83684375,-3.5942795276641846,6.056018829345703,3.4385898113250732
1715093334218823000,2.846822998046875,-0.32718873023986816,5.11787223815918,1.1969008445739746
1715093334228802300,2.85680224609375,-1.159639835357666,3.261996269226074,0.17905259132385254
1715093334238751000,2.8667509765625,-7.074367046356201,8.191690444946289,8.358772277832031
1715093334248730400,2.87673046875,-6.492304801940918,-0.12248039245605469,9.815765380859375
1715093334258709500,2.88670947265625,-3.1996374130249023,-0.45141029357910156,5.803383827209473
1715093334268658200,2.896658203125,-1.515478491783142,-0.6785402297973633,4.5185041427612305
1715093334278637600,2.906637451171875,-1.3537859916687012,-0.3874387741088867,4.13219690322876
1715093334288616700,2.91661669921875,-1.507798671722412,1.6757984161376953,5.905180931091309
1715093334298565400,2.9265654296875,-1.1777480840682983,2.5719261169433594,7.141185760498047
1715093334308544800,2.936544677734375,0.6270855665206909,0.4937610626220703,6.417652130126953
1715093334318493400,2.946493408203125,2.3994030952453613,0.7124052047729492,4.870182514190674
1715093334328472600,2.95647265625,0.6916829347610474,-0.44519519805908203,4.66986083984375
1715093334338452000,2.966451904296875,4.41294527053833,-2.169435501098633,5.312985420227051
1715093334348431000,2.97643115234375,7.510197162628174,-5.099442481994629,-0.03174924850463867
1715093334358379800,2.9863798828125,7.407176971435547,-10.358375549316406,-5.552595138549805
1715093334368359200,2.996359130859375,6.61245059967041,-8.443540573120117,-3.996466636657715
1715093334378338300,3.00633837890625,5.278936386108398,-0.1997356414794922,4.326875686645508
1715093334388317700,3.016317626953125,-0.27533477544784546,1.373046875,5.2028303146362305
1715093334398296800,3.026296875,-2.966362476348877,-2.216109275817871,-3.3902580738067627
1715093334408245500,3.03624560546875,-1.6336863040924072,-4.138026237487793,-8.311877250671387
1715093334418225000,3.046224853515625,-2.7719058990478516,-5.518501281738281,-9.197371482849121
1715093334428173600,3.056173583984375,-4.287315368652344,-4.318552017211914,-7.001960754394531
1715093334438153000,3.066153076171875,-2.975923776626587,-3.8089284896850586,-7.310026168823242
1715093334448132000,3.076132080078125,-1.326585054397583,-4.753473281860352,-6.51030158996582
1715093334458080800,3.086080810546875,-0.3248720169067383,-2.568450927734375,-3.7461252212524414
1715093334468060200,3.09606005859375,1.301459789276123,-2.9826183319091797,-1.9006071090698242
1715093334478039300,3.106039306640625,-0.096743643283844,-3.883051872253418,-0.8952765464782715
1715093334487988000,3.115988037109375,-0.12247300148010254,-3.0139856338500977,-0.794877290725708
1715093334497967400,3.12596728515625,0.3267495930194855,-2.4483537673950195,-1.3985018730163574
1715093334507946500,3.135946533203125,0.855250358581543,-1.345010757446289,-0.6734838485717773
1715093334517895200,3.145895263671875,0.5863387584686279,-2.5206098556518555,1.6301486492156982
1715093334527874600,3.15587451171875,1.5800371170043945,-2.9012765884399414,2.921658515930176
1715093334537853700,3.165853759765625,1.1597809791564941,-2.9536972045898438,2.9661340713500977
1715093334547802600,3.175802734375,0.9409282207489014,-2.8476486206054688,2.379589080810547
1715093334557781800,3.18578173828125,0.7447555065155029,-3.271939277648926,2.6571249961853027
1715093334567761000,3.195760986328125,0.8379724025726318,-3.586864471435547,2.309840679168701
1715093334577709800,3.205709716796875,1.3496348857879639,-3.12310791015625,0.9277753829956055
1715093334587689000,3.21568896484375,2.4030954837799072,-0.5824785232543945,-2.226172685623169
1715093334597668400,3.22566845703125,2.9427332878112793,0.9860143661499023,-1.405207633972168
1715093334607617000,3.235616943359375,1.936080813407898,2.3233938217163086,-0.4517331123352051
1715093334617596200,3.24559619140625,-0.137162446975708,1.8002033233642578,-0.6676414012908936
1715093334627575600,3.255575439453125,-1.6498528718948364,1.444930076599121,-1.770418405532837
1715093334637524200,3.265524169921875,-0.3062795400619507,1.3069829940795898,-0.7743492126464844
1715093334647503400,3.27550341796875,1.5311254262924194,-0.4887247085571289,-0.2640957832336426
1715093334657482800,3.285482666015625,1.451362133026123,-1.7188940048217773,-0.38797688484191895
1715093334667462000,3.2954619140625,1.5836338996887207,-1.6405601501464844,-0.2589902877807617
1715093334677441300,3.305441162109375,0.5757964253425598,-0.9755945205688477,1.366155982017517
1715093334687390000,3.315389892578125,-0.658787727355957,-0.3694648742675781,2.732032537460327
1715093334697369000,3.325369140625,-3.4988255500793457,1.0864267349243164,3.36114764213562
1715093334707348500,3.335348388671875,0.03347945213317871,2.5195226669311523,-0.7755630016326904
1715093334717297200,3.345297119140625,0.2555198669433594,5.811587333679199,0.2058173418045044
1715093334727276300,3.3552763671875,-1.3315978050231934,6.858468055725098,-0.2402421236038208
1715093334737255700,3.365255615234375,-1.3760005235671997,3.5142593383789062,-2.1380696296691895
1715093334747204400,3.375204345703125,0.45739078521728516,2.425077438354492,-0.4152590036392212
1715093334757183500,3.38518359375,1.148906946182251,2.2481374740600586,-1.082002878189087
1715093334767163000,3.395162841796875,-0.03700292110443115,2.0898399353027344,-1.4832978248596191
1715093334777111600,3.405111572265625,-2.12749981880188,1.8842172622680664,-1.5575051307678223
1715093334787091000,3.415091064453125,-3.3089632987976074,4.282174110412598,-0.38539987802505493
1715093334797070000,3.425070068359375,-6.80049991607666,-0.8403692245483398,6.841499328613281
1715093334807018800,3.435018798828125,-7.998449325561523,-5.784637451171875,2.3168110847473145
1715093334816998100,3.444998046875,-2.6577305793762207,-1.2948417663574219,2.2950782775878906
1715093334826977300,3.454977294921875,8.009217262268066,2.616255760192871,-2.91428804397583
1715093334836926000,3.464926025390625,1.418451189994812,-0.236602783203125,-4.702078342437744
1715093334846905300,3.4749052734375,-1.1237727403640747,-2.4919605255126953,1.0496598482131958
1715093334856884500,3.484884521484375,11.127017974853516,3.0300064086914062,6.431431293487549
1715093334866833200,3.494833251953125,7.484938144683838,9.327030181884766,7.424923419952393
1715093334876812500,3.5048125,0.8217865824699402,10.272708892822266,1.5140233039855957
1715093334886791700,3.514791748046875,-1.5713088512420654,5.676475524902344,1.105830430984497
1715093334896740600,3.52474072265625,-4.199595928192139,1.1512928009033203,-0.3209548592567444
1715093334906719700,3.5347197265625,-8.115669250488281,2.669497489929199,0.8266439437866211
1715093334916699000,3.544698974609375,-8.652405738830566,8.699875831604004,2.2017509937286377
1715093334926647800,3.554647705078125,-4.771474838256836,9.255416870117188,1.8303707838058472
1715093334936627000,3.564626953125,6.321093559265137,1.7735824584960938,-4.520323753356934
1715093334946606300,3.5746064453125,6.238662242889404,-0.6200408935546875,-3.2154650688171387
1715093334956585500,3.58458544921875,4.070413589477539,-3.6598644256591797,-0.7481926679611206
1715093334966564600,3.594564697265625,0.6208416223526001,-15.330543518066406,7.666924953460693
1715093334976513500,3.604513427734375,-2.9227662086486816,-13.44061279296875,5.1542840003967285
1715093334986492700,3.61449267578125,-2.65761399269104,-5.390384674072266,2.995269536972046
1715093334996472000,3.62447216796875,-0.7104474306106567,-7.809144973754883,-0.9298726916313171
1715093335006420700,3.634420654296875,0.7166334390640259,-10.434130668640137,-1.3360552787780762
1715093335016400000,3.64439990234375,1.5853137969970703,-7.528088569641113,1.137099027633667
1715093335026379300,3.654379150390625,3.4191436767578125,-4.896974563598633,1.3254566192626953
1715093335036328000,3.664327880859375,0.6173887848854065,-2.7893781661987305,2.7005977630615234
1715093335046307000,3.67430712890625,0.12981797754764557,-1.2883167266845703,2.9180495738983154
1715093335056256000,3.684256103515625,0.3262515664100647,0.30724620819091797,2.5037035942077637
1715093335066235100,3.694235107421875,0.6714543104171753,1.8461589813232422,2.1293725967407227
1715093335076214300,3.70421435546875,0.14436087012290955,3.202141761779785,1.3045165538787842
1715093335086163200,3.7141630859375,-0.34469839930534363,4.11525821685791,0.40078461170196533
1715093335096142300,3.724142333984375,0.5897691249847412,4.062259674072266,-1.4885483980178833
1715093335106121700,3.734121826171875,0.5092018246650696,3.408940315246582,-0.754474401473999
1715093335116070400,3.7440703125,-1.6267672777175903,0.8095912933349609,0.15393030643463135
1715093335126049500,3.754049560546875,2.414612054824829,-1.0152511596679688,0.9650717973709106
1715093335136029000,3.76402880859375,2.9150843620300293,1.4144983291625977,-0.2595616579055786
1715093335145977600,3.7739775390625,2.2517714500427246,4.2610673904418945,-0.27625441551208496
1715093335155956700,3.783956787109375,1.4863702058792114,4.1050920486450195,0.751868486404419
1715093335165936000,3.79393603515625,1.1322546005249023,2.818775177001953,1.1955335140228271
1715093335175884800,3.803884765625,1.158536434173584,2.6059398651123047,0.7338911294937134
1715093335185864000,3.813864013671875,1.3439315557479858,2.737733840942383,0.7065281867980957
1715093335195843300,3.82384326171875,1.454209327697754,2.831266403198242,0.6089303493499756
1715093335205822500,3.833822509765625,1.5313440561294556,2.8080387115478516,0.5113049745559692
1715093335215771100,3.843771240234375,1.6850953102111816,2.649333953857422,0.6171494722366333
1715093335225750500,3.85375048828125,2.1157419681549072,2.4617366790771484,1.0869790315628052
1715093335235729700,3.863729736328125,1.7062251567840576,2.0879087448120117,1.164815068244934
1715093335245709000,3.873708984375,1.6384443044662476,1.9637336730957031,1.8909554481506348
1715093335255657700,3.88365771484375,1.3826212882995605,1.5871315002441406,2.741089105606079
1715093335265636900,3.893636962890625,1.0494942665100098,1.0017881393432617,3.4375829696655273
1715093335275616300,3.9036162109375,0.4461168944835663,0.1822061538696289,3.9069442749023438
1715093335285565000,3.91356494140625,-0.15362906455993652,-0.8371486663818359,4.205470561981201
1715093335295544300,3.92354443359375,-0.0778036117553711,-1.9134550094604492,4.1529645919799805
1715093335305523500,3.9335234375,0.09811592102050781,-3.1330108642578125,3.6894941329956055
1715093335315472100,3.94347216796875,0.694380521774292,-3.97503662109375,3.385610818862915
1715093335325451500,3.953451416015625,1.306482195854187,-4.087577819824219,3.109748363494873
1715093335335430700,3.9634306640625,1.9528517723083496,-3.279298782348633,3.058488368988037
1715093335345379300,3.97337939453125,2.3570737838745117,-2.23056697845459,3.050379514694214
1715093335355358700,3.983358642578125,2.601738452911377,-1.3381805419921875,3.6092631816864014
1715093335365337900,3.993337890625,2.441054344177246,-0.8371553421020508,4.1585693359375
1715093335375286500,4.00328662109375,2.498100519180298,-1.1492605209350586,4.596269607543945
1715093335385266000,4.013265869140625,1.9831461906433105,-3.077096939086914,4.478885650634766
1715093335395245000,4.0232451171875,1.2895396947860718,-5.755708694458008,3.5447678565979004
1715093335405194000,4.033194091796875,-0.247653067111969,-8.024499893188477,1.660828948020935
1715093335415173000,4.043173095703125,-1.8860068321228027,-7.179476737976074,-0.3848992586135864
1715093335425152300,4.05315234375,-3.245274543762207,-3.8126068115234375,-1.7395758628845215
1715093335435101200,4.06310107421875,-1.9716897010803223,-1.3775157928466797,-2.5745158195495605
1715093335445080300,4.073080322265625,-0.8937504291534424,-0.11590957641601562,-3.596935272216797
1715093335455059700,4.083059814453125,-1.2021334171295166,0.8584079742431641,-3.357506513595581
1715093335465008400,4.09300830078125,-1.1871592998504639,1.264908790588379,-1.824393391609192
1715093335474987500,4.102987548828125,-1.0481138229370117,1.502751350402832,-1.3971589803695679
1715093335484936200,4.112936279296875,-1.0707210302352905,1.6858501434326172,-1.4755066633224487
1715093335494915600,4.12291552734375,-1.027146816253662,2.2092790603637695,-1.8721747398376465
1715093335504894700,4.132894775390625,-1.0181149244308472,3.2650957107543945,-1.7274266481399536
1715093335514874000,4.1428740234375,-1.0879428386688232,3.1427764892578125,-1.783082365989685
1715093335524853200,4.152853271484375,-0.6072855591773987,1.784994125366211,-2.870208263397217
1715093335534802000,4.162802001953125,-0.7961159944534302,0.4515104293823242,-3.980201244354248
1715093335544781300,4.17278125,-0.6729108095169067,-0.4697427749633789,-4.941778659820557
1715093335554760400,4.182760498046875,-0.11410695314407349,-0.6927423477172852,-5.6754984855651855
1715093335564709400,4.19270947265625,0.44136446714401245,0.08020687103271484,-5.9989800453186035
1715093335574688500,4.2026884765625,0.9127498865127563,1.4367141723632812,-5.537769317626953
1715093335584667600,4.212667724609375,1.070643424987793,2.3697633743286133,-4.905367851257324
1715093335594616600,4.222616455078125,0.41293251514434814,2.801814079284668,-4.431064128875732
1715093335604595700,4.232595703125,0.9483136534690857,2.877420425415039,-3.90629243850708
1715093335614574800,4.242574951171875,0.9314579367637634,2.3206615447998047,-3.7993006706237793
1715093335624523800,4.252523681640625,0.7466867566108704,1.4698190689086914,-3.794806480407715
1715093335634503000,4.2625029296875,0.5361604690551758,0.623652458190918,-3.314387083053589
1715093335644482300,4.272482421875,0.18917661905288696,-0.0013895034790039062,-2.5757639408111572
1715093335654431000,4.282430908203125,0.09201502799987793,-0.2463998794555664,-1.9351364374160767
1715093335664410000,4.29241015625,-0.0002651214599609375,-0.24170207977294922,-1.2412598133087158
1715093335674389500,4.302389404296875,0.1659308671951294,0.014576911926269531,-0.17469453811645508
1715093335684338200,4.312338134765625,0.3619290590286255,0.6565523147583008,0.5992740392684937
1715093335694317300,4.3223173828125,0.3453103303909302,1.2168636322021484,0.7370490431785583
1715093335704296700,4.332296630859375,0.01728498935699463,1.8031806945800781,0.7451685070991516
1715093335714245400,4.342245361328125,-0.07572627067565918,2.0685577392578125,0.7145699858665466
1715093335724224500,4.352224609375,-0.5967810153961182,1.4656505584716797,0.8033451437950134
1715093335734204000,4.362203857421875,-0.6356281042098999,0.8720207214355469,0.7100960612297058
1715093335744152600,4.372152587890625,-0.15155291557312012,1.8402948379516602,0.21578839421272278
1715093335754132000,4.382132080078125,-0.12332630157470703,0.9010066986083984,0.869985818862915
1715093335764111000,4.392111083984375,0.19283103942871094,0.6677627563476562,0.8545118570327759
1715093335774059800,4.402059814453125,0.249426007270813,0.004756927490234375,1.4843864440917969
1715093335784039200,4.4120390625,-0.19907689094543457,0.6625223159790039,1.4482394456863403
1715093335794018300,4.422018310546875,0.012261152267456055,0.7487316131591797,1.2194918394088745
1715093335803997700,4.431997802734375,-0.04904937744140625,1.0025949478149414,1.8120801448822021
1715093335813946400,4.4419462890625,-0.1434706449508667,1.1703815460205078,2.4603796005249023
1715093335823925500,4.451925537109375,-0.15532004833221436,1.1206130981445312,2.649482011795044
1715093335833905000,4.46190478515625,-0.19121825695037842,0.7531461715698242,3.0008089542388916
1715093335843884000,4.471884033203125,0.048989295959472656,0.4598722457885742,2.928931713104248
1715093335853832700,4.481832763671875,0.0657355785369873,0.08495903015136719,2.991739511489868
1715093335863812000,4.49181201171875,0.509899377822876,-0.42391109466552734,2.415088176727295
1715093335873791200,4.501791259765625,1.258972406387329,-0.7743558883666992,1.872352957725525
1715093335883740000,4.511739990234375,2.0861120223999023,-0.8268070220947266,1.4779468774795532
1715093335893719300,4.52171923828125,3.2382733821868896,-0.7570924758911133,0.7033425569534302
1715093335903698400,4.531698486328125,4.203704833984375,-0.5639286041259766,0.12779709696769714
1715093335913647400,4.5416474609375,5.805068016052246,0.08719158172607422,0.5806576013565063
1715093335923626500,4.55162646484375,6.420722007751465,0.4604015350341797,0.14065301418304443
1715093335933605600,4.561605712890625,6.901859283447266,0.6430892944335938,0.3462793827056885
1715093335943554600,4.571554443359375,7.016338348388672,-0.1103353500366211,0.1450704038143158
1715093335953533700,4.58153369140625,6.074711799621582,-0.8320198059082031,0.08565524220466614
1715093335963512800,4.591512939453125,4.945268630981445,-1.4590635299682617,0.4215661883354187
1715093335973461800,4.601461669921875,3.9182381629943848,-1.9861183166503906,0.656038761138916
1715093335983441000,4.61144091796875,3.6840147972106934,-2.514568328857422,0.8324823379516602
1715093335993420300,4.621420166015625,2.789041519165039,-2.943985939025879,1.1869289875030518
1715093336003369000,4.631368896484375,2.5821876525878906,-2.9186716079711914,1.4043346643447876
1715093336013348000,4.64134814453125,3.10294771194458,-1.9991369247436523,1.8015878200531006
1715093336023327500,4.651327392578125,2.3410327434539795,-0.7259998321533203,2.60095477104187
1715093336033276200,4.661276123046875,0.6066598892211914,0.04815959930419922,3.323502540588379
1715093336043255300,4.67125537109375,0.2417144775390625,0.5260276794433594,3.310662031173706
1715093336053204200,4.681204345703125,0.3097456693649292,0.5083293914794922,2.015904188156128
1715093336063183400,4.691183349609375,-0.6444365978240967,0.8714027404785156,1.9668898582458496
1715093336073162500,4.70116259765625,-0.8522847890853882,1.2109012603759766,0.5907660722732544
1715093336083142000,4.711141845703125,-0.38536882400512695,1.578268051147461,-1.8714630603790283
1715093336093121000,4.72112109375,-0.22043979167938232,1.4758071899414062,-3.8738298416137695
1715093336103070000,4.731070068359375,-0.6542131900787354,0.2778644561767578,-5.691692352294922
1715093336113049000,4.741049072265625,-2.028432607650757,-1.7293243408203125,-7.160981178283691
1715093336123028200,4.7510283203125,-3.5759289264678955,-3.240133285522461,-8.295949935913086
1715093336132977200,4.76097705078125,-4.946283340454102,-4.062684059143066,-8.472938537597656
1715093336142956300,4.770956298828125,-5.958988666534424,-5.292896270751953,-7.704763412475586
1715093336152935700,4.780935791015625,-6.556370258331299,-6.532279014587402,-5.7793402671813965
1715093336162884400,4.79088427734375,-5.66059684753418,-7.333846092224121,-0.8696257472038269
1715093336172863500,4.800863525390625,-5.278261184692383,-7.051626205444336,2.0390372276306152
1715093336182843000,4.8108427734375,-6.29985237121582,-4.690310478210449,4.986323356628418
1715093336192791600,4.82079150390625,-6.12618350982666,-2.73043155670166,6.9779887199401855
1715093336202770700,4.830770751953125,-8.465070724487305,-3.078263282775879,7.22316837310791
1715093336212750000,4.84075,-7.303032398223877,-0.7335748672485352,8.77034854888916
1715093336222698800,4.85069873046875,-5.164906978607178,2.181464195251465,7.922530174255371
1715093336232678000,4.860677978515625,-2.042520523071289,3.5803089141845703,6.203513145446777
1715093336242657300,4.8706572265625,-1.2078814506530762,3.2892351150512695,4.353888988494873
1715093336252606000,4.88060595703125,-1.2591732740402222,2.0986175537109375,2.192465305328369
1715093336262585300,4.89058544921875,-1.0364539623260498,0.9138450622558594,0.20862817764282227
1715093336272564500,4.900564453125,-0.4209035634994507,0.5265798568725586,-1.088563084602356
1715093336282513200,4.91051318359375,0.1346808671951294,0.6567487716674805,-1.6899456977844238
1715093336292492500,4.920492431640625,0.6507482528686523,1.172053337097168,-1.7894220352172852
1715093336302471700,4.9304716796875,0.8131426572799683,1.6768217086791992,-2.327763319015503
1715093336312420400,4.94042041015625,0.5688573122024536,2.0643959045410156,-3.127823829650879
1715093336322399700,4.950399658203125,0.12082970142364502,2.345113754272461,-3.492943525314331
1715093336332379000,4.96037890625,-0.2823430299758911,2.594057083129883,-3.5499484539031982
1715093336342327600,4.97032763671875,-0.6338678598403931,2.910914421081543,-3.5325944423675537
1715093336352307000,4.980306884765625,-0.9020664691925049,3.1399660110473633,-3.4562766551971436
1715093336362286000,4.9902861328125,-0.9701535701751709,3.1918439865112305,-3.3976237773895264
1715093336372265500,5.000265380859375,-1.0602076053619385,3.3410558700561523,-3.4420342445373535
1715093336382214100,5.010214111328125,-0.5824804306030273,3.372201919555664,-3.3278462886810303
1715093336392193300,5.020193359375,-0.1049264669418335,3.2577247619628906,-3.266639471054077
1715093336402172700,5.030172607421875,0.22950327396392822,3.008791923522949,-3.207376003265381
1715093336412151800,5.04015185546875,0.48057126998901367,2.7687721252441406,-2.9625589847564697
1715093336422100500,5.0501005859375,0.7395257949829102,2.4725961685180664,-2.4029886722564697
1715093336432080000,5.060079833984375,1.0176022052764893,2.175006866455078,-1.6553981304168701
1715093336442059000,5.07005908203125,1.2555838823318481,1.865992546081543,-0.6136939525604248
1715093336452008000,5.080008056640625,1.2464005947113037,1.253952980041504,0.623854398727417
1715093336461987000,5.089987060546875,0.8923869132995605,0.7190532684326172,2.1339707374572754
1715093336471966200,5.09996630859375,0.6308354139328003,0.8656225204467773,4.2150797843933105
1715093336481915100,5.1099150390625,0.3830820322036743,1.4218225479125977,6.47325325012207
1715093336491894300,5.119894287109375,-0.23552846908569336,1.6235008239746094,7.655451774597168
1715093336501873700,5.129873779296875,-1.509592890739441,0.7198362350463867,7.554721832275391
1715093336511822300,5.139822265625,-1.7573825120925903,-0.6728353500366211,6.757500648498535
1715093336521801500,5.149801513671875,-0.7603188753128052,-2.350264549255371,4.882408142089844
1715093336531780900,5.15978076171875,-0.21718454360961914,-4.618976593017578,2.107004165649414
1715093336541729500,5.1697294921875,3.130392074584961,-6.773756980895996,-1.3178197145462036
1715093336551708700,5.179708740234375,7.152796268463135,-8.755373001098633,-3.2911579608917236
1715093336561688000,5.18968798828125,6.833559036254883,-8.120652198791504,-5.291545867919922
1715093336571636700,5.19963671875,1.553942322731018,-3.719803810119629,-4.979320526123047
1715093336581615900,5.209615966796875,-2.314241886138916,-1.8418397903442383,-0.6669270992279053
1715093336591595300,5.21959521484375,-0.42654943466186523,-1.4400148391723633,3.823526382446289
1715093336601544000,5.2295439453125,-3.233914375305176,-1.9773712158203125,4.095772743225098
1715093336611523300,5.2395234375,-4.289323806762695,-4.890012741088867,3.8811872005462646
1715093336621502500,5.24950244140625,-5.865328788757324,-10.601932525634766,3.64982271194458
1715093336631451100,5.259451171875,-8.237163543701172,-12.745747566223145,-1.8548450469970703
1715093336641430500,5.269430419921875,-5.485491752624512,-8.971264839172363,-5.502543926239014
1715093336651409700,5.27940966796875,-3.6802754402160645,-2.814389228820801,-5.591777801513672
1715093336661389000,5.28938916015625,-0.48768192529678345,0.8828954696655273,-2.43454647064209
1715093336671337700,5.299337646484375,1.2576318979263306,3.2756357192993164,-0.9819848537445068
1715093336681316900,5.30931689453125,1.5918195247650146,4.561629295349121,-1.201425552368164
1715093336691296300,5.319296142578125,0.32814130187034607,5.524023056030273,-2.8850460052490234
1715093336701275400,5.329275390625,0.2371116280555725,5.474635124206543,-4.945827960968018
1715093336711224000,5.33922412109375,1.2886898517608643,5.312457084655762,-5.257185935974121
1715093336721203500,5.349203369140625,2.402329683303833,3.892364501953125,-5.608510971069336
1715093336731182600,5.3591826171875,2.601412296295166,1.7987165451049805,-6.271205902099609
1715093336741131300,5.36913134765625,1.5400192737579346,-0.6400346755981445,-7.570540428161621
1715093336751110700,5.379110595703125,-0.6606146097183228,-2.798335075378418,-9.119100570678711
1715093336761089800,5.38908984375,-1.510585069656372,-3.1165342330932617,-8.461140632629395
1715093336771038700,5.399038818359375,0.39488524198532104,-1.0279855728149414,-6.36992883682251
1715093336781017900,5.409017822265625,2.1254634857177734,1.9224681854248047,-5.14089822769165
1715093336790997000,5.4189970703125,2.8356640338897705,4.082121849060059,-4.22976541519165
1715093336800946000,5.42894580078125,1.7556226253509521,5.315321922302246,-3.3230714797973633
1715093336810925000,5.438925048828125,3.2050583362579346,5.62629508972168,-1.022485613822937
1715093336820904200,5.448904296875,5.2860517501831055,4.1944990158081055,0.3272138833999634
1715093336830853000,5.45885302734375,3.2061502933502197,1.985154151916504,1.385789155960083
1715093336840832300,5.468832275390625,-1.3887205123901367,-0.07523155212402344,2.851628303527832
1715093336850811600,5.478811767578125,-2.205514430999756,-2.216181755065918,3.712930679321289
1715093336860760300,5.48876025390625,-1.9638254642486572,-1.2861099243164062,2.5098533630371094
1715093336870739500,5.498739501953125,-1.2547364234924316,-1.7381258010864258,3.812873601913452
1715093336880718800,5.50871875,-0.6910557746887207,-1.0973014831542969,3.356752395629883
1715093336890667500,5.51866748046875,-0.7802191972732544,0.22032737731933594,2.5507259368896484
1715093336900646700,5.528646728515625,-0.7676612138748169,1.3268070220947266,1.9808049201965332
1715093336910595600,5.538595703125,-0.5896400809288025,1.6662483215332031,1.7088844776153564
1715093336920574700,5.54857470703125,-0.4376968741416931,1.913818359375,1.5772862434387207
1715093336930553900,5.558553955078125,-0.24059689044952393,1.5586585998535156,1.6741511821746826
1715093336940533200,5.568533203125,0.23623120784759521,1.3982019424438477,2.1371326446533203
1715093336950512400,5.578512451171875,0.3897571563720703,1.458775520324707,2.4651877880096436
1715093336960461300,5.58846142578125,0.20050764083862305,1.4632301330566406,2.473888635635376
1715093336970440400,5.5984404296875,-0.15326929092407227,1.389906883239746,2.2451469898223877
1715093336980419600,5.608419677734375,-0.7667627334594727,1.1660633087158203,1.9425766468048096
1715093336990368500,5.618368408203125,-0.9377719163894653,0.9051055908203125,1.7162072658538818
1715093337000347600,5.62834765625,-0.43399572372436523,0.5005245208740234,1.5908769369125366
1715093337010327000,5.6383271484375,1.0897653102874756,0.18001079559326172,1.4951869249343872
1715093337020275700,5.648275634765625,3.022742986679077,0.03677940368652344,1.4583748579025269
1715093337030254800,5.6582548828125,5.0934576988220215,0.1411571502685547,1.2141730785369873
1715093337040234200,5.668234130859375,6.461307525634766,0.9769535064697266,1.76913583278656
1715093337050183000,5.678182861328125,7.143108367919922,1.9337348937988281,2.5300726890563965
1715093337060162000,5.688162109375,6.771891117095947,2.7069311141967773,2.8430702686309814
1715093337070141400,5.698141357421875,5.692005634307861,3.0168542861938477,3.451105833053589
1715093337080090000,5.708090087890625,3.6011087894439697,2.1596479415893555,3.4202380180358887
1715093337090069200,5.7180693359375,2.2671868801116943,0.527256965637207,3.5877678394317627
1715093337100048600,5.728048583984375,2.455247163772583,-1.2380008697509766,3.3505449295043945
1715093337109997300,5.737997314453125,3.3815746307373047,-2.3916854858398438,2.862751007080078
1715093337119976700,5.747976806640625,4.1725568771362305,-2.804013252258301,2.5139167308807373
1715093337129955800,5.757955810546875,5.289843559265137,-2.385526657104492,2.7699761390686035
1715093337139904500,5.767904541015625,4.244387149810791,-1.5625123977661133,3.202188491821289
1715093337149884000,5.7778837890625,2.4035227298736572,-1.094538688659668,2.9645628929138184
1715093337159863000,5.787863037109375,0.5864603519439697,-0.16692733764648438,2.6442203521728516
1715093337169811700,5.797811767578125,-1.9243590831756592,0.5879640579223633,2.412691354751587
1715093337179791000,5.807791015625,-2.7557106018066406,0.9802370071411133,0.8142111897468567
1715093337189770200,5.817770263671875,-2.324742078781128,1.0432109832763672,-1.384548306465149
1715093337199719000,5.827718994140625,-1.8522777557373047,0.6701288223266602,-2.82613468170166
1715093337209698300,5.8376982421875,-2.080231189727783,-0.4195823669433594,-4.757103443145752
1715093337219677400,5.847677490234375,-3.4081485271453857,-2.1504592895507812,-7.145804405212402
1715093337229656800,5.85765673828125,-4.416689395904541,-4.153805732727051,-9.131691932678223
1715093337239605500,5.86760546875,-4.4886088371276855,-5.495668411254883,-9.220702171325684
1715093337249584600,5.877584716796875,-4.114401817321777,-6.987198829650879,-8.52270793914795
1715093337259564000,5.88756396484375,-4.178146839141846,-9.13696575164795,-6.99191951751709
1715093337269543200,5.897543212890625,-4.007011890411377,-10.289413452148438,-3.4612390995025635
1715093337279491800,5.907491943359375,-4.46143102645874,-9.88608455657959,0.3570489287376404
1715093337289471200,5.91747119140625,-5.583966255187988,-8.64157485961914,2.967197895050049
1715093337299450400,5.927450439453125,-7.770886421203613,-6.161750793457031,4.9574666023254395
1715093337309399300,5.9373994140625,-9.527472496032715,-2.44077205657959,7.973564147949219
1715093337319378400,5.94737841796875,-8.379979133605957,0.17462539672851562,7.788801193237305
1715093337329357600,5.957357666015625,-6.016742706298828,2.8008766174316406,5.80250358581543
1715093337339306500,5.967306396484375,-3.458242893218994,4.645946502685547,4.998208045959473
1715093337349285600,5.97728564453125,-2.508894681930542,4.488785743713379,2.7865071296691895
1715093337359265000,5.98726513671875,-2.4576668739318848,3.6024913787841797,1.330645203590393
1715093337369213700,5.997213623046875,-1.6601520776748657,2.711334228515625,-0.03529155254364014
1715093337379192800,6.00719287109375,-0.18354177474975586,2.067180633544922,-1.5236117839813232
1715093337389172200,6.017172119140625,1.0739167928695679,1.4880695343017578,-2.5592761039733887
1715093337399121000,6.027120849609375,1.6576162576675415,1.7293596267700195,-2.8524022102355957
1715093337409100000,6.03710009765625,1.8307411670684814,2.203768730163574,-3.777073621749878
1715093337419079400,6.047079345703125,1.472987413406372,2.638861656188965,-4.402590274810791
1715093337429028000,6.057028076171875,0.3760868310928345,2.975682258605957,-4.147129535675049
1715093337439007200,6.06700732421875,-0.7550643682479858,3.141460418701172,-3.578482151031494
1715093337448986600,6.076986572265625,-1.6899000406265259,3.1768341064453125,-2.981945037841797
1715093337458935300,6.086935302734375,-2.491792678833008,3.011324882507324,-2.6467487812042236
1715093337468914700,6.096914794921875,-2.9303030967712402,2.8086185455322266,-2.595262050628662
1715093337478893800,6.106893798828125,-2.8751444816589355,2.6731700897216797,-2.4992618560791016
1715093337488842500,6.116842529296875,-2.1062707901000977,2.5564022064208984,-2.3348875045776367
1715093337498822000,6.12682177734375,-0.6295936107635498,2.6680068969726562,-2.246086359024048
1715093337508801000,6.136801025390625,0.770656943321228,2.916804313659668,-2.3302056789398193
1715093337518780400,6.146780517578125,1.4691263437271118,3.1631345748901367,-2.287893772125244
1715093337528729000,6.15672900390625,1.7534971237182617,3.4495601654052734,-1.9043328762054443
1715093337538708200,6.166708251953125,1.9089782238006592,3.541853904724121,-1.0752055644989014
1715093337548687600,6.1766875,1.7487763166427612,3.4087533950805664,0.6126421689987183
1715093337558666800,6.186666748046875,1.6486181020736694,4.029702186584473,3.504195213317871
1715093337568615400,6.196615478515625,1.1613492965698242,4.459101676940918,6.289729595184326
1715093337578594800,6.2065947265625,0.46280789375305176,3.7749528884887695,7.76497745513916
1715093337588574000,6.216573974609375,-0.4784802198410034,2.02437686920166,8.947019577026367
1715093337598522600,6.226522705078125,-1.2523152828216553,-0.5421133041381836,10.080358505249023
1715093337608502000,6.236501953125,-0.840088963508606,-2.760685920715332,8.75058364868164
1715093337618481200,6.246481201171875,-1.2988054752349854,-5.130223274230957,4.075830459594727
1715093337628429800,6.256429931640625,-1.064458966255188,-7.218101501464844,-1.7081401348114014
1715093337638409200,6.2664091796875,-1.3168418407440186,-9.650190353393555,-5.715078830718994
1715093337648388400,6.276388427734375,0.20654618740081787,-10.483880043029785,-7.113193988800049
1715093337658337300,6.286337158203125,2.410215377807617,-4.544836044311523,-2.33486008644104
1715093337668316400,6.29631640625,2.1670353412628174,2.00048828125,1.8719794750213623
1715093337678295600,6.306295654296875,1.2839882373809814,1.7440071105957031,3.5167174339294434
1715093337688244500,6.316244384765625,1.981436848640442,-2.780122756958008,5.003901958465576
1715093337698223600,6.3262236328125,-1.9783837795257568,-6.254214286804199,4.547380447387695
1715093337708203000,6.336203125,-5.700666427612305,-9.406876564025879,3.7684340476989746
1715093337718151700,6.346151611328125,-8.949628829956055,-13.12317943572998,2.495391368865967
1715093337728130800,6.356130859375,-5.17115592956543,-11.2814359664917,-3.3514490127563477
1715093337738079500,6.36607958984375,-1.1043423414230347,-2.387057304382324,-7.945387363433838
1715093337748059000,6.376058837890625,-1.5280202627182007,2.7143125534057617,-5.12135124206543
1715093337758038000,6.3860380859375,0.537700891494751,2.976254463195801,-2.0168650150299072
1715093337767987000,6.395987060546875,0.7495821714401245,1.8534173965454102,0.1569521427154541
1715093337777966000,6.405966064453125,-0.5464964509010315,0.7696533203125,0.8481194972991943
1715093337787945200,6.4159453125,-0.670905351638794,0.8148841857910156,0.14302444458007812
1715093337797924600,6.425924560546875,0.14869828522205353,0.4980907440185547,-1.2837629318237305
1715093337807903700,6.43590380859375,1.0119378566741943,-0.7033548355102539,-2.806326389312744
1715093337817852700,6.445852783203125,1.7679930925369263,-1.6374788284301758,-4.598906517028809
1715093337827831800,6.455831787109375,2.2116549015045166,-2.0056066513061523,-5.602443695068359
1715093337837811000,6.46581103515625,1.3558681011199951,-2.082918167114258,-6.67941951751709
1715093337847760000,6.475759765625,0.31388527154922485,-1.4628591537475586,-8.108686447143555
1715093337857739000,6.485739013671875,-0.632834255695343,0.15776729583740234,-7.034135818481445
1715093337867718400,6.495718505859375,-1.1224331855773926,1.5368108749389648,-5.335674285888672
1715093337877667000,6.5056669921875,-0.7747914791107178,2.6138086318969727,-4.109660625457764
1715093337887646200,6.515646240234375,0.01932978630065918,3.209242820739746,-3.826108932495117
1715093337897625600,6.52562548828125,1.1414518356323242,3.5070037841796875,-3.6348655223846436
1715093337907574300,6.53557421875,1.8498692512512207,3.480520248413086,-3.6041107177734375
1715093337917553400,6.545553466796875,1.9647190570831299,2.9117984771728516,-3.4362447261810303
1715093337927532800,6.55553271484375,1.3793057203292847,2.017528533935547,-3.178189754486084
1715093337937481500,6.5654814453125,0.48259544372558594,1.252981185913086,-2.722496509552002
1715093337947460600,6.575460693359375,-0.19885754585266113,0.7652015686035156,-2.2342514991760254
1715093337957440000,6.58543994140625,-0.6963493824005127,0.585728645324707,-1.6325639486312866
1715093337967388700,6.595388671875,-0.7480778694152832,0.8060646057128906,-0.5646731853485107
1715093337977368000,6.6053681640625,-0.4827638864517212,1.2666959762573242,0.4153672456741333
1715093337987347200,6.61534716796875,-0.12917113304138184,1.7010488510131836,1.096144199371338
1715093337997295900,6.6252958984375,0.3199307918548584,2.053839683532715,1.4171630144119263
1715093338007275300,6.635275146484375,0.9080740213394165,2.404290199279785,1.631986379623413
1715093338017254400,6.64525439453125,1.505171537399292,2.4185056686401367,1.4155521392822266
1715093338027203000,6.655203125,1.9653863906860352,2.287149429321289,1.143142580986023
1715093338037182500,6.665182373046875,2.3782339096069336,1.9492149353027344,1.049190878868103
1715093338047161600,6.67516162109375,2.3052940368652344,1.3396186828613281,0.7962020039558411
1715093338057110300,6.6851103515625,2.1984708309173584,0.9638853073120117,1.301108956336975
1715093338067089700,6.695089599609375,1.6822338104248047,0.6221551895141602,1.8190298080444336
1715093338077068800,6.70506884765625,1.0146405696868896,0.3576040267944336,2.3286325931549072
1715093338087048200,6.715048095703125,0.6744611263275146,0.21087169647216797,2.7917749881744385
1715093338096996900,6.724996826171875,0.991408109664917,0.12817764282226562,3.439359188079834
1715093338106976000,6.73497607421875,2.2900280952453613,0.4016904830932617,3.8827106952667236
1715093338116955400,6.744955322265625,4.123150825500488,0.9979419708251953,3.9266481399536133
1715093338126934500,6.7549345703125,5.392707824707031,2.1346864700317383,3.7514047622680664
1715093338136883200,6.76488330078125,6.247648239135742,2.4731597900390625,4.196107864379883
1715093338146862600,6.774862548828125,6.315945148468018,2.550337791442871,3.6447060108184814
1715093338156841700,6.784841796875,5.247805118560791,2.36398983001709,3.6068649291992188
1715093338166790700,6.794790771484375,4.264841079711914,1.0752668380737305,3.5775504112243652
1715093338176769800,6.804769775390625,3.908836603164673,-1.087967872619629,3.7429118156433105
1715093338186749000,6.8147490234375,4.058633327484131,-2.7566709518432617,2.6732535362243652
1715093338196697900,6.82469775390625,5.791024208068848,-3.6448612213134766,1.5226885080337524
1715093338206677000,6.834677001953125,7.3990983963012695,-3.8943958282470703,0.5126151442527771
1715093338216656400,6.844656494140625,6.221331596374512,-2.867457389831543,1.217559814453125
1715093338226605000,6.85460498046875,2.894782304763794,-1.7613792419433594,2.350081205368042
1715093338236584200,6.864584228515625,0.5386464595794678,-0.9617834091186523,3.0759150981903076
1715093338246563600,6.8745634765625,-0.6491937637329102,0.13951587677001953,3.024076223373413
1715093338256512300,6.88451220703125,-2.1329286098480225,1.4905338287353516,1.8980858325958252
1715093338266491400,6.894491455078125,-2.729292631149292,2.335296630859375,-0.5425525903701782
1715093338276470800,6.904470703125,-2.00510835647583,2.497105598449707,-3.1223340034484863
1715093338286419500,6.91441943359375,-1.1191586256027222,1.6324682235717773,-5.37764310836792
1715093338296398600,6.924398681640625,-2.3149685859680176,-0.6209545135498047,-7.938726425170898
1715093338306378000,6.9343779296875,-3.8004331588745117,-3.266977310180664,-10.315802574157715
1715093338316326700,6.94432666015625,-3.7408957481384277,-5.623578071594238,-12.03796100616455
1715093338326306000,6.95430615234375,-3.321671962738037,-7.8302106857299805,-11.63096809387207
1715093338336285200,6.96428515625,-3.3849480152130127,-9.41258430480957,-8.380437850952148
1715093338346233900,6.97423388671875,-3.317436695098877,-10.609330177307129,-4.219128131866455
1715093338356213200,6.984213134765625,-3.185464382171631,-11.760098457336426,-0.37259799242019653
1715093338366192400,6.9941923828125,-4.879334926605225,-11.841408729553223,2.134882688522339
1715093338376171800,7.004171875,-8.375814437866211,-9.977144241333008,3.564560651779175
1715093338386120400,7.014120361328125,-11.832571029663086,-4.561511993408203,8.66200065612793
1715093338396099600,7.024099609375,-11.104390144348145,-1.504734992980957,8.786589622497559
1715093338406079000,7.034078857421875,-9.173551559448242,0.7168645858764648,6.10806131362915
1715093338416058000,7.04405810546875,-4.508301258087158,3.4795541763305664,4.737478733062744
1715093338426006800,7.0540068359375,-1.5351601839065552,4.501572608947754,3.627406597137451
1715093338435986200,7.063986083984375,-0.6230282783508301,4.07352352142334,2.566222667694092
1715093338445965300,7.07396533203125,-1.360434889793396,2.758173942565918,1.9427192211151123
1715093338455914000,7.0839140625,-1.3489737510681152,1.4690828323364258,2.0849573612213135
1715093338465893400,7.093893310546875,-0.9691256284713745,0.6357755661010742,1.882164478302002
1715093338475872500,7.10387255859375,0.162908673286438,0.5402765274047852,1.5468213558197021
1715093338485821200,7.1138212890625,1.0318130254745483,1.1970319747924805,0.9985203742980957
1715093338495800600,7.123800537109375,1.162286400794983,2.1270084381103516,-0.05611848831176758
1715093338505779700,7.13377978515625,0.7292481660842896,2.8548688888549805,-1.1254637241363525
1715093338515728600,7.143728759765625,0.03535819053649902,3.297478675842285,-1.612238883972168
1715093338525707800,7.153707763671875,-0.5183160305023193,3.604167938232422,-1.9397780895233154
1715093338535687000,7.16368701171875,-0.9230517148971558,3.8181142807006836,-2.181702136993408
1715093338545635800,7.1736357421875,-1.1976399421691895,4.044452667236328,-2.219041109085083
1715093338555615000,7.183614990234375,-1.2093735933303833,4.256041526794434,-2.2498598098754883
1715093338565594400,7.193594482421875,-0.8527166843414307,4.453033447265625,-2.257988929748535
1715093338575543000,7.20354296875,-0.3314244747161865,4.55794620513916,-2.4258201122283936
1715093338585522200,7.213522216796875,0.08934187889099121,4.644467353820801,-2.7089970111846924
1715093338595470800,7.223470947265625,0.5182766914367676,4.61674690246582,-2.952727794647217
1715093338605450200,7.2334501953125,1.209600567817688,4.593921661376953,-2.9627788066864014
1715093338615429400,7.243429443359375,1.9700348377227783,4.620272636413574,-2.8121073246002197
1715093338625378300,7.25337841796875,2.515146255493164,4.6279401779174805,-2.316927909851074
1715093338635357400,7.263357421875,2.7321646213531494,4.613868713378906,-1.3782835006713867
1715093338645336600,7.273336669921875,2.711426019668579,4.703496932983398,0.23666000366210938
1715093338655316000,7.28331591796875,2.4327633380889893,4.996020317077637,2.786310911178589
1715093338665295000,7.293295166015625,1.8830227851867676,4.397930145263672,4.982125282287598
1715093338675244000,7.303244140625,0.37718093395233154,1.8273210525512695,6.024256706237793
1715093338685223200,7.31322314453125,-2.054750680923462,-1.5492973327636719,7.012809753417969
1715093338695202300,7.323202392578125,-1.6544969081878662,-4.294069290161133,5.961677551269531
1715093338705151200,7.333151123046875,1.7985315322875977,-5.479503631591797,2.277822494506836
1715093338715130400,7.34313037109375,2.8418126106262207,-7.557494163513184,-4.0597076416015625
1715093338725109800,7.35310986328125,-0.35489070415496826,-9.32670783996582,-7.630498886108398
1715093338735058400,7.363058349609375,-0.8485329151153564,-7.1270341873168945,-5.485109329223633
1715093338745037600,7.37303759765625,1.9763927459716797,-2.8963546752929688,0.9920172691345215
1715093338755017000,7.383016845703125,2.8182687759399414,0.98046875,5.066129684448242
1715093338764965600,7.392965576171875,1.0976135730743408,2.322999954223633,6.876337051391602
1715093338774944800,7.40294482421875,0.8603290319442749,-0.8461055755615234,8.808250427246094
1715093338784924200,7.412924072265625,0.9590363502502441,-5.874101638793945,8.237527847290039
1715093338794872800,7.422872802734375,-5.097692966461182,-9.01209831237793,4.662611961364746
1715093338804852000,7.43285205078125,-9.02932071685791,-13.627385139465332,-0.6122307777404785
1715093338814831400,7.442831298828125,-6.839320659637451,-16.47632598876953,-3.4538826942443848
1715093338824780000,7.452780029296875,-4.2931809425354,-8.944135665893555,-7.834838390350342
1715093338834759400,7.462759521484375,-2.3521647453308105,0.4103507995605469,-8.877280235290527
1715093338844738600,7.472738525390625,0.349539577960968,2.835763931274414,-5.840635299682617
1715093338854687200,7.482687255859375,2.143589496612549,1.9997367858886719,-3.4950482845306396
1715093338864666600,7.49266650390625,1.2382831573486328,-0.24529457092285156,-1.2986302375793457
1715093338874645800,7.502645751953125,-1.0025969743728638,-1.3997564315795898,-2.0702526569366455
1715093338884594400,7.512594482421875,-1.639045238494873,-2.5490732192993164,-2.5417449474334717
1715093338894573800,7.52257373046875,-0.0891357958316803,-3.7900333404541016,-2.6549248695373535
1715093338904553000,7.532552978515625,1.317117691040039,-3.5885438919067383,-4.031695365905762
1715093338914501600,7.542501708984375,1.3693009614944458,-2.2791967391967773,-5.04117488861084
1715093338924481000,7.55248095703125,0.8715217709541321,-1.061305046081543,-5.7576823234558105
1715093338934460200,7.562460205078125,0.7355313897132874,0.06316947937011719,-5.829981803894043
1715093338944439600,7.572439453125,1.936614751815796,1.209874153137207,-4.89146614074707
1715093338954418700,7.582418701171875,1.4697284698486328,2.0523862838745117,-4.764647483825684
1715093338964367400,7.592367431640625,0.8538439273834229,2.6097145080566406,-4.358924865722656
1715093338974346800,7.6023466796875,0.6513426303863525,3.029902458190918,-4.329520225524902
1715093338984326000,7.612325927734375,1.175297737121582,3.3419246673583984,-4.249150276184082
1715093338994274600,7.622274658203125,2.2739439010620117,3.5587759017944336,-3.975090980529785
1715093339004254000,7.63225390625,2.714996337890625,3.3061819076538086,-3.962306022644043
1715093339014233000,7.642233154296875,2.5076229572296143,2.885190010070801,-3.6475696563720703
1715093339024182000,7.65218212890625,1.9281339645385742,2.4462738037109375,-3.1786227226257324
1715093339034161200,7.6621611328125,1.1233845949172974,1.9812984466552734,-2.698701858520508
1715093339044140300,7.672140380859375,0.6334573030471802,1.6402349472045898,-2.128035306930542
1715093339054089200,7.682089111328125,0.3698134422302246,1.515517234802246,-1.4647350311279297
1715093339064068400,7.692068359375,0.2753943204879761,1.4706029891967773,-1.0171093940734863
1715093339074047700,7.7020478515625,0.38365697860717773,1.4720430374145508,-0.46154481172561646
1715093339083996400,7.711996337890625,0.46917903423309326,1.7874269485473633,0.12186926603317261
1715093339093975600,7.7219755859375,0.8120718002319336,2.174221992492676,1.2032454013824463
1715093339103955000,7.731954833984375,0.941663384437561,2.516850471496582,2.0470714569091797
1715093339113903600,7.741903564453125,1.2771308422088623,2.2089548110961914,2.7693700790405273
1715093339123882800,7.7518828125,1.7441132068634033,1.7987346649169922,2.9089293479919434
1715093339133862100,7.761862060546875,2.2129218578338623,1.3934974670410156,3.1173338890075684
1715093339143810800,7.771810791015625,2.497943639755249,1.112710952758789,3.431929588317871
1715093339153790000,7.7817900390625,2.8488755226135254,0.7993917465209961,4.046688556671143
1715093339163769300,7.791769287109375,3.003485918045044,0.6660938262939453,4.740025997161865
1715093339173718000,7.801718017578125,3.2296090126037598,0.7483921051025391,5.313747882843018
1715093339183697400,7.811697509765625,3.4885010719299316,1.089120864868164,5.434243202209473
1715093339193676500,7.821676513671875,3.92144775390625,1.032613754272461,5.7110466957092285
1715093339203625200,7.831625244140625,4.4710845947265625,1.0861034393310547,5.436213493347168
1715093339213604600,7.8416044921875,5.163206577301025,1.5192155838012695,5.530290126800537
1715093339223583700,7.851583740234375,5.192776679992676,1.8710918426513672,5.303511619567871
1715093339233563100,7.861563232421875,4.81846809387207,1.798872947692871,4.636345863342285
1715093339243511800,7.87151171875,3.9170773029327393,1.298004150390625,4.089364051818848
1715093339253491000,7.881490966796875,2.3141794204711914,0.30571842193603516,3.8151321411132812
1715093339263470300,7.89147021484375,1.568988561630249,-1.6716861724853516,3.3157553672790527
1715093339273449500,7.901449462890625,2.3336987495422363,-3.5660181045532227,2.009054183959961
1715093339283398100,7.911398193359375,4.5879364013671875,-3.753978729248047,1.0943220853805542
1715093339293377500,7.92137744140625,7.300350189208984,-2.730231285095215,1.0100550651550293
1715093339303356700,7.931356689453125,7.151512145996094,-1.6927604675292969,1.1164168119430542
1715093339313305300,7.941305419921875,5.378159523010254,-0.7969446182250977,1.3730802536010742
1715093339323284700,7.95128466796875,1.719749927520752,0.10683631896972656,1.5664459466934204
1715093339333264000,7.961263916015625,-1.319512128829956,0.9975347518920898,1.405603289604187
1715093339343212500,7.971212646484375,-2.838000774383545,1.5933427810668945,-0.005861520767211914
1715093339353192000,7.98119189453125,-2.7363638877868652,1.1710567474365234,-2.1885740756988525
1715093339363171000,7.991171142578125,-2.377315044403076,-0.3726673126220703,-4.433568477630615
1715093339373120000,8.0011201171875,-3.6264655590057373,-3.069851875305176,-6.836468696594238
1715093339383099100,8.01109912109375,-5.053925514221191,-5.972747802734375,-10.423971176147461
1715093339393078300,8.021078369140625,-4.952944755554199,-7.696774482727051,-13.696389198303223
1715093339403027200,8.031027099609375,-3.3782222270965576,-9.924270629882812,-14.541982650756836
1715093339413006300,8.04100634765625,-2.375037431716919,-12.38769245147705,-13.134787559509277
1715093339422985700,8.05098583984375,-2.2771880626678467,-12.954366683959961,-8.749486923217773
1715093339432934400,8.060934326171875,-3.0935707092285156,-11.248259544372559,-1.4210937023162842
1715093339442913500,8.07091357421875,-5.453704833984375,-9.49062728881836,3.098158359527588
1715093339452893000,8.080892822265625,-7.964571952819824,-7.228513717651367,6.165149211883545
1715093339462841600,8.090841552734375,-10.679980278015137,-2.4976587295532227,10.526846885681152
1715093339472820700,8.10082080078125,-11.23337173461914,-1.0880022048950195,10.958547592163086
1715093339482800000,8.110800048828125,-9.307146072387695,1.8633956909179688,11.617446899414062
1715093339492748800,8.120748779296875,-5.658688068389893,3.466221809387207,10.94236946105957
1715093339502728000,8.13072802734375,-2.9845943450927734,4.0999755859375,8.59435749053955
1715093339512707300,8.140707275390625,-2.417978525161743,2.929232597351074,5.029048919677734
1715093339522686500,8.1506865234375,-2.036008834838867,1.7418842315673828,3.06903076171875
1715093339532635400,8.160635498046876,-0.7046619653701782,0.816065788269043,1.1584904193878174
1715093339542614500,8.170614501953125,1.0882750749588013,0.5752830505371094,-0.41742634773254395
1715093339552593700,8.18059375,2.561007261276245,1.046830177307129,-1.5203931331634521
1715093339562573000,8.190572998046875,2.336782455444336,1.7931547164916992,-2.4072113037109375
1715093339572521700,8.200521728515625,1.7223600149154663,3.184572219848633,-2.9499881267547607
1715093339582501000,8.210501220703126,1.1362133026123047,4.42219352722168,-3.497936248779297
1715093339592480300,8.220480224609375,0.763900637626648,5.104072570800781,-3.812622308731079
1715093339602429000,8.230428955078125,0.4654895067214966,5.572216033935547,-3.827211380004883
1715093339612408300,8.240408203125,0.016676664352416992,5.721444129943848,-3.852994441986084
1715093339622387500,8.250387451171875,-0.2922731637954712,5.575709342956543,-4.002702713012695
1715093339632336100,8.260336181640625,-0.3068748712539673,5.516031265258789,-4.107463836669922
1715093339642315500,8.2703154296875,-0.11719202995300293,5.508249282836914,-4.165104866027832
1715093339652294700,8.280294677734375,0.391864538192749,5.534259796142578,-4.15900993347168
1715093339662243300,8.290243408203125,0.9591634273529053,5.385448455810547,-4.117920398712158
1715093339672222700,8.30022265625,1.7227908372879028,5.327231407165527,-3.4133119583129883
1715093339682201900,8.310201904296875,2.2787671089172363,5.2084808349609375,-2.336469888687134
1715093339692150500,8.320150634765625,2.356980800628662,4.9187116622924805,-1.0016226768493652
1715093339702130000,8.3301298828125,1.9787193536758423,4.225888252258301,0.8225197792053223
1715093339712109000,8.340109130859375,1.312290072441101,3.705841064453125,3.854837656021118
1715093339722058000,8.35005810546875,0.4702802300453186,3.772650718688965,7.484388828277588
1715093339732037000,8.360037109375,-0.9556106925010681,1.7476463317871094,8.408027648925781
1715093339741985800,8.36998583984375,-2.16964054107666,-1.2078943252563477,9.252198219299316
1715093339751965200,8.379965087890625,-4.107764720916748,-4.865364074707031,8.08639907836914
1715093339761944300,8.3899443359375,-1.3365882635116577,-7.013784408569336,5.319867134094238
1715093339771893000,8.39989306640625,3.9462716579437256,-7.553709030151367,0.437253475189209
1715093339781872400,8.409872314453125,4.149990081787109,-9.220932960510254,-6.235602378845215
1715093339791851500,8.4198515625,1.1897670030593872,-9.114200592041016,-7.601269721984863
1715093339801831000,8.429830810546875,1.219839334487915,-5.809700965881348,-2.4696295261383057
1715093339811810000,8.43981005859375,1.2427482604980469,-1.2614870071411133,2.3669283390045166
1715093339821758700,8.4497587890625,-0.558866024017334,1.1816463470458984,4.778532981872559
1715093339831738000,8.459738037109375,-1.95711350440979,-3.339768409729004,5.265231132507324
1715093339841717200,8.46971728515625,-2.6420722007751465,-11.254569053649902,5.478388786315918
1715093339851666000,8.479666015625,-1.1927541494369507,-15.928735733032227,2.651785373687744
1715093339861645300,8.489645263671875,-6.969473838806152,-14.659271240234375,-3.458573818206787
1715093339871624400,8.49962451171875,-3.6789870262145996,-5.992770195007324,-7.641438007354736
1715093339881573400,8.509573486328126,-3.0381178855895996,1.7796306610107422,-7.368622779846191
1715093339891552500,8.519552490234375,-3.5208160877227783,3.972087860107422,-4.751938343048096
1715093339901531600,8.52953173828125,-0.9808250665664673,3.744129180908203,-1.9491221904754639
1715093339911480600,8.53948046875,0.028822004795074463,0.5726747512817383,0.45540714263916016
1715093339921459700,8.549459716796875,-1.131124496459961,-1.9165277481079102,0.8841431140899658
1715093339931439000,8.559439208984376,-2.416205883026123,-2.8395023345947266,-0.6746060848236084
1715093339941387800,8.5693876953125,-1.7011103630065918,-3.7492361068725586,-1.6300082206726074
1715093339951367000,8.579366943359375,-0.02363055944442749,-4.18868350982666,-3.3508355617523193
1715093339961346300,8.58934619140625,1.5448808670043945,-2.939152717590332,-4.769763946533203
1715093339971295000,8.599294921875,1.3507518768310547,-1.5785942077636719,-5.421426773071289
1715093339981274000,8.609274169921875,1.5120494365692139,-0.059416770935058594,-6.338113784790039
1715093339991253500,8.61925341796875,1.6588362455368042,1.2992687225341797,-6.971195220947266
1715093340001202200,8.6292021484375,1.359567642211914,2.228549003601074,-5.591611862182617
1715093340011181300,8.639181396484375,1.3529973030090332,2.6929407119750977,-4.483084678649902
1715093340021160700,8.64916064453125,1.4622211456298828,2.878079414367676,-3.6267476081848145
1715093340031109400,8.659109375,1.938896894454956,2.999922752380371,-2.849745035171509
1715093340041088800,8.6690888671875,2.331509590148926,2.954739570617676,-2.4798569679260254
1715093340051068000,8.67906787109375,2.412539482116699,2.898982048034668,-1.8670754432678223
1715093340061016600,8.6890166015625,2.104564905166626,2.584758758544922,-1.4374139308929443
1715093340070996000,8.698995849609375,1.188413381576538,2.3210277557373047,-1.2285113334655762
1715093340080975000,8.70897509765625,0.039005815982818604,2.1446456909179688,-0.8566082715988159
1715093340090954200,8.718954345703125,-0.7481006383895874,1.7388696670532227,-0.7201220989227295
1715093340100903200,8.728903076171875,-0.9559812545776367,1.7461614608764648,-0.4946378469467163
1715093340110882300,8.73888232421875,-0.8290724754333496,2.108489990234375,-0.30702686309814453
1715093340120861700,8.74886181640625,-0.2262789011001587,2.001204490661621,-0.20836985111236572
1715093340130840800,8.7588408203125,0.27430737018585205,1.9708490371704102,-0.27292466163635254
1715093340140789500,8.76878955078125,0.3558540344238281,1.7947254180908203,0.1319211721420288
1715093340150769000,8.778768798828125,0.5682166814804077,1.0702953338623047,0.7561191320419312
1715093340160748000,8.788748046875,0.8204571008682251,0.9055423736572266,0.8317315578460693
1715093340170696700,8.79869677734375,0.8994295597076416,0.9129486083984375,1.3583776950836182
1715093340180676000,8.808676025390625,0.6587436199188232,0.8073577880859375,1.3594547510147095
1715093340190655200,8.8186552734375,0.6110408306121826,0.3990001678466797,1.4929416179656982
1715093340200604000,8.82860400390625,1.065295696258545,0.29078006744384766,1.1752865314483643
1715093340210583300,8.838583251953125,2.1041111946105957,0.6265497207641602,1.6083123683929443
1715093340220562400,8.8485625,3.1209707260131836,1.1547107696533203,2.0709915161132812
1715093340230511400,8.858511474609376,3.6053531169891357,1.4330072402954102,2.4155263900756836
1715093340240490500,8.868490478515625,4.466623306274414,1.8157844543457031,2.9560484886169434
1715093340250469600,8.8784697265625,5.638514518737793,2.2451744079589844,3.638456106185913
1715093340260418600,8.88841845703125,7.044384002685547,2.3745346069335938,4.063775062561035
1715093340270397700,8.898397705078125,7.804483413696289,2.442082405090332,4.297748565673828
1715093340280377000,8.908377197265626,7.210709571838379,2.239959716796875,4.094080924987793
1715093340290325800,8.91832568359375,5.4737348556518555,1.8327207565307617,3.8404219150543213
1715093340300305000,8.928304931640625,3.409440517425537,0.7100725173950195,3.767322063446045
1715093340310284300,8.9382841796875,1.354809284210205,-1.3951215744018555,4.068385124206543
1715093340320233000,8.94823291015625,1.0759639739990234,-3.674999237060547,4.341624736785889
1715093340330212000,8.958212158203125,2.2220277786254883,-4.917876243591309,3.4664552211761475
1715093340340191500,8.96819140625,3.877732038497925,-4.859306335449219,2.8259191513061523
1715093340350140200,8.97814013671875,6.4033074378967285,-4.062061309814453,2.2096433639526367
1715093340360119300,8.988119384765625,6.344196319580078,-2.0164318084716797,2.3850975036621094
1715093340370098700,8.9980986328125,3.8559892177581787,-0.2863750457763672,1.5407366752624512
1715093340380077800,9.008077880859375,2.7869014739990234,1.3753366470336914,1.368253231048584
1715093340390026800,9.01802685546875,2.0902531147003174,2.9270172119140625,1.6695399284362793
1715093340400006000,9.028005859375,0.3295271396636963,3.8940553665161133,0.9492536783218384
1715093340409985000,9.037985107421875,-1.0165890455245972,3.6503658294677734,-0.7379101514816284
1715093340419964400,9.04796435546875,-2.187594413757324,2.3148365020751953,-1.7617288827896118
1715093340429913000,9.0579130859375,-2.8067588806152344,0.7493553161621094,-2.7403805255889893
1715093340439892500,9.067892578125,-3.248943567276001,-1.4252614974975586,-4.441384315490723
1715093340449871600,9.07787158203125,-4.781872749328613,-4.713285446166992,-6.533802032470703
1715093340459820300,9.0878203125,-6.306630611419678,-7.805214881896973,-8.191473007202148
1715093340469799700,9.097799560546875,-6.6709136962890625,-10.970617294311523,-8.774293899536133
1715093340479778800,9.10777880859375,-5.745148658752441,-13.990242958068848,-7.832118034362793
1715093340489727500,9.1177275390625,-5.253978252410889,-14.97929859161377,-4.591797351837158
1715093340499707000,9.127706787109375,-6.037168025970459,-13.554191589355469,-1.1378517150878906
1715093340509686000,9.13768603515625,-6.730112552642822,-10.47021484375,1.8403425216674805
1715093340519634700,9.147634765625,-7.71372127532959,-6.077546119689941,4.991896629333496
1715093340529614000,9.157614013671875,-9.348392486572266,-0.49880504608154297,8.555858612060547
1715093340539593200,9.16759326171875,-8.130014419555664,2.5779380798339844,9.276500701904297
1715093340549542000,9.1775419921875,-4.8818535804748535,3.9513320922851562,6.5252556800842285
1715093340559521300,9.187521240234375,-2.149016857147217,5.755661964416504,7.627621650695801
1715093340569500400,9.19750048828125,-1.0295981168746948,5.757916450500488,5.6278839111328125
1715093340579449300,9.207449462890626,-2.418947696685791,4.427118301391602,3.27036714553833
1715093340589428500,9.217428466796875,-2.9857962131500244,2.750814437866211,1.6834557056427002
1715093340599407600,9.22740771484375,-1.8980263471603394,1.7066144943237305,0.2652934789657593
1715093340609356500,9.2373564453125,0.06493937969207764,1.3117618560791016,-0.9874253273010254
1715093340619335700,9.247335693359375,1.6363089084625244,1.282379150390625,-1.8146717548370361
1715093340629315000,9.257315185546876,1.9176267385482788,1.560770034790039,-2.794691324234009
1715093340639263700,9.267263671875,1.5483918190002441,2.173678398132324,-3.6405060291290283
1715093340649243000,9.277242919921875,0.8238937854766846,2.889719009399414,-4.245003700256348
1715093340659222300,9.28722216796875,0.19144725799560547,3.3684120178222656,-4.49537992477417
1715093340669201400,9.297201416015625,-0.3913007974624634,3.626408576965332,-4.542342185974121
1715093340679150000,9.307150146484375,-0.919011116027832,3.600226402282715,-4.63878059387207
1715093340689129500,9.31712939453125,-1.335187315940857,3.4866342544555664,-4.643465042114258
1715093340699108600,9.327108642578125,-1.516971468925476,3.4619483947753906,-4.4992876052856445
1715093340709088000,9.337087890625,-1.3504642248153687,3.334853172302246,-4.257448196411133
1715093340719036700,9.34703662109375,-0.6757156848907471,3.159259796142578,-3.8948683738708496
1715093340729015800,9.357015869140625,0.4303319454193115,3.3177871704101562,-3.301891803741455
1715093340738995200,9.3669951171875,1.3232752084732056,3.464165687561035,-2.609086513519287
1715093340748944000,9.37694384765625,1.6063969135284424,3.270111083984375,-1.6290655136108398
1715093340758923000,9.386923095703125,1.5957649946212769,3.2528953552246094,-0.06532692909240723
1715093340768902400,9.39690234375,1.7231481075286865,3.7715444564819336,2.4545512199401855
1715093340778851000,9.40685107421875,1.5785387754440308,4.757898330688477,5.4662370681762695
1715093340788830500,9.41683056640625,1.2446173429489136,4.270565032958984,6.843567848205566
1715093340798809600,9.4268095703125,0.6669475436210632,2.580594062805176,7.704296588897705
1715093340808758300,9.43675830078125,0.489176869392395,0.5549240112304688,8.265158653259277
1715093340818737700,9.446737548828125,1.4955134391784668,-1.2407875061035156,6.9815473556518555
1715093340828716800,9.456716796875,3.1800005435943604,-2.878263473510742,3.0918619632720947
1715093340838665500,9.46666552734375,3.266871452331543,-5.91940975189209,-2.100227117538452
1715093340848644900,9.476644775390625,2.815931797027588,-9.057315826416016,-5.625082969665527
1715093340858624000,9.4866240234375,2.856646776199341,-9.972343444824219,-5.740109443664551
1715093340868572700,9.49657275390625,0.9793146848678589,-5.503750801086426,-0.8550493717193604
1715093340878552000,9.506552001953125,-0.7090617418289185,-0.2843132019042969,3.367985725402832
1715093340888500700,9.516500732421875,-2.7364792823791504,0.014162063598632812,5.652571201324463
1715093340898480000,9.526480224609376,-4.0364179611206055,-6.337937355041504,6.409400939941406
1715093340908459300,9.536459228515625,-4.2599334716796875,-12.38638973236084,6.799679756164551
1715093340918408000,9.546407958984375,-6.366199493408203,-15.617337226867676,1.7136483192443848
1715093340928387300,9.55638720703125,-7.188617706298828,-12.57791519165039,-1.0748164653778076
1715093340938366500,9.566366455078125,-2.676712989807129,-4.530186653137207,-6.798891067504883
1715093340948345600,9.576345703125,-1.516214370727539,1.448674201965332,-7.891061782836914
1715093340958325000,9.586324951171875,-1.606502652168274,3.5075807571411133,-3.363511562347412
1715093340968273700,9.596273681640625,-0.10981598496437073,2.759884834289551,-1.0563642978668213
1715093340978253000,9.606253173828126,-0.5739688277244568,0.10275554656982422,0.33188724517822266
1715093340988232200,9.616232177734375,-1.6952126026153564,-1.7764396667480469,-0.5745697021484375
1715093340998180900,9.626180908203125,-2.515212059020996,-2.176924705505371,-1.5179264545440674
1715093341008160300,9.63616015625,-0.2342793047428131,-3.2920026779174805,-3.3470351696014404
1715093341018139400,9.646139404296875,2.538325071334839,-3.6826725006103516,-5.11953592300415
1715093341028088000,9.656088134765625,2.7082152366638184,-2.9384565353393555,-5.539527416229248
1715093341038067500,9.6660673828125,1.8973420858383179,-1.665328025817871,-5.4732255935668945
1715093341048046600,9.676046630859375,0.7992884516716003,-0.006748199462890625,-5.7270002365112305
1715093341057995300,9.685995361328125,1.6946290731430054,1.1076469421386719,-5.714269638061523
1715093341067974700,9.695974609375,1.1787915229797363,1.8663711547851562,-5.125029563903809
1715093341077953800,9.705953857421875,0.6901376247406006,2.836838722229004,-4.5454254150390625
1715093341087902700,9.71590283203125,1.0206995010375977,3.3950490951538086,-4.395543575286865
1715093341097881900,9.7258818359375,1.716593861579895,3.756768226623535,-3.9815871715545654
1715093341107861000,9.735861083984375,2.6394920349121094,3.847320556640625,-3.5872654914855957
1715093341117810000,9.745809814453125,3.397006034851074,3.8890581130981445,-3.1388697624206543
1715093341127789000,9.7557890625,3.4395956993103027,3.652247428894043,-2.9435980319976807
1715093341137768400,9.7657685546875,2.471466302871704,3.267270088195801,-2.6605935096740723
1715093341147717000,9.775717041015625,1.0462863445281982,2.7230663299560547,-2.3140878677368164
1715093341157696300,9.7856962890625,0.03077530860900879,2.154557228088379,-1.870572805404663
1715093341167675600,9.795675537109375,-0.41485047340393066,1.5846891403198242,-1.3872603178024292
1715093341177624300,9.805624267578125,-0.5342662334442139,1.1519489288330078,-0.9033094644546509
1715093341187603500,9.815603515625,-0.2698366641998291,0.8819799423217773,-0.32134270668029785
1715093341197582800,9.825582763671875,-0.09322977066040039,0.22741127014160156,0.5220253467559814
1715093341207531500,9.835531494140625,-0.15143990516662598,-0.04962635040283203,1.43083655834198
1715093341217510700,9.8455107421875,-0.008933305740356445,-0.1659688949584961,2.6071176528930664
1715093341227490000,9.855489990234375,0.1589289903640747,-0.2609567642211914,3.308913469314575
1715093341237469200,9.86546923828125,-0.014490962028503418,-0.060461997985839844,3.6841206550598145
1715093341247448600,9.875448486328125,-0.09957647323608398,0.26117706298828125,3.565067768096924
1715093341257397200,9.885397216796875,0.29070258140563965,0.5163869857788086,3.3955674171447754
1715093341267376400,9.89537646484375,1.0497405529022217,0.7803707122802734,3.606922149658203
1715093341277355800,9.905355712890625,2.761725425720215,1.118361473083496,3.7107791900634766
1715093341287304400,9.915304443359375,5.011979103088379,1.4544544219970703,3.5273866653442383
1715093341297283600,9.92528369140625,7.122804641723633,2.016648292541504,3.198303699493408
1715093341307263000,9.935262939453125,8.434633255004883,2.7091665267944336,3.2512383460998535
1715093341317211600,9.945211669921875,8.208073616027832,3.37735652923584,3.384772777557373
1715093341327191000,9.95519091796875,6.763433456420898,3.0964527130126953,2.9467761516571045
1715093341337170200,9.965170166015625,5.408962249755859,2.080141067504883,3.2352054119110107
1715093341347118800,9.975118896484375,3.669340133666992,-0.13417911529541016,3.704242467880249
1715093341357098200,9.98509814453125,1.9747164249420166,-2.6121997833251953,4.3693952560424805
1715093341367077400,9.995077392578125,1.9882867336273193,-4.540541648864746,5.0919084548950195
1715093341377026000,10.005026123046875,2.7553865909576416,-5.655961036682129,4.1051435470581055
1715093341387005400,10.01500537109375,5.640176773071289,-5.96616268157959,2.980283498764038
1715093341396984600,10.024984619140625,7.060633659362793,-4.931459426879883,3.701038122177124
1715093341406933200,10.034933349609375,5.368200778961182,-2.240877151489258,4.991970062255859
1715093341416912600,10.04491259765625,3.365952730178833,0.29828357696533203,4.239624977111816
1715093341426891800,10.054891845703125,3.1146247386932373,2.2790517807006836,3.0144166946411133
1715093341436840700,10.0648408203125,1.7553856372833252,3.8329591751098633,2.065112590789795
1715093341446819800,10.07481982421875,0.10626709461212158,4.3237762451171875,0.4142003059387207
1715093341456799000,10.084799072265625,-0.613589882850647,3.286022186279297,-1.8750412464141846
1715093341466748000,10.094747802734375,-0.523340106010437,1.8483476638793945,-3.314370632171631
1715093341476727000,10.10472705078125,-0.6860418319702148,-0.07875537872314453,-5.131321907043457
1715093341486706400,10.11470654296875,-1.5136866569519043,-2.9067611694335938,-7.770951271057129
1715093341496655000,10.124655029296875,-3.06809139251709,-5.099492073059082,-9.406978607177734
1715093341506634200,10.13463427734375,-4.476550102233887,-7.863154411315918,-10.789998054504395
1715093341516613600,10.144613525390625,-5.257840156555176,-11.188190460205078,-11.192682266235352
1715093341526592800,10.1545927734375,-5.297007083892822,-13.549487113952637,-8.7659330368042
1715093341536541400,10.16454150390625,-6.0780510902404785,-13.994479179382324,-4.637412071228027
1715093341546520800,10.174520751953125,-7.649717330932617,-11.581846237182617,0.20633018016815186
1715093341556500000,10.1845,-8.527933120727539,-7.861858367919922,3.6718130111694336
1715093341566479400,10.194479248046875,-10.498998641967773,-2.747343063354492,8.298644065856934
1715093341576428000,10.204427978515625,-8.86227798461914,0.2616891860961914,9.498847961425781
1715093341586407200,10.2144072265625,-7.387656211853027,3.7477455139160156,11.171160697937012
1715093341596386600,10.224386474609375,-3.203019142150879,4.9104461669921875,10.196642875671387
1715093341606335200,10.234335205078125,-1.8246980905532837,4.977056503295898,6.894262790679932
1715093341616314400,10.244314453125,-2.8553905487060547,4.176135063171387,4.118165969848633
1715093341626293800,10.254293701171875,-2.496044397354126,3.200502395629883,2.063662528991699
1715093341636242400,10.264242431640625,-0.7469196319580078,2.372279167175293,-0.12308239936828613
1715093341646221800,10.274221923828126,1.5547995567321777,1.8684101104736328,-2.064002752304077
1715093341656201000,10.284200927734375,2.3961472511291504,1.4560651779174805,-3.1809587478637695
1715093341666149600,10.294149658203125,2.662975788116455,1.633347511291504,-4.088016033172607
1715093341676129000,10.30412890625,2.1363444328308105,2.4972095489501953,-4.531084060668945
1715093341686108200,10.314108154296875,1.0917357206344604,3.5734853744506836,-4.453794479370117
1715093341696056800,10.324056884765625,0.13353288173675537,4.395331382751465,-4.198375701904297
1715093341706036200,10.3340361328125,-0.5206818580627441,4.793566703796387,-3.7277028560638428
1715093341716015400,10.344015380859375,-1.034358263015747,4.877192497253418,-3.4379031658172607
1715093341725964000,10.353964111328125,-1.3339908123016357,4.748056411743164,-3.5740103721618652
1715093341735943400,10.363943359375,-1.1222304105758667,4.503801345825195,-3.741816759109497
1715093341745892000,10.37389208984375,-0.3204303979873657,4.4468231201171875,-3.6346473693847656
1715093341755871200,10.383871337890625,0.7689722776412964,4.212362289428711,-3.827308416366577
1715093341765850600,10.3938505859375,1.6164740324020386,3.906484603881836,-3.1227469444274902
1715093341775799300,10.40379931640625,2.0279359817504883,3.457890510559082,-1.79518723487854
1715093341785778700,10.41377880859375,1.9268333911895752,2.4930877685546875,0.001957416534423828
1715093341795757800,10.4237578125,1.654395580291748,2.328129768371582,3.6334550380706787
1715093341805737000,10.433737060546875,1.1786572933197021,1.952040672302246,7.199732780456543
1715093341815716400,10.44371630859375,-0.17303794622421265,0.048020362854003906,9.016313552856445
1715093341825665000,10.4536650390625,-1.1361939907073975,-2.802290916442871,10.502312660217285
1715093341835644400,10.46364453125,-2.129974365234375,-5.940704345703125,9.161826133728027
1715093341845623600,10.47362353515625,-0.5582723021507263,-7.434441566467285,4.816176414489746
1715093341855602700,10.483602783203125,1.878651738166809,-8.397653579711914,-0.7499198913574219
1715093341865551600,10.493551513671875,2.4759607315063477,-9.366243362426758,-6.599859714508057
1715093341875530800,10.50353076171875,4.321962356567383,-7.855345726013184,-7.412895202636719
1715093341885510100,10.51351025390625,2.469543695449829,-2.5451536178588867,-4.87379264831543
1715093341895458800,10.523458740234375,1.8699358701705933,1.145294189453125,-2.304898500442505
1715093341905438000,10.53343798828125,-0.649734616279602,1.4206438064575195,-0.9629929065704346
1715093341915417300,10.543417236328125,-4.873160362243652,-1.5502643585205078,0.22837257385253906
1715093341925366000,10.553365966796875,-4.869250774383545,-10.12594223022461,4.42402982711792
1715093341935345200,10.56334521484375,-5.614257335662842,-19.28091812133789,8.434913635253906
1715093341945324500,10.573324462890625,-8.642475128173828,-20.024017333984375,2.322413206100464
1715093341955273200,10.583273193359375,-5.873777866363525,-9.475666046142578,-5.5898284912109375
1715093341965252400,10.59325244140625,-3.679530143737793,-0.4155569076538086,-6.950566291809082
1715093341975201300,10.603201171875,-0.14929316937923431,3.6558046340942383,-3.703714370727539
1715093341985180400,10.613180419921875,3.3429219722747803,5.813810348510742,-0.9258871078491211
1715093341995159800,10.623159912109376,4.230301856994629,6.306081771850586,0.14897489547729492
1715093342005108500,10.6331083984375,2.8480818271636963,5.513714790344238,-0.8537793159484863
1715093342015087600,10.643087646484375,1.7921438217163086,6.151028633117676,-2.2089545726776123
1715093342025067000,10.65306689453125,1.9994111061096191,5.77714729309082,-3.651573896408081
1715093342035015700,10.663015625,2.3590030670166016,4.193655967712402,-4.927762508392334
1715093342044994800,10.672994873046875,2.053140163421631,1.713129997253418,-5.329370021820068
1715093342054974200,10.68297412109375,2.0952258110046387,-0.4714689254760742,-5.224729537963867
1715093342064923000,10.6929228515625,0.7867770195007324,-3.1653871536254883,-6.0167236328125
1715093342074902000,10.702902099609375,-0.8750442266464233,-4.724498748779297,-5.95674991607666
1715093342084881400,10.71288134765625,-1.5714435577392578,-4.063189506530762,-5.953439712524414
1715093342094860500,10.722860595703125,-0.5114315748214722,-0.9604034423828125,-5.61463737487793
1715093342104840000,10.73283984375,1.1556098461151123,2.3921585083007812,-4.326708793640137
1715093342114788600,10.74278857421875,2.339059829711914,4.563275337219238,-4.513734817504883
1715093342124767700,10.752767822265625,3.264718532562256,5.648808479309082,-4.5389790534973145
1715093342134747100,10.7627470703125,4.068671226501465,5.733746528625488,-3.8066282272338867
1715093342144695800,10.77269580078125,3.5144834518432617,4.903497695922852,-2.723342180252075
1715093342154675000,10.782675048828125,2.178752899169922,3.8368520736694336,-1.0180888175964355
1715093342164654300,10.792654296875,1.0188857316970825,2.925950050354004,1.4578841924667358
1715093342174603000,10.80260302734375,-0.010893702507019043,1.8219385147094727,3.496957778930664
1715093342184582400,10.81258251953125,-0.6704510450363159,0.398162841796875,4.306070327758789
1715093342194561500,10.8225615234375,-1.0988984107971191,-0.549870491027832,4.799111843109131
1715093342204510200,10.83251025390625,-1.2222038507461548,-0.9838829040527344,5.199653148651123
1715093342214489600,10.842489501953125,-1.1190966367721558,-1.1422414779663086,4.954012870788574
1715093342224468700,10.85246875,-1.147615909576416,-0.7990074157714844,4.278011798858643
1715093342234417400,10.86241748046875,-1.7027978897094727,-0.6989450454711914,3.5347437858581543
1715093342244396800,10.872396728515625,-2.358104705810547,-0.6710081100463867,2.862949848175049
1715093342254376000,10.8823759765625,-2.290696144104004,-0.7300987243652344,2.2775204181671143
1715093342264324600,10.89232470703125,-1.0265752077102661,-0.6842136383056641,2.3891677856445312
1715093342274304000,10.902303955078125,0.502202033996582,-0.6353960037231445,2.582535743713379
1715093342284283100,10.912283203125,2.2682080268859863,-0.2571115493774414,2.513033866882324
1715093342294232000,10.922232177734376,4.545831203460693,0.5009059906005859,2.0357930660247803
1715093342304211200,10.932211181640625,7.712730407714844,1.4587278366088867,1.7368190288543701
1715093342314190300,10.9421904296875,10.183497428894043,2.4903907775878906,1.3653475046157837
1715093342324139300,10.95213916015625,10.441641807556152,3.7673234939575195,1.0665059089660645
1715093342334118400,10.962118408203125,7.71308708190918,4.785798072814941,0.5520511865615845
1715093342344097800,10.972097900390626,4.661102294921875,4.130307197570801,0.9576741456985474
1715093342354046500,10.98204638671875,3.653439998626709,1.3516416549682617,2.33296275138855
1715093342364025600,10.992025634765625,3.3479738235473633,-1.9305248260498047,2.4566493034362793
1715093342374005000,11.0020048828125,3.136502265930176,-4.81032657623291,1.0678881406784058
1715093342383984000,11.011984130859375,3.5919735431671143,-6.877089500427246,0.004428505897521973
1715093342393932800,11.021932861328125,4.706711769104004,-6.528934478759766,1.0359071493148804
1715093342403912200,11.031912109375,4.19752311706543,-3.838587760925293,2.3016104698181152
1715093342413891300,11.041891357421875,1.9497263431549072,-0.6547613143920898,2.4687423706054688
1715093342423870700,11.05187060546875,0.132859468460083,2.1625051498413086,2.335381507873535
1715093342433819400,11.0618193359375,-0.11537313461303711,4.392629623413086,2.7003793716430664
1715093342443798500,11.071798583984375,-1.2581607103347778,5.925511360168457,2.839667797088623
1715093342453778000,11.08177783203125,-1.8533508777618408,5.973671913146973,1.271254062652588
1715093342463726600,11.0917265625,-2.154224395751953,4.705492973327637,-1.5698318481445312
1715093342473705700,11.101705810546875,-2.088418483734131,2.479952812194824,-4.436645030975342
1715093342483685000,11.11168505859375,-2.1335103511810303,-0.8439188003540039,-6.1803460121154785
1715093342493633800,11.1216337890625,-2.2572498321533203,-4.295755386352539,-7.523622512817383
1715093342503613200,11.13161328125,-2.1428332328796387,-8.86490535736084,-9.344552040100098
1715093342513592300,11.14159228515625,-2.7829205989837646,-14.35175609588623,-11.777078628540039
1715093342523541000,11.151541015625,-3.6146647930145264,-18.618961334228516,-10.605854034423828
1715093342533520400,11.161520263671875,-4.5651140213012695,-18.821325302124023,-5.3735833168029785
1715093342543499500,11.17149951171875,-8.1568603515625,-14.709238052368164,0.17805135250091553
1715093342553448200,11.1814482421875,-12.42190933227539,-9.031566619873047,4.103095531463623
1715093342563427600,11.191427490234375,-10.84915542602539,-2.603499412536621,9.635525703430176
1715093342573406700,11.20140673828125,-10.05484676361084,0.7909488677978516,8.902962684631348
1715093342583355400,11.21135546875,-7.652708530426025,3.1495466232299805,9.772683143615723
1715093342593334800,11.221334716796875,-3.408153772354126,3.794483184814453,9.795053482055664
1715093342603314000,11.23131396484375,-0.8139615058898926,3.676457405090332,7.852373123168945
1715093342613262600,11.2412626953125,-1.4036251306533813,2.8348751068115234,5.036316871643066
1715093342623242000,11.251241943359375,-2.029743194580078,2.085240364074707,3.7078635692596436
1715093342633221000,11.26122119140625,-1.486983060836792,1.2041511535644531,1.7384734153747559
1715093342643170000,11.271170166015626,-0.32780563831329346,0.9323015213012695,0.031510353088378906
1715093342653142300,11.281142333984375,1.6564900875091553,1.5381507873535156,-1.4782721996307373
1715093342663121400,11.291121337890624,2.2977356910705566,2.7006282806396484,-2.1365292072296143
1715093342673100500,11.3011005859375,2.0225987434387207,3.894679069519043,-2.7924485206604004
1715093342683049500,11.311049560546875,1.309157133102417,5.245638847351074,-3.3104310035705566
1715093342693028600,11.321028564453124,0.5489894151687622,6.069683074951172,-3.6240365505218506
1715093342703008000,11.331008056640625,-0.02675318717956543,6.306705474853516,-3.963620901107788
1715093342712987100,11.340987060546874,-0.29124462604522705,6.371789932250977,-4.273600101470947
1715093342722935800,11.350935791015624,-0.42402374744415283,6.322629928588867,-4.513608455657959
1715093342732915200,11.360915283203125,-0.4614219665527344,6.041312217712402,-4.641711235046387
1715093342742894300,11.370894287109374,-0.21882390975952148,5.5951032638549805,-4.54265022277832
1715093342752843000,11.380843017578124,0.18450963497161865,5.117136001586914,-4.494022369384766
1715093342762822400,11.390822509765625,0.7789154052734375,4.65927791595459,-4.33852481842041
1715093342772801500,11.400801513671874,1.4196752309799194,4.587525367736816,-3.64479923248291
1715093342782750200,11.410750244140624,1.752554178237915,4.028189659118652,-2.467216968536377
1715093342792729600,11.4207294921875,2.0147621631622314,3.2200050354003906,-0.8779830932617188
1715093342802708700,11.430708740234374,1.6011698246002197,2.176302909851074,1.230018138885498
1715093342812657700,11.44065771484375,0.4974478483200073,1.585066795349121,5.037534713745117
1715093342822636800,11.45063671875,-1.176845669746399,0.9812793731689453,8.37799072265625
1715093342832616000,11.460615966796874,-2.6428146362304688,-0.9330368041992188,9.400298118591309
1715093342842564900,11.47056494140625,-3.6853954792022705,-3.4361000061035156,9.04023265838623
1715093342852544000,11.4805439453125,-2.9138123989105225,-5.364818572998047,5.914597034454346
1715093342862523400,11.4905234375,-0.5333011150360107,-6.376372337341309,2.092353343963623
1715093342872472000,11.50047216796875,2.6249818801879883,-8.08632755279541,-1.7717976570129395
1715093342882451200,11.510451171875,5.064817905426025,-10.47139835357666,-5.695417404174805
1715093342892399900,11.52039990234375,6.318479537963867,-8.817397117614746,-5.091803550720215
1715093342902379300,11.530379150390624,3.3710978031158447,-2.920363426208496,-3.2482335567474365
1715093342912358400,11.5403583984375,0.06320595741271973,-1.3391170501708984,-1.9172613620758057
1715093342922307300,11.550307373046875,0.21677303314208984,-3.160215377807617,0.6870706081390381
1715093342932286500,11.560286376953124,-5.44268274307251,-6.056402206420898,1.1829721927642822
1715093342942265600,11.570265625,-5.9110236167907715,-13.824620246887207,3.7875475883483887
1715093342952245000,11.580244873046874,-6.656960487365723,-19.873779296875,5.755509376525879
1715093342962224000,11.59022412109375,-7.006015777587891,-14.286588668823242,-0.587505578994751
1715093342972173000,11.600173095703125,-3.565459966659546,-4.689884185791016,-4.846925258636475
1715093342982152200,11.610152099609374,-2.753167152404785,0.37528514862060547,-4.1730122566223145
1715093342992131300,11.62013134765625,0.728998601436615,3.407557487487793,-1.6599133014678955
1715093343002110700,11.63011083984375,3.1105873584747314,5.1953935623168945,-0.4448835849761963
1715093343012059400,11.640059326171874,2.6840381622314453,5.915494918823242,-0.8242831230163574
1715093343022038500,11.65003857421875,2.124173641204834,5.838255882263184,-2.215585947036743
1715093343032018000,11.660017822265624,1.8531272411346436,6.167267799377441,-4.305736541748047
1715093343041966600,11.669966552734374,1.4958629608154297,5.232754707336426,-5.102784156799316
1715093343051946000,11.679946044921875,1.320095181465149,2.962569236755371,-4.229222297668457
1715093343061925000,11.689925048828124,0.8633986115455627,-0.010601043701171875,-4.445978164672852
1715093343071873800,11.699873779296874,-0.007270932197570801,-2.9322566986083984,-5.749345779418945
1715093343081853200,11.709853271484375,-0.889339804649353,-4.839527130126953,-6.609119415283203
1715093343091832300,11.719832275390624,-1.0730711221694946,-4.650777816772461,-6.550870895385742
1715093343101781000,11.729781005859374,0.5931992530822754,-1.6623249053955078,-5.932416915893555
1715093343111760400,11.739760498046875,2.364990711212158,2.0815134048461914,-4.993447303771973
1715093343121709000,11.749708984375,3.226053237915039,4.972932815551758,-5.001487731933594
1715093343131688200,11.759688232421874,3.322540760040283,6.852906227111816,-5.025294303894043
1715093343141667600,11.76966748046875,3.234144687652588,7.793561935424805,-4.122238636016846
1715093343151616300,11.7796162109375,2.6484642028808594,7.384092330932617,-2.287702798843384
1715093343161595600,11.789595703125,2.4689741134643555,5.880444526672363,-0.24141132831573486
1715093343171574800,11.79957470703125,2.674506664276123,4.025028228759766,1.830763339996338
1715093343181523500,11.8095234375,2.5677261352539062,2.0383825302124023,3.7734904289245605
1715093343191502800,11.8195029296875,1.835248589515686,-0.17103958129882812,5.179571151733398
1715093343201482000,11.82948193359375,0.7301594018936157,-2.064822196960449,5.6345319747924805
1715093343211430700,11.8394306640625,-0.5763546228408813,-2.719527244567871,5.572408199310303
1715093343221410000,11.84941015625,-1.6244813203811646,-1.9438762664794922,4.82783317565918
1715093343231389200,11.85938916015625,-1.858332872390747,-0.7258062362670898,3.642697811126709
1715093343241368600,11.86936865234375,-1.660383939743042,0.05745220184326172,2.8340563774108887
1715093343251347700,11.87934765625,-1.872765302658081,0.5067615509033203,2.3040273189544678
1715093343261296400,11.88929638671875,-2.0255308151245117,0.6720600128173828,2.2963201999664307
1715093343271275800,11.89927587890625,-1.8159608840942383,0.7725954055786133,2.417726993560791
1715093343281255000,11.9092548828125,-1.3845410346984863,0.36786746978759766,2.423576593399048
1715093343291203600,11.91920361328125,-1.1266733407974243,-0.11713790893554688,2.6581971645355225
1715093343301183000,11.929182861328124,-0.21540570259094238,-0.3864727020263672,3.387347936630249
1715093343311162000,11.939162109375,2.361330986022949,-0.5213994979858398,3.867912530899048
1715093343321111000,11.949111083984375,5.834775924682617,0.06121063232421875,3.862067222595215
1715093343331090200,11.959090087890624,8.9067964553833,1.265486717224121,3.2222721576690674
1715093343341069300,11.9690693359375,10.33540153503418,2.914989471435547,2.482524871826172
1715093343351018200,11.979018310546875,9.613651275634766,4.530586242675781,1.7826720476150513
1715093343360997400,11.988997314453124,6.467057228088379,4.966711044311523,0.856308102607727
1715093343370976800,11.998976806640625,3.1125662326812744,3.5497589111328125,0.9607926607131958
1715093343380925400,12.008925537109375,0.9985778331756592,-0.1094503402709961,1.6557899713516235
1715093343390904600,12.018904541015624,0.2126767635345459,-3.680863380432129,1.7104564905166626
1715093343400884000,12.028884033203125,0.625849723815918,-6.150430679321289,0.8808743953704834
1715093343410832600,12.03883251953125,3.469061851501465,-6.814272880554199,0.6196380853652954
1715093343420811800,12.048811767578124,5.849267959594727,-5.687363624572754,1.514569640159607
1715093343430791200,12.058791259765625,4.2905168533325195,-3.5168285369873047,3.402719497680664
1715093343440739800,12.06873974609375,1.804950475692749,-1.487696647644043,4.302615642547607
1715093343450719000,12.078718994140624,0.33379340171813965,1.6271228790283203,4.907661437988281
1715093343460698400,12.088698486328125,-0.846534252166748,3.6626405715942383,3.787794589996338
1715093343470647000,12.09864697265625,-0.8164887428283691,4.207975387573242,1.3895630836486816
1715093343480626200,12.108626220703124,-0.16437220573425293,3.4566755294799805,-0.8009251952171326
1715093343490605600,12.11860546875,-0.4044468402862549,2.4126405715942383,-3.1311326026916504
1715093343500584700,12.128584716796874,-1.9069523811340332,0.41509246826171875,-6.132827281951904
1715093343510533600,12.13853369140625,-3.8502116203308105,-2.2278099060058594,-9.544156074523926
1715093343520512800,12.1485126953125,-5.211455821990967,-4.832530975341797,-11.272515296936035
1715093343530492000,12.158491943359374,-4.972525119781494,-7.6063642501831055,-11.398598670959473
1715093343540471300,12.16847119140625,-4.538507461547852,-10.793150901794434,-11.192371368408203
1715093343550420000,12.178419921875,-4.121670722961426,-13.377812385559082,-8.915105819702148
1715093343560399400,12.1883994140625,-2.8061013221740723,-12.82259464263916,-1.989241123199463
1715093343570378500,12.19837841796875,-3.7110795974731445,-10.25093936920166,4.301077842712402
1715093343580327200,12.2083271484375,-7.1713080406188965,-7.536764144897461,6.438999652862549
1715093343590306600,12.218306640625,-9.11745548248291,-2.816229820251465,9.759345054626465
1715093343600285700,12.22828564453125,-11.018523216247559,-0.20578479766845703,10.339231491088867
1715093343610234400,12.238234375,-9.135356903076172,3.278292655944824,10.022848129272461
1715093343620213800,12.2482138671875,-4.984498977661133,5.027956008911133,8.183902740478516
1715093343630193000,12.25819287109375,-2.951028347015381,4.988269805908203,5.369919776916504
1715093343640141600,12.2681416015625,-2.2080507278442383,3.962146759033203,3.5628671646118164
1715093343650121000,12.278120849609374,-1.4658278226852417,3.0774450302124023,1.4126484394073486
1715093343660100000,12.28810009765625,-0.4255784749984741,2.141861915588379,-0.5862793922424316
1715093343670049000,12.298049072265625,1.0681828260421753,1.2182483673095703,-2.4802725315093994
1715093343680028200,12.308028076171874,2.234856605529785,0.8647966384887695,-3.697422981262207
1715093343690007300,12.31800732421875,2.3045976161956787,1.288834571838379,-4.232979774475098
1715093343699956200,12.327956298828125,2.2851054668426514,2.392094612121582,-4.472773551940918
1715093343709935400,12.337935302734374,1.4866788387298584,3.558004379272461,-4.594063758850098
1715093343719914800,12.347914794921875,0.42540574073791504,4.309891700744629,-4.582421779632568
1715093343729863400,12.357863525390625,-0.5490282773971558,4.758871078491211,-4.282205104827881
1715093343739842600,12.367842529296874,-1.13650381565094,4.791312217712402,-3.8700039386749268
1715093343749822000,12.377822021484375,-1.2616232633590698,4.723476409912109,-3.491384983062744
1715093343759770600,12.3877705078125,-0.9970754384994507,4.640933990478516,-3.1490628719329834
1715093343769749800,12.397749755859374,-0.3390235900878906,4.787175178527832,-2.8246231079101562
1715093343779729200,12.407729248046875,0.4830430746078491,4.838525772094727,-2.735361337661743
1715093343789677800,12.417677734375,0.9649174213409424,4.361519813537598,-2.1906802654266357
1715093343799657000,12.427656982421874,1.4809703826904297,3.7284231185913086,-1.1030800342559814
1715093343809636400,12.43763623046875,1.9112240076065063,2.7592649459838867,0.28926706314086914
1715093343819615500,12.447615478515624,2.0981688499450684,2.414027214050293,2.823411703109741
1715093343829595000,12.457594970703125,2.2140369415283203,2.7120885848999023,5.918389797210693
1715093343839543600,12.46754345703125,1.4425383806228638,1.8015727996826172,8.008790969848633
1715093343849522700,12.477522705078124,0.7011325359344482,-0.17826175689697266,9.8251953125
1715093343859502000,12.487502197265625,-0.42698442935943604,-2.6452646255493164,9.860336303710938
1715093343869450800,12.49745068359375,-1.243157982826233,-4.577723503112793,7.953222274780273
1715093343879430000,12.507429931640624,-1.5615500211715698,-5.35554313659668,4.812258720397949
1715093343889409300,12.5174091796875,-2.3108904361724854,-7.071447372436523,1.3916516304016113
1715093343899358000,12.52735791015625,-1.242290735244751,-9.875142097473145,-3.2470223903656006
1715093343909337300,12.53733740234375,3.9190731048583984,-12.494612693786621,-6.422307014465332
1715093343919316500,12.54731640625,5.655792236328125,-10.01805591583252,-4.539981365203857
1715093343929265200,12.55726513671875,-0.15120303630828857,-2.915959358215332,-0.18587374687194824
1715093343939244500,12.56724462890625,-2.305927276611328,-1.4042911529541016,0.35187625885009766
1715093343949223700,12.5772236328125,0.4123901128768921,-3.579082489013672,1.3254151344299316
1715093343959172400,12.58717236328125,-0.8118299245834351,-3.8804426193237305,1.6930248737335205
1715093343969151700,12.59715185546875,-6.042062759399414,-5.285452842712402,-1.142270565032959
1715093343979131000,12.607130859375,-4.921219825744629,-9.399768829345703,-2.490607738494873
1715093343989079600,12.61707958984375,-6.433159828186035,-10.365189552307129,-4.872640609741211
1715093343999059000,12.627058837890624,-3.896730899810791,-3.6325178146362305,-6.377532005310059
1715093344009038000,12.6370380859375,-0.5737835764884949,1.0953083038330078,-4.521739959716797
1715093344018987000,12.646987060546875,1.1057956218719482,3.0017967224121094,-1.0181488990783691
1715093344028966100,12.656966064453124,2.0575735569000244,4.312156677246094,1.3066799640655518
1715093344038945300,12.6669453125,1.6222436428070068,4.999262809753418,1.1472277641296387
1715093344048894200,12.676894287109375,0.7409666776657104,5.223822593688965,-0.9065923690795898
1715093344058873300,12.686873291015624,0.7720279693603516,4.781900405883789,-2.292957067489624
1715093344068822000,12.696822021484374,0.8747740387916565,3.162409782409668,-3.098968744277954
1715093344078801400,12.706801513671875,0.9510669708251953,1.1801280975341797,-3.5725221633911133
1715093344088780500,12.716780517578124,1.6828339099884033,-0.9568605422973633,-3.4546611309051514
1715093344098760000,12.726760009765625,1.5776454210281372,-2.4991188049316406,-2.5704991817474365
1715093344108739000,12.736739013671874,0.7532324194908142,-3.3322324752807617,-3.0038881301879883
1715093344118687700,12.746687744140624,-0.46496468782424927,-2.7864131927490234,-3.476813554763794
1715093344128667100,12.756667236328125,-1.291459560394287,-1.3883962631225586,-3.1422133445739746
1715093344138646300,12.766646240234374,-0.6919000744819641,0.2598876953125,-2.305405616760254
1715093344148595000,12.776594970703124,0.49890434741973877,1.958134651184082,-1.8959338665008545
1715093344158574300,12.78657421875,1.2914373874664307,3.3282079696655273,-2.163154125213623
