time,seconds_elapsed,z,y,x
1715093331486984700,0.114984619140625,12.27410888671875,3.3425140380859375,-0.2904510498046875
1715093331496963800,0.1249638671875,6.396331787109375,3.94586181640625,-1.152374267578125
1715093331506973700,0.1349736328125,7.504852294921875,4.185272216796875,-2.5601654052734375
1715093331516952800,0.144952880859375,8.400283813476562,3.8764190673828125,-1.537841796875
1715093331526962700,0.154962646484375,9.448944091796875,4.07275390625,-1.427703857421875
1715093331536941800,0.16494189453125,10.061859130859375,4.3839874267578125,-1.6168365478515625
1715093331546921200,0.174921142578125,10.744216918945312,4.1493682861328125,-1.3103790283203125
1715093331556900400,0.184900390625,11.474441528320312,3.919525146484375,-0.972808837890625
1715093331566879700,0.194879638671875,12.029891967773438,3.8812103271484375,-0.6711273193359375
1715093331576859000,0.20485888671875,12.281280517578125,3.9290924072265625,-0.4795989990234375
1715093331586838300,0.21483837890625,12.195098876953125,3.9650115966796875,-0.371856689453125
1715093331596787000,0.224786865234375,11.716262817382812,3.9602203369140625,-0.46044921875
1715093331606766000,0.23476611328125,11.105728149414062,4.0775299072265625,-0.4293212890625
1715093331616745500,0.244745361328125,10.581405639648438,4.233154296875,-0.328765869140625
1715093331626724600,0.254724609375,10.260574340820312,4.4007568359375,-0.1252593994140625
1715093331636673300,0.26467333984375,9.832015991210938,4.4510345458984375,-0.086944580078125
1715093331646652700,0.274652587890625,9.501617431640625,4.44384765625,-0.2210235595703125
1715093331656631800,0.2846318359375,9.087417602539062,4.352874755859375,-0.4005889892578125
1715093331666611200,0.294611083984375,8.96771240234375,4.2451324462890625,-0.4795989990234375
1715093331676560000,0.304559814453125,8.965316772460938,4.158935546875,-0.7764739990234375
1715093331686539000,0.3145390625,8.97967529296875,4.10626220703125,-0.953643798828125
1715093331696518400,0.324518310546875,9.125732421875,4.0392303466796875,-1.0230865478515625
1715093331706467000,0.334467041015625,9.250228881835938,3.878814697265625,-0.932098388671875
1715093331716446200,0.3444462890625,9.365142822265625,3.8022003173828125,-0.8123931884765625
1715093331726425600,0.354425537109375,9.46331787109375,3.8692474365234375,-0.7333831787109375
1715093331736374300,0.364374267578125,9.393875122070312,3.9698028564453125,-0.721405029296875
1715093331746353700,0.374353759765625,9.300506591796875,4.015289306640625,-0.8770294189453125
1715093331756332800,0.384332763671875,9.097000122070312,3.984161376953125,-1.1547698974609375
1715093331766281500,0.394281494140625,8.802505493164062,3.9674072265625,-1.3582763671875
1715093331776260900,0.4042607421875,8.388320922851562,4.0488128662109375,-1.4899444580078125
1715093331786240000,0.414239990234375,8.02679443359375,4.21160888671875,-1.6838836669921875
1715093331796219400,0.424219482421875,7.7131500244140625,4.321746826171875,-1.8682403564453125
1715093331806168000,0.43416796875,7.404296875,4.3504791259765625,-1.978363037109375
1715093331816147200,0.444147216796875,7.23431396484375,4.374420166015625,-2.1268157958984375
1715093331826126600,0.454126708984375,7.478515625,4.3816070556640625,-2.2273712158203125
1715093331836105700,0.464105712890625,7.9405975341796875,4.364837646484375,-2.1699066162109375
1715093331846054400,0.474054443359375,8.369155883789062,4.3552703857421875,-2.0549774169921875
1715093331856033800,0.48403369140625,8.742660522460938,4.3552703857421875,-1.84429931640625
1715093331866013000,0.494012939453125,9.051513671875,4.3193511962890625,-1.7892303466796875
1715093331875961600,0.503961669921875,9.235855102539062,4.2092132568359375,-1.8107757568359375
1715093331885941000,0.51394091796875,9.28375244140625,4.1565399169921875,-2.0214691162109375
1715093331895921700,0.523921630859375,9.298110961914062,4.0871124267578125,-1.9759674072265625
1715093331905860000,0.533860107421875,9.355575561523438,4.027252197265625,-1.829925537109375
1715093331915853000,0.54385302734375,9.460922241210938,4.0392303466796875,-1.7269744873046875
1715093331925844500,0.553844482421875,9.585418701171875,4.0296478271484375,-1.6240234375
1715093331935793200,0.563793212890625,9.709915161132812,3.972198486328125,-1.5354461669921875
1715093331945772300,0.573772216796875,9.875106811523438,3.9338836669921875,-1.4013671875
1715093331955751700,0.583751708984375,9.93975830078125,3.9698028564453125,-1.207427978515625
1715093331965700400,0.593700439453125,9.915817260742188,3.972198486328125,-1.0015411376953125
1715093331975679500,0.603679443359375,9.858352661132812,4.005706787109375,-0.941680908203125
1715093331985659000,0.613658935546875,9.688369750976562,4.0248565673828125,-0.9344940185546875
1715093331995607600,0.623607666015625,9.563873291015625,4.0248565673828125,-0.90576171875
1715093332005586700,0.633586669921875,9.51837158203125,4.0535888671875,-0.845916748046875
1715093332015535600,0.64353564453125,9.525558471679688,4.1565399169921875,-0.69268798828125
1715093332025514800,0.6535146484375,9.508804321289062,4.24273681640625,-0.6184539794921875
1715093332035494000,0.663493896484375,9.389083862304688,4.3265380859375,-0.5657958984375
1715093332045442800,0.67344287109375,9.0946044921875,4.4199066162109375,-0.4891815185546875
1715093332055422000,0.683421875,8.8096923828125,4.49652099609375,-0.4317169189453125
1715093332065401300,0.6934013671875,8.594223022460938,4.5731353759765625,-0.1683502197265625
1715093332075380500,0.70338037109375,8.500839233398438,4.7479095458984375,0.039947509765625
1715093332085359600,0.713359619140625,8.338043212890625,4.8676300048828125,0.1285247802734375
1715093332095308500,0.72330859375,8.129745483398438,4.951416015625,0.1476898193359375
1715093332105287700,0.73328759765625,7.89031982421875,5.0807037353515625,0.09979248046875
1715093332115267000,0.74326708984375,7.6293487548828125,5.224365234375,0.0112152099609375
1715093332125215700,0.7532158203125,7.251068115234375,5.293792724609375,-0.2689056396484375
1715093332135195000,0.76319482421875,6.8943328857421875,5.27703857421875,-0.7142333984375
1715093332145174300,0.77317431640625,6.721954345703125,5.092681884765625,-0.88421630859375
1715093332155123000,0.783123046875,6.6142120361328125,5.0016937255859375,-0.6376190185546875
1715093332165102000,0.79310205078125,6.55914306640625,5.10943603515625,-0.498748779296875
1715093332175081500,0.80308154296875,6.923065185546875,4.7718505859375,-0.25933837890625
1715093332185030100,0.813030029296875,8.072280883789062,4.6688995361328125,0.245849609375
1715093332195009300,0.82300927734375,9.132919311523438,4.8628387451171875,0.1165618896484375
1715093332204988700,0.83298876953125,9.666824340820312,4.66650390625,0.0543060302734375
1715093332214937300,0.842937255859375,9.61175537109375,4.5037078857421875,0.2602081298828125
1715093332224916700,0.852916748046875,9.049118041992188,4.45343017578125,-0.022308349609375
1715093332234896000,0.862895751953125,8.220718383789062,4.3385009765625,-0.3359527587890625
1715093332244844500,0.872844482421875,7.8041229248046875,4.1613311767578125,-0.1946868896484375
1715093332254824000,0.882823974609375,8.151290893554688,4.237945556640625,0.109375
1715093332264803000,0.892802978515625,8.414657592773438,4.405548095703125,0.1740264892578125
1715093332274751700,0.902751708984375,8.414657592773438,4.439056396484375,0.126129150390625
1715093332284731100,0.912731201171875,8.575057983398438,4.374420166015625,0.1907806396484375
1715093332294710300,0.922710205078125,8.783355712890625,4.4127197265625,0.18359375
1715093332304659000,0.932658935546875,9.166427612304688,4.4366607666015625,0.3128814697265625
1715093332314638300,0.942638427734375,9.731460571289062,4.580322265625,0.3511962890625
1715093332324617500,0.952617431640625,10.174392700195312,4.63299560546875,0.3607635498046875
1715093332334566400,0.96256640625,10.387466430664062,4.712005615234375,0.2027435302734375
1715093332344545500,0.972545654296875,10.114532470703125,4.585113525390625,0.1285247802734375
1715093332354524700,0.982524658203125,9.436981201171875,4.4294891357421875,-0.0701904296875
1715093332364504000,0.992504150390625,9.374725341796875,4.4989166259765625,-0.45086669921875
1715093332374452700,1.00245263671875,9.3914794921875,4.4869384765625,-0.3096160888671875
1715093332384432000,1.01243212890625,9.4656982421875,4.5084991455078125,-0.1851043701171875
1715093332394411300,1.022411376953125,11.749771118164062,4.6641082763671875,1.5075836181640625
1715093332404390400,1.032390380859375,9.753005981445312,5.5523681640625,-0.235382080078125
1715093332414339300,1.04233935546875,10.437744140625,5.1166229248046875,1.02874755859375
1715093332424318500,1.052318359375,10.863922119140625,5.2052001953125,1.3040771484375
1715093332434297600,1.062297607421875,10.100173950195312,4.8532562255859375,0.030364990234375
1715093332444246500,1.07224658203125,9.85595703125,4.39117431640625,-0.6495819091796875
1715093332454225700,1.0822255859375,9.621322631835938,4.07275390625,-0.8243560791015625
1715093332464205000,1.092205078125,8.9150390625,3.8812103271484375,-0.709442138671875
1715093332474153700,1.10215380859375,9.425003051757812,4.34808349609375,-1.4085540771484375
1715093332484132900,1.1121328125,9.702728271484375,4.2666778564453125,-1.1020965576171875
1715093332494112300,1.1221123046875,9.934967041015625,4.1086578369140625,-0.719024658203125
1715093332504061000,1.13206103515625,10.200729370117188,3.9769744873046875,-0.288055419921875
1715093332514040000,1.1420400390625,9.111358642578125,3.8764190673828125,-0.3263702392578125
1715093332524019500,1.15201953125,6.8632049560546875,3.5651702880859375,-1.03265380859375
1715093332533968100,1.161968017578125,6.3197174072265625,3.67291259765625,-1.7628936767578125
1715093332543947300,1.171947265625,5.8863677978515625,3.866851806640625,-2.124420166015625
1715093332553926700,1.1819267578125,6.152130126953125,3.7160186767578125,-2.622406005859375
1715093332563875300,1.191875244140625,7.1481170654296875,3.256317138671875,-2.34228515625
1715093332573854700,1.201854736328125,8.129745483398438,3.08154296875,-2.1435699462890625
1715093332583833900,1.211833740234375,8.824066162109375,2.885223388671875,-2.63677978515625
1715093332593782500,1.221782470703125,9.331634521484375,2.779876708984375,-2.63677978515625
1715093332603762000,1.231761962890625,9.836807250976562,2.8732452392578125,-2.03582763671875
1715093332613741000,1.241740966796875,10.061859130859375,3.1581573486328125,-1.2984161376953125
1715093332623689700,1.251689697265625,9.721878051757812,3.613067626953125,-0.8626708984375
1715093332633669000,1.261669189453125,9.125732421875,4.079925537109375,-0.678314208984375
1715093332643648300,1.271648193359375,8.335647583007812,4.4558258056640625,-0.56817626953125
1715093332653628700,1.281628662109375,7.71075439453125,4.745513916015625,-0.3670654296875
1715093332663577300,1.291577392578125,7.0786895751953125,5.0424041748046875,-0.053436279296875
1715093332673556500,1.301556396484375,6.3652191162109375,5.1908416748046875,0.241058349609375
1715093332683536000,1.311535888671875,6.3508453369140625,5.389556884765625,0.2171173095703125
1715093332693484500,1.321484619140625,7.1648712158203125,5.42547607421875,-0.3479156494140625
1715093332703463700,1.331463623046875,9.082626342773438,5.298583984375,-1.0709686279296875
1715093332713443000,1.341443115234375,9.341201782226562,4.8891754150390625,-1.1092681884765625
1715093332723391700,1.351391845703125,8.859970092773438,4.64495849609375,-1.1188507080078125
1715093332733371000,1.361370849609375,7.9717254638671875,4.352874755859375,-1.339111328125
1715093332743350300,1.371350341796875,7.1217803955078125,4.92987060546875,-0.6639556884765625
1715093332753299000,1.381298828125,7.9932708740234375,5.087890625,-0.24017333984375
1715093332763278300,1.3912783203125,9.405853271484375,4.45343017578125,-0.4221343994140625
1715093332773257500,1.401257568359375,9.374725341796875,4.1900634765625,-0.740570068359375
1715093332783206100,1.4112060546875,9.47528076171875,4.0392303466796875,-1.8107757568359375
1715093332793185500,1.421185546875,9.647659301757812,3.8692474365234375,-2.0645599365234375
1715093332803164700,1.43116455078125,9.513595581054688,3.962615966796875,-1.987945556640625
1715093332813113300,1.44111328125,9.571044921875,4.1158447265625,-1.8658447265625
1715093332823092700,1.4510927734375,9.307693481445312,4.154144287109375,-1.81317138671875
1715093332833071900,1.46107177734375,8.50323486328125,4.2642822265625,-1.829925537109375
1715093332843020500,1.4710205078125,8.074676513671875,4.386383056640625,-1.9903411865234375
1715093332853000000,1.481,7.89990234375,4.513275146484375,-2.0956878662109375
1715093332862979000,1.49097900390625,7.50006103515625,4.553985595703125,-2.124420166015625
1715093332872928000,1.500927978515625,7.1648712158203125,4.7000274658203125,-2.0382232666015625
1715093332882907100,1.5109072265625,7.2917633056640625,4.6521453857421875,-2.1220245361328125
1715093332892886300,1.52088623046875,7.4234466552734375,4.585113525390625,-2.050201416015625
1715093332902835200,1.530835205078125,7.7203369140625,4.6425628662109375,-1.70782470703125
1715093332912814300,1.540814453125,8.273391723632812,4.5037078857421875,-1.5474090576171875
1715093332922793700,1.550793701171875,8.804901123046875,4.44384765625,-1.4372711181640625
1715093332932772900,1.56077294921875,9.152069091796875,4.3672332763671875,-1.37982177734375
1715093332942721500,1.570721435546875,9.128128051757812,4.259490966796875,-1.5186767578125
1715093332952701000,1.580700927734375,8.019607543945312,4.0224761962890625,-1.7628936767578125
1715093332962680000,1.59068017578125,6.5663299560546875,3.3305511474609375,-2.1746978759765625
1715093332972659500,1.600659423828125,6.98052978515625,3.9674072265625,-2.09808349609375
1715093332982608100,1.610608154296875,8.879119873046875,3.8812103271484375,-2.1914520263671875
1715093332992587300,1.620587158203125,11.680343627929688,3.5627899169921875,-2.28961181640625
1715093333002566700,1.630566650390625,11.965255737304688,3.519683837890625,-1.619232177734375
1715093333012508700,1.6405087890625,11.074615478515625,3.699249267578125,-1.37982177734375
1715093333022487800,1.65048779296875,10.169601440429688,3.8429107666015625,-1.4348907470703125
1715093333032467000,1.660467041015625,9.439376831054688,3.9506378173828125,-1.291229248046875
1715093333042415900,1.670415771484375,8.948562622070312,4.1038665771484375,-1.3822174072265625
1715093333052395000,1.68039501953125,8.68280029296875,4.1709136962890625,-1.75091552734375
1715093333062374400,1.69037451171875,8.601394653320312,4.2355499267578125,-1.70782470703125
1715093333072323000,1.700322998046875,8.5128173828125,4.4629974365234375,-1.57135009765625
1715093333082302200,1.71030224609375,8.697174072265625,4.57073974609375,-1.2026519775390625
1715093333092281600,1.720281494140625,8.759414672851562,4.6353912353515625,-0.94647216796875
1715093333102230300,1.730230224609375,8.563095092773438,4.659332275390625,-0.889007568359375
1715093333112209400,1.74020947265625,8.402679443359375,4.692840576171875,-0.953643798828125
1715093333122188800,1.750188720703125,8.328460693359375,4.776641845703125,-0.9225311279296875
1715093333132137500,1.760137451171875,8.297332763671875,4.8532562255859375,-0.7501373291015625
1715093333142116600,1.77011669921875,8.299728393554688,4.96099853515625,-0.53466796875
1715093333152096000,1.780095947265625,8.194381713867188,5.092681884765625,-0.434112548828125
1715093333162044700,1.790044677734375,8.124954223632812,5.1022491455078125,-0.38623046875
1715093333172023800,1.80002392578125,8.12255859375,5.03521728515625,-0.3383331298828125
1715093333181972700,1.80997265625,8.141708374023438,5.0424041748046875,-0.3574981689453125
1715093333191952000,1.819951904296875,8.0794677734375,5.0495758056640625,-0.359893798828125
1715093333201931300,1.82993115234375,7.854400634765625,5.0495758056640625,-0.4436798095703125
1715093333211910400,1.839910400390625,7.6652679443359375,4.99212646484375,-0.3742523193359375
1715093333221889500,1.8498896484375,7.6341400146484375,4.977752685546875,-0.4101715087890625
1715093333231838500,1.85983837890625,7.9094696044921875,4.7359466552734375,0.02557373046875
1715093333241817600,1.869817626953125,8.275787353515625,4.860443115234375,-0.000762939453125
1715093333251797000,1.879796875,8.634918212890625,4.5420074462890625,0.451751708984375
1715093333261745700,1.88974560546875,8.982070922851562,4.553985595703125,0.4493560791015625
1715093333271724800,1.899724853515625,9.216705322265625,4.6162261962890625,0.2602081298828125
1715093333281704200,1.9097041015625,9.013198852539062,4.6210174560546875,0.13092041015625
1715093333291652900,1.91965283203125,8.615768432617188,4.5300445556640625,0.1811981201171875
1715093333301632000,1.929632080078125,7.3540191650390625,3.888397216796875,0.09979248046875
1715093333311611400,1.939611328125,8.531967163085938,4.3768157958984375,0.0495147705078125
1715093333321560000,1.94956005859375,8.259033203125,5.1237945556640625,-0.0893402099609375
1715093333331539200,1.959539306640625,8.352401733398438,5.14056396484375,0.1859893798828125
1715093333341518600,1.9695185546875,7.7346954345703125,4.6425628662109375,0.171630859375
1715093333351467300,1.97946728515625,7.452178955078125,4.0440216064453125,0.0279693603515625
1715093333361446700,1.98944677734375,6.8847503662109375,4.163726806640625,0.52117919921875
1715093333371425800,1.99942578125,4.9215087890625,4.1158447265625,1.0048065185546875
1715093333381374500,2.00937451171875,2.9055938720703125,4.21160888671875,0.95452880859375
1715093333391353900,2.019353759765625,7.7754058837890625,4.2882232666015625,0.3488006591796875
1715093333401333000,2.0293330078125,9.76019287109375,3.349700927734375,0.736663818359375
1715093333411281700,2.03928173828125,13.021102905273438,2.885223388671875,-0.6855010986328125
1715093333421261000,2.049260986328125,13.7752685546875,2.8732452392578125,-0.8243560791015625
1715093333431240200,2.059240234375,12.9205322265625,2.97381591796875,-1.248138427734375
1715093333441188900,2.06918896484375,12.065811157226562,3.3425140380859375,-1.406158447265625
1715093333451168300,2.079168212890625,11.014755249023438,3.7327728271484375,-1.2194061279296875
1715093333461147400,2.0891474609375,10.31085205078125,4.0440216064453125,-0.836334228515625
1715093333471096300,2.099096435546875,9.95172119140625,4.259490966796875,-0.398193359375
1715093333481075500,2.109075439453125,9.568649291992188,4.597076416015625,-0.01751708984375
1715093333491054600,2.1190546875,9.192764282226562,4.9825439453125,0.1596527099609375
1715093333501034000,2.129033935546875,8.938980102539062,5.27703857421875,0.04473876953125
1715093333510982700,2.138982666015625,8.895889282226562,5.463775634765625,-0.235382080078125
1715093333520962000,2.148962158203125,8.814483642578125,5.58587646484375,-0.455657958984375
1715093333530941200,2.158941162109375,8.783355712890625,5.6074371337890625,-0.8171844482421875
1715093333540920300,2.16892041015625,8.34521484375,5.092681884765625,-1.0350494384765625
1715093333550869200,2.178869140625,8.0794677734375,3.8596649169921875,-0.149200439453125
1715093333560848400,2.188848388671875,8.467330932617188,4.1349945068359375,0.030364990234375
1715093333570827500,2.19882763671875,8.955734252929688,4.3025970458984375,0.2889404296875
1715093333580776400,2.2087763671875,9.645263671875,3.9985198974609375,0.6360931396484375
1715093333590755600,2.218755615234375,10.052291870117188,3.878814697265625,0.7821502685546875
1715093333600735000,2.22873486328125,9.918212890625,3.8548736572265625,0.691162109375
1715093333610683600,2.23868359375,9.403457641601562,3.67291259765625,0.516387939453125
1715093333620662800,2.248662841796875,8.654067993164062,3.402374267578125,0.2434539794921875
1715093333630642200,2.25864208984375,7.6508941650390625,2.9618377685546875,0.0231781005859375
1715093333640590800,2.2685908203125,6.5399932861328125,2.2866668701171875,0.0423431396484375
1715093333650570000,2.278570068359375,3.7698974609375,0.950714111328125,1.9074249267578125
1715093333660549400,2.28854931640625,3.848907470703125,0.835784912109375,2.35992431640625
1715093333670498000,2.298498046875,3.51611328125,1.4678497314453125,3.1978912353515625
1715093333680477200,2.308477294921875,2.4195709228515625,1.2667388916015625,3.906585693359375
1715093333690456600,2.31845654296875,1.1362762451171875,0.6729736328125,3.4181671142578125
1715093333700405200,2.3284052734375,0.39886474609375,0.064849853515625,3.3439483642578125
1715093333710384600,2.338384521484375,0.868133544921875,-0.0500640869140625,4.6439971923828125
1715093333720363800,2.34836376953125,1.0668487548828125,-0.1434478759765625,5.30718994140625
1715093333730312400,2.3583125,1.3517608642578125,-0.727630615234375,5.867431640625
1715093333740291800,2.368291748046875,0.54730224609375,-2.0252838134765625,5.3359222412109375
1715093333750236400,2.378236328125,-0.8197784423828125,-3.7108001708984375,4.1268463134765625
1715093333760215600,2.388215576171875,-1.1142730712890625,-5.00128173828125,2.7334136962890625
1715093333770195000,2.39819482421875,-1.7846527099609375,-6.0379638671875,1.7996826171875
1715093333780167700,2.408167724609375,-2.2730712890625,-6.7945404052734375,0.9688873291015625
1715093333790116400,2.418116455078125,-3.55157470703125,-6.9860687255859375,0.4230194091796875
1715093333800095700,2.428095703125,-5.5243988037109375,-7.3069000244140625,0.7103271484375
1715093333810075000,2.438074951171875,-6.7550048828125,-8.195144653320312,1.5387115478515625
1715093333820054000,2.448053955078125,-8.304061889648438,-10.01953125,2.63525390625
1715093333830003000,2.4580029296875,-9.213851928710938,-11.652374267578125,4.0957183837890625
1715093333839982000,2.467982177734375,-9.233016967773438,-13.522247314453125,5.132415771484375
1715093333849961500,2.47796142578125,-8.849945068359375,-15.926025390625,5.6854705810546875
1715093333859910100,2.48791015625,-7.446929931640625,-18.660202026367188,5.95123291015625
1715093333869889300,2.49788916015625,-3.7359161376953125,-21.957015991210938,6.2074127197265625
1715093333879866600,2.50786669921875,-3.6928253173828125,-25.471710205078125,8.917648315429688
1715093333889815300,2.517815185546875,-1.84210205078125,-26.7669677734375,11.936737060546875
1715093333899794400,2.52779443359375,0.6598358154296875,-27.456497192382812,14.886383056640625
1715093333909773800,2.53777392578125,2.347747802734375,-28.2034912109375,18.42022705078125
1715093333919722500,2.547722412109375,4.9837646484375,-30.693450927734375,21.899002075195312
1715093333929702000,2.557701904296875,7.071502685546875,-33.693389892578125,20.994003295898438
1715093333939681000,2.567680908203125,11.41937255859375,-33.0325927734375,25.576507568359375
1715093333949629700,2.577629638671875,14.309173583984375,-30.097305297851562,30.946701049804688
1715093333959609000,2.587609130859375,15.02264404296875,-27.229049682617188,33.91789245605469
1715093333969588200,2.597588134765625,15.621200561523438,-23.360015869140625,33.8341064453125
1715093333979537000,2.607536865234375,16.765625,-21.585906982421875,32.53883361816406
1715093333989516300,2.617516357421875,16.231719970703125,-20.091934204101562,30.101547241210938
1715093333999495400,2.627495361328125,14.752105712890625,-19.531692504882812,29.479049682617188
1715093334009444000,2.637444091796875,14.977157592773438,-17.862930297851562,28.736846923828125
1715093334019423500,2.647423583984375,15.975540161132812,-14.83905029296875,29.991409301757812
1715093334029412600,2.65741259765625,15.271652221679688,-11.884613037109375,29.0911865234375
1715093334039361300,2.667361328125,14.222991943359375,-9.44012451171875,28.207733154296875
1715093334049340400,2.67734033203125,9.19036865234375,-8.164016723632812,26.6395263671875
1715093334059319800,2.68731982421875,5.6421661376953125,-5.2311248779296875,26.895706176757812
1715093334069299000,2.697298828125,0.6191253662109375,-3.1864776611328125,25.892532348632812
1715093334079248000,2.707247802734375,-4.5212249755859375,-1.3692779541015625,23.02667236328125
1715093334089227000,2.71722705078125,-4.5762939453125,-0.32061767578125,17.718734741210938
1715093334099206100,2.7272060546875,-7.81085205078125,0.340179443359375,13.785049438476562
1715093334109173200,2.73717333984375,-8.366302490234375,1.4941864013671875,12.91595458984375
1715093334119122200,2.7471220703125,-11.390182495117188,0.9291534423828125,9.41802978515625
1715093334129101300,2.757101318359375,-12.572921752929688,0.455108642578125,6.81793212890625
1715093334139080700,2.767080810546875,-12.326324462890625,-0.959869384765625,4.7924346923828125
1715093334149029400,2.777029296875,-9.149215698242188,-5.6501007080078125,1.4285736083984375
1715093334159008500,2.787008544921875,-6.546722412109375,-12.349075317382812,-5.5505218505859375
1715093334168988000,2.79698779296875,-5.24188232421875,-13.955596923828125,-9.105911254882812
1715093334178936600,2.8069365234375,-0.5540313720703125,-12.447250366210938,-4.4659423828125
1715093334188915700,2.816915771484375,0.7867279052734375,-11.264511108398438,1.8332061767578125
1715093334198895000,2.82689501953125,-0.6665496826171875,-5.5232086181640625,-1.7054290771484375
1715093334208843800,2.83684375,-0.1733551025390625,-2.8967742919921875,0.897064208984375
1715093334218823000,2.846822998046875,2.7571563720703125,-3.950225830078125,-1.2936248779296875
1715093334228802300,2.85680224609375,1.588775634765625,-5.9086761474609375,-2.2800445556640625
1715093334238751000,2.8667509765625,-4.7438812255859375,-1.0628204345703125,5.9488372802734375
1715093334248730400,2.87673046875,-4.6074066162109375,-9.495193481445312,7.526611328125
1715093334258709500,2.88670947265625,-1.71282958984375,-9.933334350585938,3.6982879638671875
1715093334268658200,2.896658203125,-0.3433380126953125,-10.249374389648438,2.63525390625
1715093334278637600,2.906637451171875,-0.4223480224609375,-10.026702880859375,2.48681640625
1715093334288616700,2.91661669921875,-0.769500732421875,-8.01318359375,4.531463623046875
1715093334298565400,2.9265654296875,-0.60430908203125,-7.1560516357421875,6.0876922607421875
1715093334308544800,2.936544677734375,1.07403564453125,-9.2701416015625,5.7285614013671875
1715093334318493400,2.946493408203125,2.7691192626953125,-9.071426391601562,4.562591552734375
1715093334328472600,2.95647265625,0.9998016357421875,-10.237396240234375,4.7541351318359375
1715093334338452000,2.966451904296875,4.7132110595703125,-11.958831787109375,5.80517578125
1715093334348431000,2.97643115234375,7.8807373046875,-14.8797607421875,0.82763671875
1715093334358379800,2.9863798828125,7.8831329345703125,-20.139816284179688,-4.408477783203125
1715093334368359200,2.996359130859375,7.198394775390625,-18.217269897460938,-2.61761474609375
1715093334378338300,3.00633837890625,5.9965057373046875,-9.9141845703125,6.051788330078125
1715093334388317700,3.016317626953125,0.5496978759765625,-8.240631103515625,7.3805694580078125
1715093334398296800,3.026296875,-2.0695648193359375,-11.719406127929688,-0.783660888671875
1715093334408245500,3.03624560546875,-0.6641693115234375,-13.541397094726562,-5.37335205078125
1715093334418225000,3.046224853515625,-1.751129150390625,-14.8486328125,-6.02935791015625
1715093334428173600,3.056173583984375,-3.26666259765625,-13.598861694335938,-3.678253173828125
1715093334438153000,3.066153076171875,-1.992950439453125,-13.06494140625,-3.900909423828125
1715093334448132000,3.076132080078125,-0.4127655029296875,-14.010665893554688,-3.065338134765625
1715093334458080800,3.086080810546875,0.4874420166015625,-11.829544067382812,-0.276092529296875
1715093334468060200,3.09606005859375,1.9910125732421875,-12.253311157226562,1.5913848876953125
1715093334478039300,3.106039306640625,0.41082763671875,-13.172683715820312,2.608917236328125
1715093334487988000,3.115988037109375,0.149871826171875,-12.32513427734375,2.702301025390625
1715093334497967400,3.12596728515625,0.3342132568359375,-11.7840576171875,2.0606536865234375
1715093334507946500,3.135946533203125,0.5975799560546875,-10.704269409179688,2.7214508056640625
1715093334517895200,3.145895263671875,0.078033447265625,-11.9013671875,4.964813232421875
1715093334527874600,3.15587451171875,0.8657379150390625,-12.2916259765625,6.2265625
1715093334537853700,3.165853759765625,0.276763916015625,-12.339508056640625,6.27923583984375
1715093334547802600,3.175802734375,-0.06561279296875,-12.2174072265625,5.735748291015625
1715093334557781800,3.18578173828125,-0.3385467529296875,-12.61962890625,6.0876922607421875
1715093334567761000,3.195760986328125,-0.2858734130859375,-12.911712646484375,5.8267364501953125
1715093334577709800,3.205709716796875,0.2169036865234375,-12.428085327148438,4.5218963623046875
1715093334587689000,3.21568896484375,1.29669189453125,-9.878265380859375,1.3950653076171875
1715093334597668400,3.22566845703125,1.8808746337890625,-8.317245483398438,2.194732666015625
1715093334607617000,3.235616943359375,0.9040374755859375,-7.0004425048828125,3.0805816650390625
1715093334617596200,3.24559619140625,-1.176513671875,-7.5606842041015625,2.745391845703125
1715093334627575600,3.255575439453125,-2.7303619384765625,-7.9700927734375,1.4597015380859375
1715093334637524200,3.265524169921875,-1.4183349609375,-8.178390502929688,2.216278076171875
1715093334647503400,3.27550341796875,0.4323883056640625,-10.065017700195312,2.429351806640625
1715093334657482800,3.285482666015625,0.4012603759765625,-11.398590087890625,1.9481201171875
1715093334667462000,3.2954619140625,0.5975799560546875,-11.420135498046875,1.67279052734375
1715093334677441300,3.305441162109375,-0.3577117919921875,-10.838348388671875,2.872283935546875
1715093334687390000,3.315389892578125,-1.581146240234375,-10.290069580078125,3.822784423828125
1715093334697369000,3.325369140625,-4.5260162353515625,-8.851150512695312,4.1483917236328125
1715093334707348500,3.335348388671875,-1.1190643310546875,-7.40985107421875,-0.1827239990234375
1715093334717297200,3.345297119140625,-1.011322021484375,-4.0866851806640625,0.7845458984375
1715093334727276300,3.3552763671875,-2.6896514892578125,-3.0021209716796875,0.4182281494140625
1715093334737255700,3.365255615234375,-2.82373046875,-6.318084716796875,-1.41094970703125
1715093334747204400,3.375204345703125,-1.063995361328125,-7.383514404296875,0.3751373291015625
1715093334757183500,3.38518359375,-0.4127655029296875,-7.5415191650390625,-0.233001708984375
1715093334767163000,3.395162841796875,-1.602691650390625,-7.6875762939453125,-0.5801544189453125
1715093334777111600,3.405111572265625,-3.695220947265625,-7.8838958740234375,-0.613677978515625
1715093334787091000,3.415091064453125,-4.8755645751953125,-5.4705352783203125,0.600189208984375
1715093334797070000,3.425070068359375,-8.363922119140625,-10.598922729492188,7.8522186279296875
1715093334807018800,3.435018798828125,-9.594528198242188,-15.564498901367188,3.2816925048828125
1715093334816998100,3.444998046875,-4.3033447265625,-11.075363159179688,3.2290191650390625
1715093334826977300,3.454977294921875,6.3867645263671875,-7.1536712646484375,-1.96160888671875
1715093334836926000,3.464926025390625,-0.123077392578125,-10.01953125,-3.762054443359375
1715093334846905300,3.4749052734375,-2.534027099609375,-12.310775756835938,1.9026336669921875
1715093334856884500,3.484884521484375,9.86553955078125,-6.8017120361328125,7.2321319580078125
1715093334866833200,3.494833251953125,6.3771820068359375,-0.4929962158203125,8.249664306640625
1715093334876812500,3.5048125,-0.0536346435546875,0.4575042724609375,2.31683349609375
1715093334886791700,3.514791748046875,-2.1916656494140625,-4.1489410400390625,1.8188323974609375
1715093334896740600,3.52474072265625,-4.561920166015625,-8.693130493164062,0.253021240234375
1715093334906719700,3.5347197265625,-8.296875,-7.1800079345703125,1.256195068359375
1715093334916699000,3.544698974609375,-8.723052978515625,-1.129852294921875,2.534698486328125
1715093334926647800,3.554647705078125,-4.784576416015625,-0.548065185546875,2.1588134765625
1715093334936627000,3.564626953125,6.415496826171875,-8.02276611328125,-4.1570892333984375
1715093334946606300,3.5746064453125,6.468170166015625,-10.414566040039062,-2.81634521484375
1715093334956585500,3.58458544921875,4.409149169921875,-13.462387084960938,-0.3574981689453125
1715093334966564600,3.594564697265625,1.006988525390625,-25.174819946289062,8.091644287109375
1715093334976513500,3.604513427734375,-2.5412139892578125,-23.32171630859375,5.6256103515625
1715093334986492700,3.61449267578125,-2.332916259765625,-15.284378051757812,3.5570220947265625
1715093334996472000,3.62447216796875,-0.482208251953125,-17.721664428710938,-0.2689056396484375
1715093335006420700,3.634420654296875,0.8441925048828125,-20.372055053710938,-0.594512939453125
1715093335016400000,3.64439990234375,1.6318817138671875,-17.482254028320312,1.9553070068359375
1715093335026379300,3.654379150390625,3.45147705078125,-14.860595703125,2.1995086669921875
1715093335036328000,3.664327880859375,0.6717987060546875,-12.756103515625,3.633636474609375
1715093335046307000,3.67430712890625,0.2336578369140625,-11.252532958984375,3.918548583984375
1715093335056256000,3.684256103515625,0.499420166015625,-9.648422241210938,3.5761871337890625
1715093335066235100,3.694235107421875,0.9303741455078125,-8.094589233398438,3.279296875
1715093335076214300,3.70421435546875,0.489837646484375,-6.717926025390625,2.534698486328125
1715093335086163200,3.7141630859375,0.0684661865234375,-5.779388427734375,1.720672607421875
1715093335096142300,3.724142333984375,1.047698974609375,-5.8081207275390625,-0.09173583984375
1715093335106121700,3.734121826171875,0.96868896484375,-6.4425811767578125,0.705535888671875
1715093335116070400,3.7440703125,-1.2315826416015625,-9.033111572265625,1.6751861572265625
1715093335126049500,3.754049560546875,2.74517822265625,-10.852706909179688,2.556243896484375
1715093335136029000,3.76402880859375,3.2120513916015625,-8.410614013671875,1.3902740478515625
1715093335145977600,3.7739775390625,2.5512542724609375,-5.547149658203125,1.404632568359375
1715093335155956700,3.783956787109375,1.80426025390625,-5.6908111572265625,2.438934326171875
1715093335165936000,3.79393603515625,1.4666748046875,-6.9693145751953125,2.8842620849609375
1715093335175884800,3.803884765625,1.5049896240234375,-7.1752166748046875,2.42218017578125
1715093335185864000,3.813864013671875,1.7013092041015625,-7.036346435546875,2.3934478759765625
1715093335195843300,3.82384326171875,1.821014404296875,-6.935791015625,2.2928924560546875
1715093335205822500,3.833822509765625,1.904815673828125,-6.952545166015625,2.18994140625
1715093335215771100,3.843771240234375,2.062835693359375,-7.10577392578125,2.2881011962890625
1715093335225750500,3.85375048828125,2.5009765625,-7.2877349853515625,2.754974365234375
1715093335235729700,3.863729736328125,2.1035308837890625,-7.6564483642578125,2.8315887451171875
1715093335245709000,3.873708984375,2.0556488037109375,-7.776153564453125,3.55462646484375
1715093335255657700,3.88365771484375,1.8258056640625,-8.149658203125,4.3997802734375
1715093335265636900,3.893636962890625,1.5217437744140625,-8.733840942382812,5.0893096923828125
1715093335275616300,3.9036162109375,0.9447479248046875,-9.5550537109375,5.5489959716796875
1715093335285565000,3.91356494140625,0.362945556640625,-10.57977294921875,5.8339080810546875
1715093335295544300,3.92354443359375,0.4491424560546875,-11.664337158203125,5.7692718505859375
1715093335305523500,3.9335234375,0.626312255859375,-12.89495849609375,5.297607421875
1715093335315472100,3.94347216796875,1.2152862548828125,-13.74969482421875,4.99114990234375
1715093335325451500,3.953451416015625,1.8138427734375,-13.874191284179688,4.720611572265625
1715093335335430700,3.9634306640625,2.438720703125,-13.07452392578125,4.6846923828125
1715093335345379300,3.97337939453125,2.8170013427734375,-12.030654907226562,4.699066162109375
1715093335355358700,3.983358642578125,3.0372772216796875,-11.1400146484375,5.28564453125
1715093335365337900,3.993337890625,2.860107421875,-10.639617919921875,5.8602447509765625
1715093335375286500,4.00328662109375,2.92474365234375,-10.953262329101562,6.317535400390625
1715093335385266000,4.013265869140625,2.44830322265625,-12.887771606445312,6.209808349609375
1715093335395245000,4.0232451171875,1.8018646240234375,-15.581253051757812,5.271270751953125
1715093335405194000,4.033194091796875,0.27197265625,-17.872512817382812,3.3774566650390625
1715093335415173000,4.043173095703125,-1.4255218505859375,-17.048904418945312,1.3280181884765625
1715093335425152300,4.05315234375,-2.893157958984375,-13.692230224609375,-0.0103302001953125
1715093335435101200,4.06310107421875,-1.7223968505859375,-11.254928588867188,-0.8028106689453125
1715093335445080300,4.073080322265625,-0.7288055419921875,-9.983612060546875,-1.7700653076171875
1715093335455059700,4.083059814453125,-1.1334228515625,-8.997207641601562,-1.480377197265625
1715093335465008400,4.09300830078125,-1.222015380859375,-8.578216552734375,0.097412109375
1715093335474987500,4.102987548828125,-1.1789093017578125,-8.3292236328125,0.5547027587890625
1715093335484936200,4.112936279296875,-1.2986297607421875,-8.137680053710938,0.485260009765625
1715093335494915600,4.12291552734375,-1.35369873046875,-7.6085662841796875,0.071075439453125
1715093335504894700,4.132894775390625,-1.43988037109375,-6.5479278564453125,0.1764068603515625
1715093335514874000,4.1428740234375,-1.602691650390625,-6.6676483154296875,0.0662841796875
1715093335524853200,4.152853271484375,-1.202850341796875,-8.027542114257812,-1.0877227783203125
1715093335534802000,4.162802001953125,-1.46142578125,-9.36590576171875,-2.2656707763671875
1715093335544781300,4.17278125,-1.3991851806640625,-10.292465209960938,-3.287994384765625
1715093335554760400,4.182760498046875,-0.8916168212890625,-10.519912719726562,-4.07568359375
1715093335564709400,4.19270947265625,-0.38165283203125,-9.748977661132812,-4.4515838623046875
1715093335574688500,4.2026884765625,0.04931640625,-8.391464233398438,-4.0445709228515625
1715093335584667600,4.212667724609375,0.1738128662109375,-7.4553375244140625,-3.4651641845703125
1715093335594616600,4.222616455078125,-0.515716552734375,-7.01959228515625,-3.0461883544921875
1715093335604595700,4.232595703125,-0.0009613037109375,-6.940582275390625,-2.57452392578125
1715093335614574800,4.242574951171875,-0.0272979736328125,-7.49603271484375,-2.5194549560546875
1715093335624523800,4.252523681640625,-0.2164459228515625,-8.348373413085938,-2.569732666015625
1715093335634503000,4.2625029296875,-0.434326171875,-9.198318481445312,-2.1483612060546875
1715093335644482300,4.272482421875,-0.800628662109375,-9.827987670898438,-1.4731903076171875
1715093335654431000,4.282430908203125,-0.93231201171875,-10.076980590820312,-0.900970458984375
1715093335664410000,4.29241015625,-1.075958251953125,-10.0745849609375,-0.2808837890625
1715093335674389500,4.302389404296875,-0.9706268310546875,-9.818405151367188,0.7103271484375
1715093335684338200,4.312338134765625,-0.8293609619140625,-9.17437744140625,1.414215087890625
1715093335694317300,4.3223173828125,-0.884429931640625,-8.611740112304688,1.483642578125
1715093335704296700,4.332296630859375,-1.2363739013671875,-8.02276611328125,1.4261932373046875
1715093335714245400,4.342245361328125,-1.3417205810546875,-7.754608154296875,1.3376007080078125
1715093335724224500,4.352224609375,-1.8756256103515625,-8.355560302734375,1.37591552734375
1715093335734204000,4.362203857421875,-1.9378814697265625,-8.946914672851562,1.234649658203125
1715093335744152600,4.372152587890625,-1.4853668212890625,-7.9724884033203125,0.6887664794921875
1715093335754132000,4.382132080078125,-1.497344970703125,-8.906219482421875,1.296905517578125
1715093335764111000,4.392111083984375,-1.2244110107421875,-9.1336669921875,1.2322540283203125
1715093335774059800,4.402059814453125,-1.2100372314453125,-9.792068481445312,1.8188323974609375
1715093335784039200,4.4120390625,-1.708038330078125,-9.126480102539062,1.74700927734375
1715093335794018300,4.422018310546875,-1.5524139404296875,-9.030715942382812,1.483642578125
1715093335803997700,4.431997802734375,-1.676910400390625,-8.764968872070312,2.04388427734375
1715093335813946400,4.4419462890625,-1.84210205078125,-8.5830078125,2.6639862060546875
1715093335823925500,4.451925537109375,-1.9330902099609375,-8.61651611328125,2.829193115234375
1715093335833905000,4.46190478515625,-2.057586669921875,-8.966079711914062,3.1595916748046875
1715093335843884000,4.471884033203125,-1.9163360595703125,-9.239013671875,3.0709991455078125
1715093335853832700,4.481832763671875,-2.00970458984375,-9.590957641601562,3.1236724853515625
1715093335863812000,4.49181201171875,-1.6840972900390625,-10.0745849609375,2.53948974609375
1715093335873791200,4.501791259765625,-1.0568084716796875,-10.397811889648438,1.9936065673828125
1715093335883740000,4.511739990234375,-0.3481292724609375,-10.4217529296875,1.6009674072265625
1715093335893719300,4.52171923828125,0.69573974609375,-10.323593139648438,0.832427978515625
1715093335903698400,4.531698486328125,1.567230224609375,-10.103317260742188,0.26739501953125
1715093335913647400,4.5416474609375,3.099517822265625,-9.42816162109375,0.7414398193359375
1715093335923626500,4.55162646484375,3.669342041015625,-9.035507202148438,0.3272552490234375
1715093335933605600,4.561605712890625,4.1290283203125,-8.839187622070312,0.5666656494140625
1715093335943554600,4.571554443359375,4.2487335205078125,-9.58856201171875,0.394287109375
1715093335953533700,4.58153369140625,3.3293609619140625,-10.314010620117188,0.3488006591796875
1715093335963512800,4.591512939453125,2.232818603515625,-10.95086669921875,0.6768035888671875
1715093335973461800,4.601461669921875,1.2440185546875,-11.491958618164062,0.8731231689453125
1715093335983441000,4.61144091796875,1.05487060546875,-12.037841796875,0.9952239990234375
1715093335993420300,4.621420166015625,0.2121124267578125,-12.487945556640625,1.28253173828125
1715093336003369000,4.631368896484375,0.0684661865234375,-12.485549926757812,1.4214019775390625
1715093336013348000,4.64134814453125,0.6717987060546875,-11.590118408203125,1.73504638671875
1715093336023327500,4.651327392578125,0.0062103271484375,-10.340347290039062,2.4580841064453125
1715093336033276200,4.661276123046875,-1.6266326904296875,-9.58856201171875,3.12127685546875
1715093336043255300,4.67125537109375,-1.878021240234375,-9.1336669921875,3.0662078857421875
1715093336053204200,4.681204345703125,-1.6793060302734375,-9.1767578125,1.742218017578125
1715093336063183400,4.691183349609375,-2.478973388671875,-8.841583251953125,1.6751861572265625
1715093336073162500,4.70116259765625,-2.4981231689453125,-8.532730102539062,0.2865447998046875
1715093336083142000,4.711141845703125,-1.8014068603515625,-8.197540283203125,-2.1818695068359375
1715093336093121000,4.72112109375,-1.370452880859375,-8.331619262695312,-4.1810302734375
1715093336103070000,4.731070068359375,-1.509307861328125,-9.559844970703125,-5.9886627197265625
1715093336113049000,4.741049072265625,-2.5675506591796875,-11.59490966796875,-7.4443359375
1715093336123028200,4.7510283203125,-3.7957763671875,-13.127197265625,-8.567214965820312
1715093336132977200,4.76097705078125,-4.86358642578125,-13.9627685546875,-8.732406616210938
1715093336142956300,4.770956298828125,-5.6057891845703125,-15.200576782226562,-7.9495086669921875
1715093336152935700,4.780935791015625,-5.9792938232421875,-16.445556640625,-6.0078125
1715093336162884400,4.79088427734375,-4.8923187255859375,-17.252410888671875,-1.05181884765625
1715093336172863500,4.800863525390625,-4.3320770263671875,-16.9722900390625,1.9361572265625
1715093336182843000,4.8108427734375,-5.189208984375,-14.604415893554688,4.9983367919921875
1715093336192791600,4.82079150390625,-4.856414794921875,-12.62921142578125,7.141143798828125
1715093336202770700,4.830770751953125,-7.0734405517578125,-12.962005615234375,7.5457611083984375
1715093336212750000,4.84075,-5.8308563232421875,-10.598922729492188,9.260009765625
1715093336222698800,4.85069873046875,-3.642547607421875,-7.6612396240234375,8.565704345703125
1715093336232678000,4.860677978515625,-0.4750213623046875,-6.2366790771484375,6.9855194091796875
1715093336242657300,4.8706572265625,0.403656005859375,-6.5000457763671875,5.2832489013671875
1715093336252606000,4.88060595703125,0.384490966796875,-7.66363525390625,3.2816925048828125
1715093336262585300,4.89058544921875,0.6143341064453125,-8.824813842773438,1.46209716796875
1715093336272564500,4.900564453125,1.212890625,-9.191131591796875,0.324859619140625
1715093336282513200,4.91051318359375,1.7396240234375,-9.040298461914062,-0.1252593994140625
1715093336292492500,4.920492431640625,2.2304229736328125,-8.501602172851562,-0.0821533203125
1715093336302471700,4.9304716796875,2.381256103515625,-7.9700927734375,-0.4915618896484375
1715093336312420400,4.94042041015625,2.141845703125,-7.553497314453125,-1.18109130859375
1715093336322399700,4.950399658203125,1.713287353515625,-7.24224853515625,-1.4516448974609375
1715093336332379000,4.96037890625,1.33978271484375,-6.962127685546875,-1.427703857421875
1715093336342327600,4.97032763671875,1.0213623046875,-6.6149749755859375,-1.343902587890625
1715093336352307000,4.980306884765625,0.7819366455078125,-6.358795166015625,-1.217010498046875
1715093336362286000,4.9902861328125,0.7340545654296875,-6.284576416015625,-1.1236419677734375
1715093336372265500,5.000265380859375,0.647857666015625,-6.1193695068359375,-1.1499786376953125
1715093336382214100,5.010214111328125,1.1147308349609375,-6.07867431640625,-1.03265380859375
1715093336392193300,5.020193359375,1.5744171142578125,-6.1887969970703125,-0.9823760986328125
1715093336402172700,5.030172607421875,1.8904571533203125,-6.43780517578125,-0.9488677978515625
1715093336412151800,5.04015185546875,2.1250762939453125,-6.6820068359375,-0.745361328125
1715093336422100500,5.0501005859375,2.369293212890625,-6.9860687255859375,-0.24017333984375
1715093336432080000,5.060079833984375,2.632659912109375,-7.294921875,0.442169189453125
1715093336442059000,5.07005908203125,2.8529205322265625,-7.618133544921875,1.4118194580078125
1715093336452008000,5.080008056640625,2.8170013427734375,-8.247817993164062,2.575408935546875
1715093336461987000,5.089987060546875,2.4195709228515625,-8.803268432617188,4.0167083740234375
1715093336471966200,5.09996630859375,2.0963592529296875,-8.676376342773438,6.0469970703125
1715093336481915100,5.1099150390625,1.77313232421875,-8.135284423828125,8.283187866210938
1715093336491894300,5.119894287109375,1.0716400146484375,-7.943756103515625,9.470703125
1715093336501873700,5.129873779296875,-0.28826904296875,-8.855941772460938,9.391693115234375
1715093336511822300,5.139822265625,-0.609100341796875,-10.256546020507812,8.623153686523438
1715093336521801500,5.149801513671875,0.35577392578125,-11.939666748046875,6.7796173095703125
1715093336531780900,5.15978076171875,0.923187255859375,-14.211776733398438,4.0358734130859375
1715093336541729500,5.1697294921875,4.3732452392578125,-16.366546630859375,0.6337127685546875
1715093336551708700,5.179708740234375,8.560699462890625,-18.344161987304688,-1.3199615478515625
1715093336561688000,5.18968798828125,8.369155883789062,-17.704910278320312,-3.2951812744140625
1715093336571636700,5.19963671875,3.07318115234375,-13.309158325195312,-2.959991455078125
1715093336581615900,5.209615966796875,-0.9442901611328125,-11.453643798828125,1.3687286376953125
1715093336591595300,5.21959521484375,0.7723541259765625,-11.075363159179688,5.8817901611328125
1715093336601544000,5.2295439453125,-2.194061279296875,-11.633209228515625,6.17388916015625
1715093336611523300,5.2395234375,-3.35284423828125,-14.563720703125,5.9871368408203125
1715093336621502500,5.24950244140625,-4.98809814453125,-20.295440673828125,5.81475830078125
1715093336631451100,5.259451171875,-7.466094970703125,-22.462188720703125,0.377532958984375
1715093336641430500,5.269430419921875,-4.8851470947265625,-18.703292846679688,-3.2065887451171875
1715093336651409700,5.27940966796875,-3.30975341796875,-12.550201416015625,-3.24969482421875
1715093336661389000,5.28938916015625,-0.3481292724609375,-8.846359252929688,-0.055816650390625
1715093336671337700,5.299337646484375,1.2057037353515625,-6.43780517578125,1.4285736083984375
1715093336681316900,5.30931689453125,1.387664794921875,-5.132965087890625,1.2274627685546875
1715093336691296300,5.319296142578125,-0.017730712890625,-4.1561279296875,-0.477203369140625
1715093336701275400,5.329275390625,-0.2379913330078125,-4.2016143798828125,-2.6128387451171875
1715093336711224000,5.33922412109375,0.71728515625,-4.3668212890625,-3.0294189453125
1715093336721203500,5.349203369140625,1.7803192138671875,-5.798553466796875,-3.5058746337890625
1715093336731182600,5.3591826171875,1.9694671630859375,-7.912628173828125,-4.30792236328125
1715093336741131300,5.36913134765625,0.916015625,-10.378662109375,-5.7564239501953125
1715093336751110700,5.379110595703125,-1.2938385009765625,-12.56695556640625,-7.4586944580078125
1715093336761089800,5.38908984375,-2.184478759765625,-12.909332275390625,-6.9367523193359375
1715093336771038700,5.399038818359375,-0.3217926025390625,-10.83355712890625,-4.9495697021484375
1715093336781017900,5.409017822265625,1.3900604248046875,-7.88629150390625,-3.8027496337890625
1715093336790997000,5.4189970703125,2.105926513671875,-5.7243194580078125,-2.9623870849609375
1715093336800946000,5.42894580078125,1.0093841552734375,-4.484130859375,-2.1268157958984375
1715093336810925000,5.438925048828125,2.4411163330078125,-4.163299560546875,0.11895751953125
1715093336820904200,5.448904296875,4.5623779296875,-5.5902557373046875,1.4381561279296875
1715093336830853000,5.45885302734375,2.5823822021484375,-7.8048858642578125,2.46527099609375
1715093336840832300,5.468832275390625,-1.9282989501953125,-9.875869750976562,3.8898162841796875
1715093336850811600,5.478811767578125,-2.7040252685546875,-12.030654907226562,4.7038421630859375
1715093336860760300,5.48876025390625,-2.4669952392578125,-11.111282348632812,3.4301300048828125
1715093336870739500,5.498739501953125,-1.7918243408203125,-11.5733642578125,4.6607513427734375
1715093336880718800,5.50871875,-1.2770843505859375,-10.93890380859375,4.1364288330078125
1715093336890667500,5.51866748046875,-1.4303131103515625,-9.622085571289062,3.267333984375
1715093336900646700,5.528646728515625,-1.497344970703125,-8.511184692382812,2.640045166015625
1715093336910595600,5.538595703125,-1.4111480712890625,-8.164016723632812,2.31683349609375
1715093336920574700,5.54857470703125,-1.3632659912109375,-7.9054412841796875,2.1396636962890625
1715093336930553900,5.558553955078125,-1.2818603515625,-8.247817993164062,2.1923370361328125
1715093336940533200,5.568533203125,-0.9227294921875,-8.39385986328125,2.61370849609375
1715093336950512400,5.578512451171875,-0.884429931640625,-8.317245483398438,2.903411865234375
1715093336960461300,5.58846142578125,-1.18609619140625,-8.295700073242188,2.872283935546875
1715093336970440400,5.5984404296875,-1.6529693603515625,-8.35076904296875,2.5993499755859375
1715093336980419600,5.608419677734375,-2.3879852294921875,-8.554275512695312,2.249786376953125
1715093336990368500,5.618368408203125,-2.6944427490234375,-8.791305541992188,1.9768524169921875
1715093337000347600,5.62834765625,-2.342498779296875,-9.167190551757812,1.8116607666015625
1715093337010327000,5.6383271484375,-0.9777984619140625,-9.454498291015625,1.6919403076171875
1715093337020275700,5.648275634765625,0.8034820556640625,-9.562225341796875,1.6512451171875
1715093337030254800,5.6582548828125,2.74517822265625,-9.423370361328125,1.4214019775390625
1715093337040234200,5.668234130859375,4.018890380859375,-8.556671142578125,2.0103759765625
1715093337050183000,5.678182861328125,4.64617919921875,-7.575042724609375,2.819610595703125
1715093337060162000,5.688162109375,4.251129150390625,-6.782562255859375,3.1907196044921875
1715093337070141400,5.698141357421875,3.1641693115234375,-6.4569549560546875,3.8682708740234375
1715093337080090000,5.708090087890625,1.0668487548828125,-7.3021087646484375,3.8993988037109375
1715093337090069200,5.7180693359375,-0.27630615234375,-8.927764892578125,4.1029052734375
1715093337100048600,5.728048583984375,-0.0895538330078125,-10.694686889648438,3.8634796142578125
1715093337109997300,5.737997314453125,0.858551025390625,-11.860671997070312,3.3295745849609375
1715093337119976700,5.747976806640625,1.7061004638671875,-12.296417236328125,2.8914337158203125
1715093337129955800,5.757955810546875,2.9271392822265625,-11.91094970703125,3.03509521484375
1715093337139904500,5.767904541015625,2.022125244140625,-11.125640869140625,3.358306884765625
1715093337149884000,5.7778837890625,0.34619140625,-10.69708251953125,3.0231170654296875
1715093337159863000,5.787863037109375,-1.29144287109375,-9.806442260742188,2.6256866455078125
1715093337169811700,5.797811767578125,-3.611419677734375,-9.085784912109375,2.333587646484375
1715093337179791000,5.807791015625,-4.2267303466796875,-8.726654052734375,0.67919921875
1715093337189770200,5.817770263671875,-3.546783447265625,-8.695526123046875,-1.5689544677734375
1715093337199719000,5.827718994140625,-2.797393798828125,-9.097763061523438,-3.0366058349609375
1715093337209698300,5.8376982421875,-2.72796630859375,-10.213455200195312,-4.9615478515625
1715093337219677400,5.847677490234375,-3.7598724365234375,-11.96600341796875,-7.3198394775390625
1715093337229656800,5.85765673828125,-4.4948883056640625,-13.986709594726562,-9.268707275390625
1715093337239605500,5.86760546875,-4.3272857666015625,-15.341827392578125,-9.31658935546875
1715093337249584600,5.877584716796875,-3.747894287109375,-16.84539794921875,-8.574386596679688
1715093337259564000,5.88756396484375,-3.6401519775390625,-19.009750366210938,-7.006195068359375
1715093337269543200,5.897543212890625,-3.3217315673828125,-20.178115844726562,-3.4388275146484375
1715093337279491800,5.907491943359375,-3.63775634765625,-19.787872314453125,0.4230194091796875
1715093337289471200,5.91747119140625,-4.614593505859375,-18.550064086914062,3.082977294921875
1715093337299450400,5.927450439453125,-6.654449462890625,-16.067276000976562,5.1348114013671875
1715093337309399300,5.9373994140625,-8.282516479492188,-12.332321166992188,8.249664306640625
1715093337319378400,5.94737841796875,-7.032745361328125,-9.696304321289062,8.199386596679688
1715093337329357600,5.957357666015625,-4.593048095703125,-7.0435333251953125,6.363037109375
1715093337339306500,5.967306396484375,-1.973785400390625,-5.166473388671875,5.7261810302734375
1715093337349285600,5.97728564453125,-0.980194091796875,-5.2909698486328125,3.686309814453125
1715093337359265000,5.98726513671875,-0.915557861328125,-6.148101806640625,2.40301513671875
1715093337369213700,5.997213623046875,-0.1374359130859375,-7.014801025390625,1.2059173583984375
1715093337379192800,6.00719287109375,1.301483154296875,-7.637298583984375,-0.12286376953125
1715093337389172200,6.017172119140625,2.52252197265625,-8.195144653320312,-1.0111083984375
1715093337399121000,6.027120849609375,3.082763671875,-7.92938232421875,-1.1667327880859375
1715093337409100000,6.03710009765625,3.25274658203125,-7.426605224609375,-1.9687957763671875
1715093337419079400,6.047079345703125,2.9151763916015625,-6.9597320556640625,-2.4883270263671875
1715093337429028000,6.057028076171875,1.8545379638671875,-6.5886383056640625,-2.1387786865234375
1715093337439007200,6.06700732421875,0.767578125,-6.3875274658203125,-1.48516845703125
1715093337448986600,6.076986572265625,-0.123077392578125,-6.318084716796875,-0.814788818359375
1715093337458935300,6.086935302734375,-0.8916168212890625,-6.454559326171875,-0.4221343994140625
1715093337468914700,6.096914794921875,-1.317779541015625,-6.6365203857421875,-0.33355712890625
1715093337478893800,6.106893798828125,-1.2770843505859375,-6.761016845703125,-0.2210235595703125
1715093337488842500,6.116842529296875,-0.546844482421875,-6.8759307861328125,-0.0582122802734375
1715093337498822000,6.12682177734375,0.880096435546875,-6.7682037353515625,0.01361083984375
1715093337508801000,6.136801025390625,2.232818603515625,-6.5263824462890625,-0.1037139892578125
1715093337518780400,6.146780517578125,2.8888397216796875,-6.2893524169921875,-0.1108856201171875
1715093337528729000,6.15672900390625,3.1330413818359375,-6.0140228271484375,0.209930419921875
1715093337538708200,6.166708251953125,3.245574951171875,-5.9350128173828125,0.9665069580078125
1715093337548687600,6.1766875,3.0324859619140625,-6.0834503173828125,2.5801849365234375
1715093337558666800,6.186666748046875,2.867279052734375,-5.4753265380859375,5.41253662109375
1715093337568615400,6.196615478515625,2.3046417236328125,-5.053955078125,8.165863037109375
1715093337578594800,6.2065947265625,1.5289306640625,-5.7434844970703125,9.631118774414062
1715093337588574000,6.216573974609375,0.5257568359375,-7.4984283447265625,10.821029663085938
1715093337598522600,6.226522705078125,-0.271514892578125,-10.067413330078125,11.984619140625
1715093337608502000,6.236501953125,0.1809844970703125,-12.28204345703125,10.708511352539062
1715093337618481200,6.246481201171875,-0.1781463623046875,-14.642730712890625,6.0924835205078125
1715093337628429800,6.256429931640625,0.202545166015625,-16.720901489257812,0.346405029296875
1715093337638409200,6.2664091796875,0.10198974609375,-19.14862060546875,-3.6447296142578125
1715093337648388400,6.276388427734375,1.7324371337890625,-19.986587524414062,-5.0357666015625
1715093337658337300,6.286337158203125,3.954254150390625,-14.04656982421875,-0.2162322998046875
1715093337668316400,6.29631640625,3.6238555908203125,-7.4984283447265625,4.05023193359375
1715093337678295600,6.306295654296875,2.5943450927734375,-7.7665863037109375,5.7285614013671875
1715093337688244500,6.316244384765625,3.1689605712890625,-12.317962646484375,7.2129669189453125
1715093337698223600,6.3262236328125,-0.8916168212890625,-15.823074340820312,6.750885009765625
1715093337708203000,6.336203125,-4.6816253662109375,-18.997787475585938,6.0134735107421875
1715093337718151700,6.346151611328125,-8.002395629882812,-22.727951049804688,4.847503662109375
1715093337728130800,6.356130859375,-4.32489013671875,-20.889205932617188,-0.8746337890625
1715093337738079500,6.36607958984375,-0.388824462890625,-11.982772827148438,-5.380523681640625
1715093337748059000,6.376058837890625,-0.989776611328125,-6.8639678955078125,-2.4883270263671875
1715093337758038000,6.3860380859375,0.8920745849609375,-6.58624267578125,0.6720123291015625
1715093337767987000,6.395987060546875,0.932769775390625,-7.6971435546875,2.8890380859375
1715093337777966000,6.405966064453125,-0.5229034423828125,-8.772140502929688,3.612091064453125
1715093337787945200,6.4159453125,-0.788665771484375,-8.72186279296875,2.915374755859375
1715093337797924600,6.425924560546875,-0.0847625732421875,-9.042694091796875,1.4597015380859375
1715093337807903700,6.43590380859375,0.688568115234375,-10.258941650390625,-0.1252593994140625
1715093337817852700,6.445852783203125,1.3780975341796875,-11.216629028320312,-2.009490966796875
1715093337827831800,6.455831787109375,1.7755279541015625,-11.611663818359375,-3.118011474609375
1715093337837811000,6.46581103515625,0.8777008056640625,-11.714614868164062,-4.300750732421875
1715093337847760000,6.475759765625,-0.21405029296875,-11.11846923828125,-5.845001220703125
1715093337857739000,6.485739013671875,-1.222015380859375,-9.516738891601562,-4.8873291015625
1715093337867718400,6.495718505859375,-1.7894439697265625,-8.149658203125,-3.297576904296875
1715093337877667000,6.5056669921875,-1.528472900390625,-7.077056884765625,-2.1651153564453125
1715093337887646200,6.515646240234375,-0.8197784423828125,-6.48089599609375,-1.9640045166015625
1715093337897625600,6.52562548828125,0.2288818359375,-6.179229736328125,-1.84429931640625
1715093337907574300,6.53557421875,0.8777008056640625,-6.200775146484375,-1.8778076171875
1715093337917553400,6.545553466796875,0.9447479248046875,-6.76580810546875,-1.7700653076171875
1715093337927532800,6.55553271484375,0.3174591064453125,-7.658843994140625,-1.57135009765625
1715093337937481500,6.5654814453125,-0.621063232421875,-8.42498779296875,-1.18109130859375
1715093337947460600,6.575460693359375,-1.348907470703125,-8.915802001953125,-0.7645111083984375
1715093337957440000,6.58543994140625,-1.9019622802734375,-9.097763061523438,-0.2377777099609375
1715093337967388700,6.595388671875,-2.019287109375,-8.877487182617188,0.7558135986328125
1715093337977368000,6.6053681640625,-1.83013916015625,-8.413009643554688,1.6656036376953125
1715093337987347200,6.61534716796875,-1.5643768310546875,-7.9700927734375,2.2833099365234375
1715093337997295900,6.6252958984375,-1.2148284912109375,-7.6037750244140625,2.549072265625
1715093338007275300,6.635275146484375,-0.735992431640625,-7.2350616455078125,2.714263916015625
1715093338017254400,6.64525439453125,-0.2547607421875,-7.19915771484375,2.4509124755859375
1715093338027203000,6.655203125,0.087615966796875,-7.3069000244140625,2.1300811767578125
1715093338037182500,6.665182373046875,0.384490966796875,-7.6205291748046875,1.9864349365234375
1715093338047161600,6.67516162109375,0.2001495361328125,-8.207107543945312,1.677581787109375
1715093338057110300,6.6851103515625,-0.0105438232421875,-8.56146240234375,2.1204986572265625
1715093338067089700,6.695089599609375,-0.6282501220703125,-8.882278442382812,2.5730133056640625
1715093338077068800,6.70506884765625,-1.401580810546875,-9.124099731445312,3.020721435546875
1715093338087048200,6.715048095703125,-1.856475830078125,-9.243804931640625,3.4349212646484375
1715093338096996900,6.724996826171875,-1.66253662109375,-9.294082641601562,4.055023193359375
1715093338106976000,6.73497607421875,-0.4869842529296875,-8.982833862304688,4.500335693359375
1715093338116955400,6.744955322265625,1.2368316650390625,-8.345977783203125,4.5817413330078125
1715093338126934500,6.7549345703125,2.4195709228515625,-7.16802978515625,4.4739990234375
1715093338136883200,6.76488330078125,3.214447021484375,-6.792144775390625,5.0102996826171875
1715093338146862600,6.774862548828125,3.245574951171875,-6.6820068359375,4.5649871826171875
1715093338156841700,6.784841796875,2.1514129638671875,-6.84002685546875,4.624847412109375
1715093338166790700,6.794790771484375,1.1458587646484375,-8.10894775390625,4.6559600830078125
1715093338176769800,6.804769775390625,0.774749755859375,-10.266128540039062,4.8331298828125
1715093338186749000,6.8147490234375,0.9255828857421875,-11.9444580078125,3.7198333740234375
1715093338196697900,6.82469775390625,2.6949005126953125,-12.859054565429688,2.4844207763671875
1715093338206677000,6.834677001953125,4.3899993896484375,-13.151138305664062,1.3735198974609375
1715093338216656400,6.844656494140625,3.3389434814453125,-12.174301147460938,1.996002197265625
1715093338226605000,6.85460498046875,0.1522674560546875,-11.11846923828125,3.061431884765625
1715093338236584200,6.864584228515625,-2.0551910400390625,-10.36907958984375,3.712646484375
1715093338246563600,6.8745634765625,-3.0751190185546875,-9.318023681640625,3.580963134765625
1715093338256512300,6.88451220703125,-4.3679962158203125,-8.015579223632812,2.3838653564453125
1715093338266491400,6.894491455078125,-4.7438812255859375,-7.2183074951171875,-0.1156768798828125
1715093338276470800,6.904470703125,-3.7622528076171875,-7.1033935546875,-2.7397308349609375
1715093338286419500,6.91441943359375,-2.5843048095703125,-8.01318359375,-5.0070343017578125
1715093338296398600,6.924398681640625,-3.4701690673828125,-10.309219360351562,-7.5472869873046875
1715093338306378000,6.9343779296875,-4.6505126953125,-12.993118286132812,-9.888809204101562
1715093338316326700,6.94432666015625,-4.3033447265625,-15.382537841796875,-11.583908081054688
1715093338326306000,6.95430615234375,-3.6186065673828125,-17.618728637695312,-11.1649169921875
1715093338336285200,6.96428515625,-3.44622802734375,-19.227630615234375,-7.9064178466796875
1715093338346233900,6.97423388671875,-3.1685028076171875,-20.44866943359375,-3.730926513671875
1715093338356213200,6.984213134765625,-2.828521728515625,-21.621826171875,0.1428985595703125
1715093338366192400,6.9941923828125,-4.3033447265625,-21.719985961914062,2.68792724609375
1715093338376171800,7.004171875,-7.57861328125,-19.862091064453125,4.1531829833984375
1715093338386120400,7.014120361328125,-10.846694946289062,-14.434432983398438,9.327056884765625
1715093338396099600,7.024099609375,-9.97760009765625,-11.355484008789062,9.578445434570312
1715093338406079000,7.034078857421875,-7.9616851806640625,-9.107330322265625,7.0501708984375
1715093338416058000,7.04405810546875,-3.2331390380859375,-6.3109130859375,5.841094970703125
1715093338426006800,7.0540068359375,-0.1996917724609375,-5.250274658203125,4.8953857421875
1715093338435986200,7.063986083984375,0.7723541259765625,-5.6381378173828125,3.9951629638671875
1715093338445965300,7.07396533203125,0.0804290771484375,-6.9166412353515625,3.5235137939453125
1715093338455914000,7.0839140625,0.118743896484375,-8.173599243164062,3.8108062744140625
1715093338465893400,7.093893310546875,0.509002685546875,-8.978042602539062,3.748565673828125
1715093338475872500,7.10387255859375,1.6438446044921875,-9.045089721679688,3.5498504638671875
1715093338485821200,7.1138212890625,2.5153350830078125,-8.357955932617188,3.130859375
1715093338495800600,7.123800537109375,2.6518096923828125,-7.395477294921875,2.1923370361328125
1715093338505779700,7.13377978515625,2.2304229736328125,-6.634124755859375,1.222686767578125
1715093338515728600,7.143728759765625,1.5528717041015625,-6.157684326171875,0.822845458984375
1715093338525707800,7.153707763671875,1.016571044921875,-5.8177032470703125,0.5714569091796875
1715093338535687000,7.16368701171875,0.6239166259765625,-5.573486328125,0.3918914794921875
1715093338545635800,7.1736357421875,0.3485870361328125,-5.3220977783203125,0.4014739990234375
1715093338555615000,7.183614990234375,0.3174591064453125,-5.092254638671875,0.4014739990234375
1715093338565594400,7.193594482421875,0.635894775390625,-4.8839569091796875,0.4086456298828125
1715093338575543000,7.20354296875,1.1051483154296875,-4.773834228515625,0.241058349609375
1715093338585522200,7.213522216796875,1.4642791748046875,-4.6876373291015625,-0.0582122802734375
1715093338595470800,7.223470947265625,1.8258056640625,-4.721160888671875,-0.3359527587890625
1715093338605450200,7.2334501953125,2.44830322265625,-4.754669189453125,-0.398193359375
1715093338615429400,7.243429443359375,3.1426239013671875,-4.742706298828125,-0.3167877197265625
1715093338625378300,7.25337841796875,3.6238555908203125,-4.7522735595703125,0.0950164794921875
1715093338635357400,7.263357421875,3.774688720703125,-4.785797119140625,0.9401702880859375
1715093338645336600,7.273336669921875,3.6813201904296875,-4.71636962890625,2.4580841064453125
1715093338655316000,7.28331591796875,3.3245849609375,-4.4410400390625,4.921722412109375
1715093338665295000,7.293295166015625,2.7044830322265625,-5.0515594482421875,7.054962158203125
1715093338675244000,7.303244140625,1.155426025390625,-7.63250732421875,8.060516357421875
1715093338685223200,7.31322314453125,-1.2794647216796875,-11.015518188476562,9.054107666015625
1715093338695202300,7.323202392578125,-0.8197784423828125,-13.756866455078125,8.058120727539062
1715093338705151200,7.333151123046875,2.7787017822265625,-14.9228515625,4.466827392578125
1715093338715130400,7.34313037109375,4.023681640625,-16.9722900390625,-1.7748565673828125
1715093338725109800,7.35310986328125,0.9974212646484375,-18.71527099609375,-5.2584228515625
1715093338735058400,7.363058349609375,0.5927886962890625,-16.493438720703125,-3.024627685546875
1715093338745037600,7.37303759765625,3.43231201171875,-12.243743896484375,3.547454833984375
1715093338755017000,7.383016845703125,4.217620849609375,-8.355560302734375,7.701385498046875
1715093338764965600,7.392965576171875,2.3716888427734375,-7.01959228515625,9.549713134765625
1715093338774944800,7.40294482421875,1.9981842041015625,-10.218246459960938,11.469863891601562
1715093338784924200,7.412924072265625,2.031707763671875,-15.289169311523438,10.847366333007812
1715093338794872800,7.422872802734375,-4.0519561767578125,-18.466262817382812,7.229736328125
1715093338804852000,7.43285205078125,-8.023941040039062,-23.115814208984375,1.9600982666015625
1715093338814831400,7.442831298828125,-5.9050750732421875,-25.988845825195312,-0.8076019287109375
1715093338824780000,7.452780029296875,-3.506072998046875,-18.456695556640625,-5.0860443115234375
1715093338834759400,7.462759521484375,-1.78704833984375,-9.085784912109375,-6.046112060546875
1715093338844738600,7.472738525390625,0.6813812255859375,-6.6413116455078125,-2.9480133056640625
1715093338854687200,7.482687255859375,2.28070068359375,-7.4625091552734375,-0.5634002685546875
1715093338864666600,7.49266650390625,1.2200775146484375,-9.698699951171875,1.6632080078125
1715093338874645800,7.502645751953125,-1.1669464111328125,-10.852706909179688,0.8946685791015625
1715093338884594400,7.512594482421875,-1.95703125,-12.013900756835938,0.3871002197265625
1715093338894573800,7.52257373046875,-0.5540313720703125,-13.278030395507812,0.2027435302734375
1715093338904553000,7.532552978515625,0.7292633056640625,-13.108047485351562,-1.2840423583984375
1715093338914501600,7.542501708984375,0.6813812255859375,-11.831939697265625,-2.4284820556640625
1715093338924481000,7.55248095703125,0.0924072265625,-10.6444091796875,-3.2903900146484375
1715093338934460200,7.562460205078125,-0.1374359130859375,-9.54547119140625,-3.5130462646484375
1715093338944439600,7.572439453125,0.9830474853515625,-8.417800903320312,-2.7157745361328125
1715093338954418700,7.582418701171875,0.44195556640625,-7.58941650390625,-2.7253570556640625
1715093338964367400,7.592367431640625,-0.2523651123046875,-7.0411376953125,-2.4500274658203125
1715093338974346800,7.6023466796875,-0.5396575927734375,-6.624542236328125,-2.54339599609375
1715093338984326000,7.612325927734375,-0.101531982421875,-6.3109130859375,-2.57452392578125
1715093338994274600,7.622274658203125,0.920806884765625,-6.0882415771484375,-2.39495849609375
1715093339004254000,7.63225390625,1.2990875244140625,-6.3348541259765625,-2.46917724609375
1715093339014233000,7.642233154296875,1.0405120849609375,-6.751434326171875,-2.2393341064453125
1715093339024182000,7.65218212890625,0.415618896484375,-7.1871795654296875,-1.8538665771484375
1715093339034161200,7.6621611328125,-0.43670654296875,-7.649261474609375,-1.4564361572265625
1715093339044140300,7.672140380859375,-0.9777984619140625,-7.986846923828125,-0.9656219482421875
1715093339054089200,7.682089111328125,-1.296234130859375,-8.106552124023438,-0.37664794921875
1715093339064068400,7.692068359375,-1.449462890625,-8.144866943359375,-0.000762939453125
1715093339074047700,7.7020478515625,-1.401580810546875,-8.135284423828125,0.4876556396484375
1715093339083996400,7.711996337890625,-1.3776397705078125,-7.8096771240234375,1.0072021484375
1715093339093975600,7.7219755859375,-1.0975189208984375,-7.40985107421875,2.0343170166015625
1715093339103955000,7.731954833984375,-1.0352630615234375,-7.05072021484375,2.83636474609375
1715093339113903600,7.741903564453125,-0.7718963623046875,-7.3404083251953125,3.525909423828125
1715093339123882800,7.7518828125,-0.384033203125,-7.7306671142578125,3.6360321044921875
1715093339133862100,7.761862060546875,-0.00335693359375,-8.113739013671875,3.8155975341796875
1715093339143810800,7.771810791015625,0.1857757568359375,-8.369918823242188,4.1029052734375
1715093339153790000,7.7817900390625,0.437164306640625,-8.6572265625,4.689483642578125
1715093339163769300,7.791769287109375,0.489837646484375,-8.7625732421875,5.35986328125
1715093339173718000,7.801718017578125,0.6143341064453125,-8.650039672851562,5.9225006103515625
1715093339183697400,7.811697509765625,0.774749755859375,-8.27655029296875,6.0493927001953125
1715093339193676500,7.821676513671875,1.1195220947265625,-8.300491333007812,6.3558502197265625
1715093339203625200,7.831625244140625,1.598358154296875,-8.216690063476562,6.13079833984375
1715093339213604600,7.8416044921875,2.2447967529296875,-7.7570037841796875,6.295989990234375
1715093339223583700,7.851583740234375,2.254364013671875,-7.383514404296875,6.157135009765625
1715093339233563100,7.861563232421875,1.87847900390625,-7.438568115234375,5.587310791015625
1715093339243511800,7.87151171875,0.98065185546875,-7.924591064453125,5.13958740234375
1715093339253491000,7.881490966796875,-0.630645751953125,-8.903823852539062,4.9408721923828125
1715093339263470300,7.89147021484375,-1.3991851806640625,-10.874252319335938,4.4692230224609375
1715093339273449500,7.901449462890625,-0.656982421875,-12.772857666015625,3.130859375
1715093339283398100,7.911398193359375,1.6055450439453125,-12.978759765625,2.13726806640625
1715093339293377500,7.92137744140625,4.3852081298828125,-11.987564086914062,1.962493896484375
1715093339303356700,7.931356689453125,4.36126708984375,-10.996353149414062,1.979248046875
1715093339313305300,7.941305419921875,2.759552001953125,-10.155990600585938,2.154022216796875
1715093339323284700,7.95128466796875,-0.7000732421875,-9.310836791992188,2.2665557861328125
1715093339333264000,7.961263916015625,-3.52044677734375,-8.4776611328125,2.027130126953125
1715093339343212500,7.971212646484375,-4.7965545654296875,-7.9365692138671875,0.547515869140625
1715093339353192000,7.98119189453125,-4.4158782958984375,-8.413009643554688,-1.691070556640625
1715093339363171000,7.991171142578125,-3.738311767578125,-10.00994873046875,-3.96795654296875
1715093339373120000,8.0011201171875,-4.6529083251953125,-12.756103515625,-6.366943359375
1715093339383099100,8.01109912109375,-5.7590179443359375,-15.700958251953125,-9.929519653320312
1715093339393078300,8.021078369140625,-5.375946044921875,-17.45831298828125,-13.1832275390625
1715093339403027200,8.031027099609375,-3.558746337890625,-19.716049194335938,-14.023590087890625
1715093339413006300,8.04100634765625,-2.3401031494140625,-22.210800170898438,-12.625381469726562
1715093339422985700,8.05098583984375,-2.036041259765625,-22.806961059570312,-8.263153076171875
1715093339432934400,8.060934326171875,-2.639373779296875,-21.121444702148438,-0.9440765380859375
1715093339442913500,8.07091357421875,-4.77740478515625,-19.373672485351562,3.5881500244140625
1715093339452893000,8.080892822265625,-7.0638580322265625,-17.108749389648438,6.6934356689453125
1715093339462841600,8.090841552734375,-9.57537841796875,-12.35626220703125,11.153823852539062
1715093339472820700,8.10082080078125,-9.960845947265625,-10.917343139648438,11.728439331054688
1715093339482800000,8.110800048828125,-7.911407470703125,-7.92938232421875,12.554443359375
1715093339492748800,8.120748779296875,-4.17645263671875,-6.286956787109375,12.061233520507812
1715093339502728000,8.13072802734375,-1.4422760009765625,-5.6118011474609375,9.901657104492188
1715093339512707300,8.140707275390625,-0.853302001953125,-6.74664306640625,6.516265869140625
1715093339522686500,8.1506865234375,-0.4965667724609375,-7.9054412841796875,4.732574462890625
1715093339532635400,8.160635498046876,0.774749755859375,-8.808059692382812,2.9919891357421875
1715093339542614500,8.170614501953125,2.4985809326171875,-9.025924682617188,1.5770263671875
1715093339552593700,8.18059375,3.9159393310546875,-8.527938842773438,0.621734619140625
1715093339562573000,8.190572998046875,3.6501922607421875,-7.7522125244140625,-0.13482666015625
1715093339572521700,8.200521728515625,3.0061492919921875,-6.327667236328125,-0.5634002685546875
1715093339582501000,8.210501220703126,2.400421142578125,-5.053955078125,-1.0111083984375
1715093339592480300,8.220480224609375,2.0173492431640625,-4.335693359375,-1.2409515380859375
1715093339602429000,8.230428955078125,1.715667724609375,-3.8329010009765625,-1.1882781982421875
1715093339612408300,8.240408203125,1.26556396484375,-3.6533355712890625,-1.1667327880859375
1715093339622387500,8.250387451171875,0.9519195556640625,-3.77545166015625,-1.291229248046875
1715093339632336100,8.260336181640625,0.9255828857421875,-3.81854248046875,-1.39178466796875
1715093339642315500,8.2703154296875,1.0955810546875,-3.8161468505859375,-1.4636077880859375
1715093339652294700,8.280294677734375,1.58160400390625,-3.7850189208984375,-1.4875640869140625
1715093339662243300,8.290243408203125,2.127471923828125,-3.9334564208984375,-1.492340087890625
1715093339672222700,8.30022265625,2.8720703125,-3.9957122802734375,-0.848297119140625
1715093339682201900,8.310201904296875,3.4107666015625,-4.1226043701171875,0.1548614501953125
1715093339692150500,8.320150634765625,3.468231201171875,-4.4242706298828125,1.4070281982421875
1715093339702130000,8.3301298828125,3.0588226318359375,-5.132965087890625,3.1452178955078125
1715093339712109000,8.340109130859375,2.347747802734375,-5.6692657470703125,6.104461669921875
1715093339722058000,8.35005810546875,1.4523162841796875,-5.6118011474609375,9.698150634765625
1715093339732037000,8.360037109375,-0.0249176025390625,-7.64447021484375,10.61273193359375
1715093339741985800,8.36998583984375,-1.2627105712890625,-10.606109619140625,11.474655151367188
1715093339751965200,8.379965087890625,-3.19244384765625,-14.266845703125,10.35894775390625
1715093339761944300,8.3899443359375,-0.3577117919921875,-16.407257080078125,7.6822357177734375
1715093339771893000,8.39989306640625,5.0651702880859375,-16.922012329101562,2.915374755859375
1715093339781872400,8.409872314453125,5.4482421875,-18.559646606445312,-3.6591033935546875
1715093339791851500,8.4198515625,2.63983154296875,-18.427963256835938,-4.95196533203125
1715093339801831000,8.429830810546875,2.7643280029296875,-15.1024169921875,0.245849609375
1715093339811810000,8.43981005859375,2.8050384521484375,-10.5390625,5.1419830322265625
1715093339821758700,8.4497587890625,0.9351654052734375,-8.09698486328125,7.5888671875
1715093339831738000,8.459738037109375,-0.5707855224609375,-12.648361206054688,8.070098876953125
1715093339841717200,8.46971728515625,-1.3465118408203125,-20.609085083007812,8.278396606445312
1715093339851666000,8.479666015625,0.075653076171875,-25.32086181640625,5.4771728515625
1715093339861645300,8.489645263671875,-5.7398681640625,-24.066299438476562,-0.561004638671875
1715093339871624400,8.49962451171875,-2.5196685791015625,-15.382537841796875,-4.63592529296875
1715093339881573400,8.509573486328126,-2.0121002197265625,-7.5822296142578125,-4.26483154296875
1715093339891552500,8.519552490234375,-2.69683837890625,-5.3699798583984375,-1.5737457275390625
1715093339901531600,8.52953173828125,-0.367279052734375,-5.587860107421875,1.2729644775390625
1715093339911480600,8.53948046875,0.4658966064453125,-8.760177612304688,3.70068359375
1715093339921459700,8.549459716796875,-0.841339111328125,-11.25732421875,4.138824462890625
1715093339931439000,8.559439208984376,-2.26348876953125,-12.1982421875,2.556243896484375
1715093339941387800,8.5693876953125,-1.6745147705078125,-13.13677978515625,1.5435028076171875
1715093339951367000,8.579366943359375,-0.113494873046875,-13.615615844726562,-0.2736968994140625
1715093339961346300,8.58934619140625,1.356536865234375,-12.408935546875,-1.8203582763671875
1715093339971295000,8.599294921875,1.07403564453125,-11.08734130859375,-2.6080474853515625
1715093339981274000,8.609274169921875,1.1578216552734375,-9.600540161132812,-3.6614990234375
1715093339991253500,8.61925341796875,1.239227294921875,-8.269363403320312,-4.434814453125
1715093340001202200,8.6292021484375,0.8777008056640625,-7.3619537353515625,-3.18743896484375
1715093340011181300,8.639181396484375,0.805877685546875,-6.91424560546875,-2.2010345458984375
1715093340021160700,8.64916064453125,0.8465728759765625,-6.7418670654296875,-1.458831787109375
1715093340031109400,8.659109375,1.260772705078125,-6.62933349609375,-0.7860565185546875
1715093340041088800,8.6690888671875,1.6031494140625,-6.6820068359375,-0.51312255859375
1715093340051068000,8.67906787109375,1.646240234375,-6.7442626953125,0.008819580078125
1715093340061016600,8.6890166015625,1.30865478515625,-7.0650787353515625,0.3511962890625
1715093340070996000,8.698995849609375,0.3605499267578125,-7.3356170654296875,0.4709014892578125
1715093340080975000,8.70897509765625,-0.8341522216796875,-7.517578125,0.75341796875
1715093340090954200,8.718954345703125,-1.6840972900390625,-7.9269866943359375,0.8036956787109375
1715093340100903200,8.728903076171875,-1.9690093994140625,-7.9198150634765625,0.949737548828125
1715093340110882300,8.73888232421875,-1.9282989501953125,-7.553497314453125,1.064666748046875
1715093340120861700,8.74886181640625,-1.413543701171875,-7.654052734375,1.1005706787109375
1715093340130840800,8.7588408203125,-0.9993438720703125,-7.67559814453125,0.980865478515625
1715093340140789500,8.76878955078125,-1.0089263916015625,-7.8408050537109375,1.3376007080078125
1715093340150769000,8.778768798828125,-0.8987884521484375,-8.5518798828125,1.92657470703125
1715093340160748000,8.788748046875,-0.757537841796875,-8.7003173828125,1.9720611572265625
1715093340170696700,8.79869677734375,-0.79583740234375,-8.673980712890625,2.470062255859375
1715093340180676000,8.808676025390625,-1.16455078125,-8.757781982421875,2.438934326171875
1715093340190655200,8.8186552734375,-1.35369873046875,-9.140853881835938,2.53948974609375
1715093340200604000,8.82860400390625,-1.04962158203125,-9.219863891601562,2.185150146484375
1715093340210583300,8.838583251953125,-0.161376953125,-8.851150512695312,2.5778045654296875
1715093340220562400,8.8485625,0.710113525390625,-8.286117553710938,3.0063629150390625
1715093340230511400,8.858511474609376,1.05487060546875,-7.9676971435546875,3.3295745849609375
1715093340240490500,8.868490478515625,1.7851104736328125,-7.5415191650390625,3.8682708740234375
1715093340250469600,8.8784697265625,2.8433380126953125,-7.067474365234375,4.5745697021484375
1715093340260418600,8.88841845703125,4.1673431396484375,-6.897491455078125,5.0510101318359375
1715093340270397700,8.898397705078125,4.8856048583984375,-6.79693603515625,5.364654541015625
1715093340280377000,8.908377197265626,4.28704833984375,-6.9764862060546875,5.2521209716796875
1715093340290325800,8.91832568359375,2.56561279296875,-7.369140625,5.0893096923828125
1715093340300305000,8.928304931640625,0.51617431640625,-8.482452392578125,5.0941009521484375
1715093340310284300,8.9382841796875,-1.540435791015625,-10.584548950195312,5.438873291015625
1715093340320233000,8.94823291015625,-1.83013916015625,-12.871017456054688,5.7118072509765625
1715093340330212000,8.958212158203125,-0.683319091796875,-14.132766723632812,4.7900390625
1715093340340191500,8.96819140625,0.9998016357421875,-14.104034423828125,4.0693817138671875
1715093340350140200,8.97814013671875,3.5975189208984375,-13.347457885742188,3.3559112548828125
1715093340360119300,8.988119384765625,3.6454010009765625,-11.343521118164062,3.4564666748046875
1715093340370098700,8.9980986328125,1.2727508544921875,-9.65081787109375,2.556243896484375
1715093340380077800,9.008077880859375,0.329437255859375,-8.02276611328125,2.33837890625
1715093340390026800,9.01802685546875,-0.2164459228515625,-6.5048370361328125,2.60174560546875
1715093340400006000,9.028005859375,-1.7918243408203125,-5.5758819580078125,1.835601806640625
1715093340409985000,9.037985107421875,-2.9051361083984375,-5.8655853271484375,0.0854339599609375
1715093340419964400,9.04796435546875,-3.790985107421875,-7.2542266845703125,-1.0135040283203125
1715093340429913000,9.0579130859375,-4.0806884765625,-8.872695922851562,-2.0597686767578125
1715093340439892500,9.067892578125,-4.1620941162109375,-11.094528198242188,-3.80035400390625
1715093340449871600,9.07787158203125,-5.332855224609375,-14.422454833984375,-5.9096527099609375
1715093340459820300,9.0878203125,-6.5227813720703125,-17.546890258789062,-7.578399658203125
1715093340469799700,9.097799560546875,-6.5970001220703125,-20.740753173828125,-8.167373657226562
1715093340479778800,9.10777880859375,-5.4310150146484375,-23.78857421875,-7.219268798828125
1715093340489727500,9.1177275390625,-4.741485595703125,-24.803726196289062,-3.953582763671875
1715093340499707000,9.127706787109375,-5.3520050048828125,-23.398330688476562,-0.4628448486328125
1715093340509686000,9.13768603515625,-5.883514404296875,-20.324172973632812,2.553863525390625
1715093340519634700,9.147634765625,-6.72149658203125,-15.928421020507812,5.7548980712890625
1715093340529614000,9.157614013671875,-8.248992919921875,-10.330764770507812,9.415634155273438
1715093340539593200,9.16759326171875,-6.9585113525390625,-7.225494384765625,10.279937744140625
1715093340549542000,9.1775419921875,-3.6473388671875,-5.820098876953125,7.6630859375
1715093340559521300,9.187521240234375,-0.8485107421875,-3.9765625,8.91046142578125
1715093340569500400,9.19750048828125,0.341400146484375,-3.9310760498046875,7.0597381591796875
1715093340579449300,9.207449462890626,-1.0041351318359375,-5.2215423583984375,4.852294921875
1715093340589428500,9.217428466796875,-1.571563720703125,-6.8639678955078125,3.420562744140625
1715093340599407600,9.22740771484375,-0.5205078125,-7.8791046142578125,2.1588134765625
1715093340609356500,9.2373564453125,1.397247314453125,-8.24542236328125,1.0574798583984375
1715093340619335700,9.247335693359375,2.939117431640625,-8.243026733398438,0.3751373291015625
1715093340629315000,9.257315185546876,3.2120513916015625,-7.92938232421875,-0.472412109375
1715093340639263700,9.267263671875,2.8529205322265625,-7.278167724609375,-1.20025634765625
1715093340649243000,9.277242919921875,2.1514129638671875,-6.5215911865234375,-1.7006378173828125
1715093340659222300,9.28722216796875,1.55047607421875,-6.0020599365234375,-1.861053466796875
1715093340669201400,9.297201416015625,1.0045928955078125,-5.705169677734375,-1.834716796875
1715093340679150000,9.307150146484375,0.5137786865234375,-5.6979827880859375,-1.8802032470703125
1715093340689129500,9.31712939453125,0.1259307861328125,-5.7865753173828125,-1.8586578369140625
1715093340699108600,9.327108642578125,-0.0440673828125,-5.7961578369140625,-1.712615966796875
1715093340709088000,9.337087890625,0.11395263671875,-5.9182586669921875,-1.4899444580078125
1715093340719036700,9.34703662109375,0.762786865234375,-6.0978240966796875,-1.164337158203125
1715093340729015800,9.357015869140625,1.8329925537109375,-5.9493865966796875,-0.6232452392578125
1715093340738995200,9.3669951171875,2.685333251953125,-5.8177032470703125,0.0040283203125
1715093340748944000,9.37694384765625,2.919952392578125,-6.0307769775390625,0.9090423583984375
1715093340758923000,9.386923095703125,2.845733642578125,-6.069091796875,2.3982391357421875
1715093340768902400,9.39690234375,2.89361572265625,-5.5687103271484375,4.859466552734375
1715093340778851000,9.40685107421875,2.65899658203125,-4.5918731689453125,7.8450469970703125
1715093340788830500,9.41683056640625,2.2352142333984375,-5.0826873779296875,9.224105834960938
1715093340798809600,9.4268095703125,1.5839996337890625,-6.772979736328125,10.107559204101562
1715093340808758300,9.43675830078125,1.3733062744140625,-8.793685913085938,10.715682983398438
1715093340818737700,9.446737548828125,2.4147796630859375,-10.574981689453125,9.504226684570312
1715093340828716800,9.456716796875,4.21282958984375,-12.188674926757812,5.6950531005859375
1715093340838665500,9.46666552734375,4.4642181396484375,-15.207763671875,0.5618743896484375
1715093340848644900,9.476644775390625,4.1888885498046875,-18.3345947265625,-2.9408416748046875
1715093340858624000,9.4866240234375,4.3756256103515625,-19.251571655273438,-3.065338134765625
1715093340868572700,9.49657275390625,2.560821533203125,-14.786376953125,1.8188323974609375
1715093340878552000,9.506552001953125,0.8394012451171875,-9.571807861328125,6.0541839599609375
1715093340888500700,9.516500732421875,-1.2890472412109375,-9.289291381835938,8.3502197265625
1715093340898480000,9.526480224609376,-2.7040252685546875,-15.677017211914062,9.109176635742188
1715093340908459300,9.536459228515625,-3.01287841796875,-21.760696411132812,9.537750244140625
1715093340918408000,9.546407958984375,-5.1939849853515625,-25.016799926757812,4.5290679931640625
1715093340928387300,9.55638720703125,-6.115753173828125,-21.976165771484375,1.8762969970703125
1715093340938366500,9.566366455078125,-1.734375,-13.905319213867188,-3.716552734375
1715093340948345600,9.576345703125,-0.7503509521484375,-7.9054412841796875,-4.72930908203125
1715093340958325000,9.586324951171875,-1.0472412109375,-5.8296661376953125,-0.1444091796875
1715093340968273700,9.596273681640625,0.255218505859375,-6.564697265625,2.2042999267578125
1715093340978253000,9.606253173828126,-0.38165283203125,-9.215072631835938,3.62646484375
1715093340988232200,9.616232177734375,-1.6649322509765625,-11.094528198242188,2.735809326171875
1715093340998180900,9.626180908203125,-2.658538818359375,-11.501541137695312,1.782928466796875
1715093341008160300,9.63616015625,-0.54205322265625,-12.633987426757812,-0.09173583984375
1715093341018139400,9.646139404296875,2.1083221435546875,-13.055374145507812,-1.9544219970703125
1715093341028088000,9.656088134765625,2.1873321533203125,-12.349075317382812,-2.495513916015625
1715093341038067500,9.6660673828125,1.29669189453125,-11.113677978515625,-2.56494140625
1715093341048046600,9.676046630859375,0.109161376953125,-9.485610961914062,-2.9552001953125
1715093341057995300,9.685995361328125,0.923187255859375,-8.396255493164062,-3.077301025390625
1715093341067974700,9.695974609375,0.329437255859375,-7.658843994140625,-2.622406005859375
1715093341077953800,9.705953857421875,-0.2427825927734375,-6.70355224609375,-2.17230224609375
1715093341087902700,9.71590283203125,0.003814697265625,-6.1552886962890625,-2.145965576171875
1715093341097881900,9.7258818359375,0.62152099609375,-5.798553466796875,-1.84429931640625
1715093341107861000,9.735861083984375,1.481048583984375,-5.7099609375,-1.5498046875
1715093341117810000,9.745809814453125,2.1969146728515625,-5.6692657470703125,-1.190673828125
1715093341127789000,9.7557890625,2.2184600830078125,-5.9086761474609375,-1.080535888671875
1715093341137768400,9.7657685546875,1.239227294921875,-6.2989349365234375,-0.8866119384765625
1715093341147717000,9.775717041015625,-0.20208740234375,-6.8495941162109375,-0.6328277587890625
1715093341157696300,9.7856962890625,-1.2459564208984375,-7.4242095947265625,-0.2832794189453125
1715093341167675600,9.795675537109375,-1.7319793701171875,-7.9988250732421875,0.109375
1715093341177624300,9.805624267578125,-1.9019622802734375,-8.4345703125,0.5068206787109375
1715093341187603500,9.815603515625,-1.6960601806640625,-8.705108642578125,1.0095977783203125
1715093341197582800,9.825582763671875,-1.5835418701171875,-9.358718872070312,1.7853240966796875
1715093341207531500,9.835531494140625,-1.7152099609375,-9.631668090820312,2.640045166015625
1715093341217510700,9.8455107421875,-1.66015625,-9.739395141601562,3.7772979736328125
1715093341227490000,9.855489990234375,-1.5955047607421875,-9.82080078125,4.45245361328125
1715093341237469200,9.86546923828125,-1.89239501953125,-9.600540161132812,4.806793212890625
1715093341247448600,9.875448486328125,-2.12701416015625,-9.250991821289062,4.667938232421875
1715093341257397200,9.885397216796875,-1.909149169921875,-8.958892822265625,4.4811859130859375
1715093341267376400,9.89537646484375,-1.33453369140625,-8.650039672851562,4.679901123046875
1715093341277355800,9.905355712890625,0.2001495361328125,-8.262176513671875,4.78045654296875
1715093341287304400,9.915304443359375,2.2974700927734375,-7.8743133544921875,4.6176605224609375
1715093341297283600,9.92528369140625,4.296630859375,-7.2637939453125,4.33514404296875
1715093341307263000,9.935262939453125,5.548797607421875,-6.5311737060546875,4.4620361328125
1715093341317211600,9.945211669921875,5.3093719482421875,-5.832061767578125,4.6918792724609375
1715093341327191000,9.95519091796875,3.880035400390625,-6.09063720703125,4.356689453125
1715093341337170200,9.965170166015625,2.55364990234375,-7.0914154052734375,4.7469482421875
1715093341347118800,9.975118896484375,0.837005615234375,-9.296478271484375,5.30718994140625
1715093341357098200,9.98509814453125,-0.853302001953125,-11.772079467773438,6.0326385498046875
1715093341367077400,9.995077392578125,-0.8461151123046875,-13.706588745117188,6.7772216796875
1715093341377026000,10.005026123046875,-0.0799713134765625,-14.83905029296875,5.77166748046875
1715093341387005400,10.01500537109375,2.8409423828125,-15.183822631835938,4.5817413330078125
1715093341396984600,10.024984619140625,4.3469085693359375,-14.199798583984375,5.2042388916015625
1715093341406933200,10.034933349609375,2.7691192626953125,-11.558990478515625,6.410919189453125
1715093341416912600,10.04491259765625,0.89447021484375,-9.061843872070312,5.599273681640625
1715093341426891800,10.054891845703125,0.796295166015625,-7.120147705078125,4.3279571533203125
1715093341436840700,10.0648408203125,-0.38165283203125,-5.6046142578125,3.3391571044921875
1715093341446819800,10.07481982421875,-1.8181610107421875,-5.154510498046875,1.6440582275390625
1715093341456799000,10.084799072265625,-2.2850341796875,-6.23907470703125,-0.70465087890625
1715093341466748000,10.094747802734375,-1.8971710205078125,-7.7258758544921875,-2.20343017578125
1715093341476727000,10.10472705078125,-1.7271881103515625,-9.698699951171875,-4.063720703125
1715093341486706400,10.11470654296875,-2.2036285400390625,-12.56695556640625,-6.733245849609375
1715093341496655000,10.124655029296875,-3.4127044677734375,-14.791168212890625,-8.392440795898438
1715093341506634200,10.13463427734375,-4.5020751953125,-17.580413818359375,-9.80023193359375
1715093341516613600,10.144613525390625,-5.004852294921875,-20.929901123046875,-10.231185913085938
1715093341526592800,10.1545927734375,-4.8013458251953125,-23.314529418945312,-7.820220947265625
1715093341536541400,10.16454150390625,-5.3687744140625,-23.779006958007812,-3.690216064453125
1715093341546520800,10.174520751953125,-6.747833251953125,-21.375228881835938,1.1795806884765625
1715093341556500000,10.1845,-7.446929931640625,-17.64984130859375,4.699066162109375
1715093341566479400,10.194479248046875,-9.271316528320312,-12.511886596679688,9.434799194335938
1715093341576428000,10.204427978515625,-7.51397705078125,-9.468856811523438,10.775543212890625
1715093341586407200,10.2144072265625,-5.955352783203125,-5.9398040771484375,12.611892700195312
1715093341596386600,10.224386474609375,-1.7008514404296875,-4.7307281494140625,11.8050537109375
1715093341606335200,10.234335205078125,-0.2667236328125,-4.6182098388671875,8.65667724609375
1715093341616314400,10.244314453125,-1.286651611328125,-5.3795623779296875,6.0278472900390625
1715093341626293800,10.254293701171875,-0.9706268310546875,-6.3228759765625,4.12445068359375
1715093341636242400,10.264242431640625,0.7029266357421875,-7.1225433349609375,2.089385986328125
1715093341646221800,10.274221923828126,2.929534912109375,-7.596588134765625,0.2961273193359375
1715093341656201000,10.284200927734375,3.7100372314453125,-7.977264404296875,-0.68310546875
1715093341666149600,10.294149658203125,3.9351043701171875,-7.7665863037109375,-1.4683990478515625
1715093341676129000,10.30412890625,3.384429931640625,-6.866363525390625,-1.8035888671875
1715093341686108200,10.314108154296875,2.328582763671875,-5.7506561279296875,-1.628814697265625
1715093341696056800,10.324056884765625,1.3685150146484375,-4.8887481689453125,-1.2888336181640625
1715093341706036200,10.3340361328125,0.7196807861328125,-4.4530029296875,-0.7501373291015625
1715093341716015400,10.344015380859375,0.214508056640625,-4.3380889892578125,-0.414947509765625
1715093341725964000,10.353964111328125,-0.0799713134765625,-4.4458160400390625,-0.53466796875
1715093341735943400,10.363943359375,0.1283111572265625,-4.680450439453125,-0.7166290283203125
1715093341745892000,10.37389208984375,0.9184112548828125,-4.7379150390625,-0.6495819091796875
1715093341755871200,10.383871337890625,1.993408203125,-4.98211669921875,-0.9081573486328125
1715093341765850600,10.3938505859375,2.8265838623046875,-5.3053436279296875,-0.2904510498046875
1715093341775799300,10.40379931640625,3.21923828125,-5.7769927978515625,0.937774658203125
1715093341785778700,10.41377880859375,3.0851593017578125,-6.770599365234375,2.6304779052734375
1715093341795757800,10.4237578125,2.7619476318359375,-6.962127685546875,6.178680419921875
1715093341805737000,10.433737060546875,2.2232513427734375,-7.357177734375,9.70294189453125
1715093341815716400,10.44371630859375,0.8034820556640625,-9.274932861328125,11.517745971679688
1715093341825665000,10.4536650390625,-0.209259033203125,-12.13360595703125,13.0428466796875
1715093341835644400,10.46364453125,-1.2076416015625,-15.274795532226562,11.769134521484375
1715093341845623600,10.47362353515625,0.42999267578125,-16.763992309570312,7.4930877685546875
1715093341855602700,10.483602783203125,2.99896240234375,-17.721664428710938,1.9672698974609375
1715093341865551600,10.493551513671875,3.731597900390625,-18.698501586914062,-3.9033050537109375
1715093341875530800,10.50353076171875,5.66131591796875,-17.209320068359375,-4.777191162109375
1715093341885510100,10.51351025390625,3.7818756103515625,-11.920516967773438,-2.2872161865234375
1715093341895458800,10.523458740234375,3.06121826171875,-8.250213623046875,0.253021240234375
1715093341905438000,10.53343798828125,0.362945556640625,-7.9988250732421875,1.56744384765625
1715093341915417300,10.543417236328125,-4.075897216796875,-10.996353149414062,2.7477874755859375
1715093341925366000,10.553365966796875,-4.23870849609375,-19.596328735351562,7.002288818359375
1715093341935345200,10.56334521484375,-5.0718841552734375,-28.766128540039062,11.17059326171875
1715093341945324500,10.573324462890625,-8.1915283203125,-29.508331298828125,5.2473297119140625
1715093341955273200,10.583273193359375,-5.577056884765625,-18.93792724609375,-2.517059326171875
1715093341965252400,10.59325244140625,-3.621002197265625,-9.849533081054688,-3.7931671142578125
1715093341975201300,10.603201171875,-0.367279052734375,-5.7482757568359375,-0.5011444091796875
1715093341985180400,10.613180419921875,2.8792572021484375,-3.5575714111328125,2.3000640869140625
1715093341995159800,10.623159912109376,3.585540771484375,-3.03564453125,3.3822479248046875
1715093342005108500,10.6331083984375,2.0819854736328125,-3.813751220703125,2.350341796875
1715093342015087600,10.643087646484375,0.9447479248046875,-3.179290771484375,0.9138336181640625
1715093342025067000,10.65306689453125,1.1051483154296875,-3.5743255615234375,-0.66156005859375
1715093342035015700,10.663015625,1.44512939453125,-5.1952056884765625,-2.1124420166015625
1715093342044994800,10.672994873046875,1.1266937255859375,-7.723480224609375,-2.7133941650390625
1715093342054974200,10.68297412109375,1.16021728515625,-9.959671020507812,-2.81634521484375
1715093342064923000,10.6929228515625,-0.1685638427734375,-12.705825805664062,-3.814727783203125
1715093342074902000,10.702902099609375,-1.8756256103515625,-14.3099365234375,-3.9392242431640625
1715093342084881400,10.71288134765625,-2.639373779296875,-13.680252075195312,-4.090057373046875
1715093342094860500,10.722860595703125,-1.65057373046875,-10.594131469726562,-3.8841552734375
1715093342104840000,10.73283984375,-0.0416717529296875,-7.2446441650390625,-2.701416015625
1715093342114788600,10.74278857421875,1.102752685546875,-5.0683135986328125,-2.971954345703125
1715093342124767700,10.752767822265625,2.0077667236328125,-3.9741668701171875,-3.0677337646484375
1715093342134747100,10.7627470703125,2.814605712890625,-3.8831787109375,-2.4069366455078125
1715093342144695800,10.77269580078125,2.2830963134765625,-4.7139739990234375,-1.4085540771484375
1715093342154675000,10.782675048828125,0.98065185546875,-5.7865753173828125,0.2027435302734375
1715093342164654300,10.792654296875,-0.13983154296875,-6.7059478759765625,2.5897674560546875
1715093342174603000,10.80260302734375,-1.1310272216796875,-7.8192596435546875,4.5554046630859375
1715093342184582400,10.81258251953125,-1.760711669921875,-9.253372192382812,5.302398681640625
1715093342194561500,10.8225615234375,-2.1796875,-10.2110595703125,5.7381439208984375
1715093342204510200,10.83251025390625,-2.3233489990234375,-10.651596069335938,6.0876922607421875
1715093342214489600,10.842489501953125,-2.2730712890625,-10.81201171875,5.798004150390625
1715093342224468700,10.85246875,-2.385589599609375,-10.46484375,5.08453369140625
1715093342234417400,10.86241748046875,-3.0583648681640625,-10.354705810546875,4.308807373046875
1715093342244396800,10.872396728515625,-3.8675994873046875,-10.309219360351562,3.6096954345703125
1715093342254376000,10.8823759765625,-3.98492431640625,-10.342742919921875,2.999176025390625
1715093342264324600,10.89232470703125,-2.91949462890625,-10.26373291015625,3.0925445556640625
1715093342274304000,10.902303955078125,-1.5907135009765625,-10.175140380859375,3.284088134765625
1715093342284283100,10.912283203125,-0.012939453125,-9.751373291015625,3.240997314453125
1715093342294232000,10.922232177734376,2.1035308837890625,-8.944534301757812,2.82440185546875
1715093342304211200,10.932211181640625,5.1561431884765625,-7.93896484375,2.6256866455078125
1715093342314190300,10.9421904296875,7.57427978515625,-6.866363525390625,2.386260986328125
1715093342324139300,10.95213916015625,7.8352508544921875,-5.556732177734375,2.2330322265625
1715093342334118400,10.962118408203125,5.1298065185546875,-4.510467529296875,1.847564697265625
1715093342344097800,10.972097900390626,2.08917236328125,-5.1425323486328125,2.3455657958984375
1715093342354046500,10.98204638671875,1.081207275390625,-7.9078369140625,3.77490234375
1715093342364025600,10.992025634765625,0.774749755859375,-11.19268798828125,3.90179443359375
1715093342374005000,11.0020048828125,0.5712432861328125,-14.094451904296875,2.4509124755859375
1715093342383984000,11.011984130859375,1.0572662353515625,-16.20135498046875,1.2681732177734375
1715093342393932800,11.021932861328125,2.2400054931640625,-15.902084350585938,2.1660003662109375
1715093342403912200,11.031912109375,1.830596923828125,-13.256484985351562,3.33197021484375
1715093342413891300,11.041891357421875,-0.302642822265625,-10.108108520507812,3.4397125244140625
1715093342423870700,11.05187060546875,-1.992950439453125,-7.3188629150390625,3.2697296142578125
1715093342433819400,11.0618193359375,-2.0863189697265625,-5.113800048828125,3.6144866943359375
1715093342443798500,11.071798583984375,-3.039215087890625,-3.6054534912109375,3.7461700439453125
1715093342453778000,11.08177783203125,-3.4031219482421875,-3.5839080810546875,2.175567626953125
1715093342463726600,11.0917265625,-3.431854248046875,-4.881561279296875,-0.67352294921875
1715093342473705700,11.101705810546875,-3.0655517578125,-7.13690185546875,-3.5537567138671875
1715093342483685000,11.11168505859375,-2.80218505859375,-10.488784790039062,-5.3039093017578125
1715093342493633800,11.1216337890625,-2.6298065185546875,-13.965164184570312,-6.6398773193359375
1715093342503613200,11.13161328125,-2.237152099609375,-18.559646606445312,-8.445114135742188
1715093342513592300,11.14159228515625,-2.6250152587890625,-24.078277587890625,-10.872833251953125
1715093342523541000,11.151541015625,-3.2259521484375,-28.383056640625,-9.704452514648438
1715093342533520400,11.161520263671875,-3.939422607421875,-28.617691040039062,-4.4659423828125
1715093342543499500,11.17149951171875,-7.298492431640625,-24.521209716796875,1.1053619384765625
1715093342553448200,11.1814482421875,-11.373428344726562,-18.8421630859375,5.0629730224609375
1715093342563427600,11.191427490234375,-9.642425537109375,-12.392181396484375,10.686965942382812
1715093342573406700,11.20140673828125,-8.730224609375,-8.966079711914062,10.074050903320312
1715093342583355400,11.21135546875,-6.252227783203125,-6.571868896484375,11.082000732421875
1715093342593334800,11.221334716796875,-1.94744873046875,-5.8895263671875,11.254379272460938
1715093342603314000,11.23131396484375,0.705322265625,-5.968536376953125,9.461135864257812
1715093342613262600,11.2412626953125,0.1474761962890625,-6.7753753662109375,6.7844085693359375
1715093342623242000,11.251241943359375,-0.4965667724609375,-7.49603271484375,5.6016693115234375
1715093342633221000,11.26122119140625,-0.017730712890625,-8.353164672851562,3.7844696044921875
1715093342643170000,11.271170166015626,1.050079345703125,-8.602157592773438,2.2306365966796875
1715093342653142300,11.281142333984375,2.9486846923828125,-7.9700927734375,0.863555908203125
1715093342663121400,11.291121337890624,3.530487060546875,-6.7753753662109375,0.3344268798828125
1715093342673100500,11.3011005859375,3.2288055419921875,-5.5423736572265625,-0.2042694091796875
1715093342683049500,11.311049560546875,2.5153350830078125,-4.14654541015625,-0.6160736083984375
1715093342693028600,11.321028564453124,1.768341064453125,-3.275054931640625,-0.8339385986328125
1715093342703008000,11.331008056640625,1.208099365234375,-2.9925384521484375,-1.0925140380859375
1715093342712987100,11.340987060546874,0.9567108154296875,-2.8871917724609375,-1.3415069580078125
1715093342722935800,11.350935791015624,0.83221435546875,-2.903961181640625,-1.545013427734375
1715093342732915200,11.360915283203125,0.796295166015625,-3.16253662109375,-1.6623382568359375
1715093342742894300,11.370894287109374,1.0333251953125,-3.59588623046875,-1.576141357421875
1715093342752843000,11.380843017578124,1.4259796142578125,-4.0699310302734375,-1.5617828369140625
1715093342762822400,11.390822509765625,2.0077667236328125,-4.532012939453125,-1.4612274169921875
1715093342772801500,11.400801513671874,2.6374359130859375,-4.6134185791015625,-0.8387298583984375
1715093342782750200,11.410750244140624,2.9582672119140625,-5.188018798828125,0.2554168701171875
1715093342792729600,11.4207294921875,3.204864501953125,-6.01641845703125,1.7541961669921875
1715093342802708700,11.430708740234374,2.7667236328125,-7.084228515625,3.7725067138671875
1715093342812657700,11.44065771484375,1.6270904541015625,-7.6971435546875,7.5146484375
1715093342822636800,11.45063671875,-0.091949462890625,-8.314849853515625,10.8330078125
1715093342832616000,11.460615966796874,-1.6002960205078125,-10.237396240234375,11.872085571289062
1715093342842564900,11.47056494140625,-2.670501708984375,-12.744125366210938,11.560836791992188
1715093342852544000,11.4805439453125,-1.89239501953125,-14.671463012695312,8.4986572265625
1715093342862523400,11.4905234375,0.5544891357421875,-15.677017211914062,4.732574462890625
1715093342872472000,11.50047216796875,3.848907470703125,-17.381698608398438,0.897064208984375
1715093342882451200,11.510451171875,6.46337890625,-19.771102905273438,-3.043792724609375
1715093342892399900,11.52039990234375,7.8448333740234375,-18.126296997070312,-2.46917724609375
1715093342902379300,11.530379150390624,4.8856048583984375,-12.23895263671875,-0.63043212890625
1715093342912358400,11.5403583984375,1.435546875,-10.680328369140625,0.705535888671875
1715093342922307300,11.550307373046875,1.4116058349609375,-12.533432006835938,3.3128204345703125
1715093342932286500,11.560286376953124,-4.4541778564453125,-15.4615478515625,3.832366943359375
1715093342942265600,11.570265625,-5.069488525390625,-23.254669189453125,6.5258331298828125
1715093342952245000,11.580244873046874,-5.9050750732421875,-29.319183349609375,8.644699096679688
1715093342962224000,11.59022412109375,-6.3767242431640625,-23.73590087890625,2.4269561767578125
1715093342972173000,11.600173095703125,-3.1158294677734375,-14.132766723632812,-1.7581024169921875
1715093342982152200,11.610152099609374,-2.5555877685546875,-9.0594482421875,-1.047027587890625
1715093342992131300,11.62013134765625,0.6622314453125,-6.011627197265625,1.488433837890625
1715093343002110700,11.63011083984375,2.824188232421875,-4.2016143798828125,2.7166595458984375
1715093343012059400,11.640059326171874,2.22802734375,-3.4618072509765625,2.32879638671875
1715093343022038500,11.65003857421875,1.5432891845703125,-3.528839111328125,0.897064208984375
1715093343032018000,11.660017822265624,1.1889495849609375,-3.2032318115234375,-1.279266357421875
1715093343041966600,11.669966552734374,0.774749755859375,-4.1585235595703125,-2.210601806640625
1715093343051946000,11.679946044921875,0.556884765625,-6.4617462158203125,-1.4947357177734375
1715093343061925000,11.689925048828124,0.0636749267578125,-9.476043701171875,-1.8802032470703125
1715093343071873800,11.699873779296874,-0.8509063720703125,-12.444854736328125,-3.3646087646484375
1715093343081853200,11.709853271484375,-1.7966156005859375,-14.398513793945312,-4.4060821533203125
1715093343091832300,11.719832275390624,-2.0623779296875,-14.245285034179688,-4.5066375732421875
1715093343101781000,11.729781005859374,-0.472625732421875,-11.276473999023438,-4.0182342529296875
1715093343111760400,11.739760498046875,1.248809814453125,-7.53912353515625,-3.1850433349609375
1715093343121709000,11.749708984375,2.0867767333984375,-4.6445465087890625,-3.276031494140625
1715093343131688200,11.759688232421874,2.17535400390625,-2.7555084228515625,-3.3694000244140625
1715093343141667600,11.76966748046875,2.0819854736328125,-1.8026275634765625,-2.5290374755859375
1715093343151616300,11.7796162109375,1.4858245849609375,-2.2000579833984375,-0.752532958984375
1715093343161595600,11.789595703125,1.301483154296875,-3.696441650390625,1.2370452880859375
1715093343171574800,11.79957470703125,1.5217437744140625,-5.55194091796875,3.252960205078125
1715093343181523500,11.8095234375,1.4523162841796875,-7.5463104248046875,5.1419830322265625
1715093343191502800,11.8195029296875,0.7723541259765625,-9.770523071289062,6.497100830078125
1715093343201482000,11.82948193359375,-0.2810821533203125,-11.683486938476562,6.9017333984375
1715093343211430700,11.8394306640625,-1.5572052001953125,-12.35626220703125,6.791595458984375
1715093343221410000,11.84941015625,-2.613037109375,-11.592514038085938,5.999114990234375
1715093343231389200,11.85938916015625,-2.893157958984375,-10.378662109375,4.7660980224609375
1715093343241368600,11.86936865234375,-2.77105712890625,-9.593353271484375,3.9113616943359375
1715093343251347700,11.87934765625,-3.0894927978515625,-9.136062622070312,3.336761474609375
1715093343261296400,11.88929638671875,-3.3815765380859375,-8.956497192382812,3.284088134765625
1715093343271275800,11.89927587890625,-3.3432769775390625,-8.834396362304688,3.358306884765625
1715093343281255000,11.9092548828125,-3.1110382080078125,-9.210281372070312,3.315216064453125
1715093343291203600,11.91920361328125,-3.0751190185546875,-9.658004760742188,3.506744384765625
1715093343301183000,11.929182861328124,-2.3975677490234375,-9.880661010742188,4.2106475830078125
1715093343311162000,11.939162109375,-0.0416717529296875,-9.962066650390625,4.699066162109375
1715093343321111000,11.949111083984375,3.2551422119140625,-9.325210571289062,4.7397613525390625
1715093343331090200,11.959090087890624,6.216766357421875,-8.073043823242188,4.181915283203125
1715093343341069300,11.9690693359375,7.6078033447265625,-6.3875274658203125,3.54266357421875
1715093343351018200,11.979018310546875,6.9039154052734375,-4.74749755859375,2.94171142578125
1715093343360997400,11.988997314453124,3.7890472412109375,-4.2925872802734375,2.101348876953125
1715093343370976800,11.998976806640625,0.446746826171875,-5.693206787109375,2.2713470458984375
1715093343380925400,12.008925537109375,-1.68170166015625,-9.3443603515625,2.994384765625
1715093343390904600,12.018904541015624,-2.4981231689453125,-12.918899536132812,3.0326995849609375
1715093343400884000,12.028884033203125,-2.1126556396484375,-15.404083251953125,2.142059326171875
1715093343410832600,12.03883251953125,0.743621826171875,-16.098403930664062,1.79010009765625
1715093343420811800,12.048811767578124,3.2024688720703125,-15.016220092773438,2.5897674560546875
1715093343430791200,12.058791259765625,1.7659454345703125,-12.89495849609375,4.3997802734375
1715093343440739800,12.06873974609375,-0.57318115234375,-10.914962768554688,5.228179931640625
1715093343450719000,12.078718994140624,-1.878021240234375,-7.84320068359375,5.77166748046875
1715093343460698400,12.088698486328125,-2.8692169189453125,-5.846435546875,4.60089111328125
1715093343470647000,12.09864697265625,-2.617828369140625,-5.3388671875,2.163604736328125
1715093343480626200,12.108626220703124,-1.7008514404296875,-6.1289520263671875,-0.043853759765625
1715093343490605600,12.11860546875,-1.6409912109375,-7.2087249755859375,-2.3614349365234375
1715093343500584700,12.128584716796874,-2.82373046875,-9.236618041992188,-5.3206787109375
1715093343510533600,12.13853369140625,-4.4517822265625,-11.903762817382812,-8.679733276367188
1715093343520512800,12.1485126953125,-5.5243988037109375,-14.527801513671875,-10.362869262695312
1715093343530492000,12.158491943359374,-5.0335845947265625,-17.319442749023438,-10.453842163085938
1715093343540471300,12.16847119140625,-4.38714599609375,-20.527679443359375,-10.231185913085938
1715093343550420000,12.178419921875,-3.7885894775390625,-23.139755249023438,-7.9638671875
1715093343560399400,12.1883994140625,-2.2850341796875,-22.608230590820312,-1.0446319580078125
1715093343570378500,12.19837841796875,-2.976959228515625,-20.04644775390625,5.271270751953125
1715093343580327200,12.2083271484375,-6.21392822265625,-17.326629638671875,7.4595794677734375
1715093343590306600,12.218306640625,-7.9449310302734375,-12.57891845703125,10.878494262695312
1715093343600285700,12.22828564453125,-9.683120727539062,-9.930938720703125,11.5943603515625
1715093343610234400,12.238234375,-7.698333740234375,-6.401885986328125,11.441131591796875
1715093343620213800,12.2482138671875,-3.479736328125,-4.6038360595703125,9.774765014648438
1715093343630193000,12.25819287109375,-1.4039764404296875,-4.5966644287109375,7.1267852783203125
1715093343640141600,12.2681416015625,-0.652191162109375,-5.5806732177734375,5.4843597412109375
1715093343650121000,12.278120849609374,0.061279296875,-6.42822265625,3.4971771240234375
1715093343660100000,12.28810009765625,1.0453033447265625,-7.330841064453125,1.656036376953125
1715093343670049000,12.298049072265625,2.4770355224609375,-8.223876953125,-0.09173583984375
1715093343680028200,12.308028076171874,3.5927276611328125,-8.547088623046875,-1.1787109375
1715093343690007300,12.31800732421875,3.626251220703125,-8.092193603515625,-1.60247802734375
1715093343699956200,12.327956298828125,3.5927276611328125,-6.9549407958984375,-1.746124267578125
1715093343709935400,12.337935302734374,2.802642822265625,-5.7506561279296875,-1.78204345703125
1715093343719914800,12.347914794921875,1.7659454345703125,-4.9581756591796875,-1.6958465576171875
1715093343729863400,12.357863525390625,0.8226318359375,-4.469757080078125,-1.3343353271484375
1715093343739842600,12.367842529296874,0.2647857666015625,-4.4027252197265625,-0.8770294189453125
1715093343749822000,12.377822021484375,0.161834716796875,-4.4434356689453125,-0.472412109375
1715093343759770600,12.3877705078125,0.437164306640625,-4.5080718994140625,-0.1252593994140625
1715093343769749800,12.397749755859374,1.0955810546875,-4.352447509765625,0.18359375
1715093343779729200,12.407729248046875,1.9120025634765625,-4.299774169921875,0.23626708984375
1715093343789677800,12.417677734375,2.3836517333984375,-4.7834014892578125,0.727081298828125
1715093343799657000,12.427656982421874,2.8840484619140625,-5.429840087890625,1.7494049072265625
1715093343809636400,12.43763623046875,3.288665771484375,-6.41864013671875,3.0709991455078125
1715093343819615500,12.447615478515624,3.4347076416015625,-6.7849578857421875,5.544219970703125
1715093343829595000,12.457594970703125,3.4969635009765625,-6.50244140625,8.606399536132812
1715093343839543600,12.46754345703125,2.661376953125,-7.4242095947265625,10.694137573242188
1715093343849522700,12.477522705078124,1.85693359375,-9.411392211914062,12.540069580078125
1715093343859502000,12.487502197265625,0.6813812255859375,-11.882217407226562,12.628662109375
1715093343869450800,12.49745068359375,-0.1494140625,-13.8143310546875,10.785125732421875
1715093343879430000,12.507429931640624,-0.4438934326171875,-14.58526611328125,7.710968017578125
1715093343889409300,12.5174091796875,-1.1406097412109375,-16.294723510742188,4.34710693359375
1715093343899358000,12.52735791015625,0.013397216796875,-19.103118896484375,-0.2736968994140625
1715093343909337300,12.53733740234375,5.3141632080078125,-21.741531372070312,-3.48431396484375
1715093343919316500,12.54731640625,7.181640625,-19.282684326171875,-1.6479644775390625
1715093343929265200,12.55726513671875,1.361328125,-12.191070556640625,2.702301025390625
1715093343939244500,12.56724462890625,-0.9466705322265625,-10.704269409179688,3.2457733154296875
1715093343949223700,12.5772236328125,1.586395263671875,-12.914108276367188,4.22021484375
1715093343959172400,12.58717236328125,0.192962646484375,-13.239730834960938,4.6080780029296875
1715093343969151700,12.59715185546875,-5.205963134765625,-14.657089233398438,1.82122802734375
1715093343979131000,12.607130859375,-4.197998046875,-18.775115966796875,0.5547027587890625
1715093343989079600,12.61707958984375,-5.8308563232421875,-19.74237060546875,-1.7437286376953125
1715093343999059000,12.627058837890624,-3.451019287109375,-13.005096435546875,-3.1994171142578125
1715093344009038000,12.6370380859375,-0.3074188232421875,-8.269363403320312,-1.3199615478515625
1715093344018987000,12.646987060546875,1.1937408447265625,-6.3516082763671875,2.201904296875
1715093344028966100,12.656966064453124,1.993408203125,-5.027618408203125,4.5386505126953125
1715093344038945300,12.6669453125,1.440338134765625,-4.3285064697265625,4.3758392333984375
1715093344048894200,12.676894287109375,0.468292236328125,-4.098663330078125,2.290496826171875
1715093344058873300,12.686873291015624,0.434783935546875,-4.5463714599609375,0.8396148681640625
1715093344068822000,12.696822021484374,0.49462890625,-6.1840057373046875,-0.0582122802734375
1715093344078801400,12.706801513671875,0.5401153564453125,-8.195144653320312,-0.6447906494140625
1715093344088780500,12.716780517578124,1.25360107421875,-10.36907958984375,-0.6519775390625
1715093344098760000,12.726760009765625,1.133880615234375,-11.949249267578125,0.114166259765625
1715093344108739000,12.736739013671874,0.2791595458984375,-12.818344116210938,-0.4317169189453125
1715093344118687700,12.746687744140624,-0.9993438720703125,-12.3035888671875,-1.015899658203125
1715093344128667100,12.756667236328125,-1.9187164306640625,-10.9293212890625,-0.7908477783203125
1715093344138646300,12.766646240234374,-1.42791748046875,-9.296478271484375,-0.0582122802734375
1715093344148595000,12.776594970703124,-0.3409423828125,-7.606170654296875,0.253021240234375
1715093344158574300,12.78657421875,0.3605499267578125,-6.23907470703125,-0.1108856201171875
1715093344168553500,12.796553466796874,0.362945556640625,-5.5064544677734375,-0.8219757080078125
1715093344178502400,12.80650244140625,-0.156585693359375,-5.25506591796875,-1.2960205078125
1715093344188481500,12.8164814453125,-0.582763671875,-5.4873046875,-1.4755859375
1715093344198460700,12.826460693359374,-0.8078155517578125,-6.3228759765625,-1.73895263671875
1715093344208409600,12.83640966796875,-1.0256805419921875,-7.4936370849609375,-2.210601806640625
1715093344218388700,12.846388671875,-1.274688720703125,-8.164016723632812,-1.6312103271484375
1715093344228368000,12.856367919921874,-1.2818603515625,-9.033111572265625,-0.6184539794921875
1715093344238316800,12.86631689453125,-0.9514617919921875,-9.720245361328125,1.3208465576171875
1715093344248296000,12.8762958984375,-0.388824462890625,-9.950088500976562,3.200286865234375
1715093344258275300,12.886275390625,0.1283111572265625,-9.753768920898438,4.7613067626953125
1715093344268224000,12.89622412109375,0.42041015625,-9.191131591796875,5.7022247314453125
1715093344278203100,12.906203125,0.135498046875,-8.913406372070312,5.946441650390625
1715093344288182500,12.9161826171875,-0.822174072265625,-8.70989990234375,5.8267364501953125
1715093344298131200,12.926131103515624,-1.7774658203125,-8.791305541992188,5.3670501708984375
1715093344308110300,12.9361103515625,-2.2395477294921875,-8.487228393554688,4.60089111328125
1715093344318089700,12.94608984375,-2.3616485595703125,-8.144866943359375,4.160369873046875
1715093344328038400,12.956038330078124,-2.4310760498046875,-8.293304443359375,4.0358734130859375
1715093344338017500,12.966017578125,-1.581146240234375,-8.441741943359375,3.992767333984375
