time,seconds_elapsed,z,y,x
1713358253102618600,0.11761865234375,6.8153228759765625,4.343292236328125,0.695953369140625
1713358253112628200,0.127628173828125,7.672454833984375,4.4007568359375,-1.260101318359375
1713358253122607600,0.137607666015625,6.2191619873046875,4.2570953369140625,-1.173919677734375
1713358253132586800,0.147586669921875,6.0970611572265625,4.9322662353515625,-0.6495819091796875
1713358253142596600,0.1575966796875,6.573516845703125,4.4246978759765625,-1.75091552734375
1713358253152575700,0.16757568359375,6.48492431640625,3.94586181640625,-0.9967498779296875
1713358253162555100,0.17755517578125,7.114593505859375,3.6058807373046875,-0.7645111083984375
1713358253172534300,0.1875341796875,7.8184967041015625,4.1613311767578125,-0.5107269287109375
1713358253182513700,0.197513671875,7.1529083251953125,3.56756591796875,-0.2377777099609375
1713358253192462300,0.20746240234375,7.5551300048828125,3.5962982177734375,-0.5322723388671875
1713358253202441500,0.21744140625,7.600616455078125,3.6370086669921875,-0.2066650390625
1713358253212420900,0.2274208984375,7.6485137939453125,3.888397216796875,0.0495147705078125
1713358253222400000,0.23739990234375,7.5862579345703125,4.027252197265625,-0.0845489501953125
1713358253232379400,0.24737939453125,7.3324737548828125,4.2044219970703125,0.0160064697265625
1713358253242328000,0.257328125,7.2630462646484375,4.0535888671875,-0.0199127197265625
1713358253252307200,0.26730712890625,7.4282379150390625,3.9985198974609375,0.01361083984375
1713358253262286600,0.27728662109375,7.50006103515625,4.1900634765625,-0.19708251953125
1713358253272235300,0.2872353515625,7.5838623046875,4.225982666015625,-0.1683502197265625
1713358253282214400,0.29721435546875,7.6652679443359375,4.3385009765625,0.1069793701171875
1713358253292193800,0.30719384765625,7.6508941650390625,4.5037078857421875,0.2602081298828125
1713358253302173000,0.3171728515625,7.8089141845703125,4.8149566650390625,-0.0701904296875
1713358253312121900,0.327121826171875,9.07305908203125,5.0759124755859375,-0.539459228515625
1713358253322101000,0.33710107421875,9.853561401367188,5.0280303955078125,-0.721405029296875
1713358253332080000,0.347080078125,10.856735229492188,5.1022491455078125,-0.9919586181640625
1713358253342059500,0.3570595703125,11.591751098632812,4.194854736328125,-0.55621337890625
1713358253352008200,0.36700830078125,11.876663208007812,3.04803466796875,0.1285247802734375
1713358253361987600,0.376987548828125,11.30206298828125,3.201263427734375,-1.1020965576171875
1713358253371966700,0.386966796875,10.947723388671875,4.9969024658203125,-1.2457427978515625
1713358253381915400,0.396915283203125,9.913421630859375,4.6210174560546875,-0.4101715087890625
1713358253391894800,0.406894775390625,9.293319702148438,4.5779266357421875,0.612152099609375
1713358253401874000,0.4168740234375,8.359588623046875,5.1381683349609375,0.66961669921875
1713358253411822600,0.426822509765625,7.3636016845703125,4.46539306640625,1.0191650390625
1713358253421802000,0.436802001953125,7.0212249755859375,4.6832733154296875,1.3064727783203125
1713358253431750700,0.446750732421875,7.114593505859375,4.70721435546875,1.3854827880859375
1713358253441729800,0.456729736328125,7.0140380859375,4.233154296875,1.349578857421875
1713358253451709200,0.466709228515625,7.5862579345703125,3.9985198974609375,0.8994598388671875
1713358253461657900,0.476657958984375,7.8232879638671875,3.5460205078125,1.112548828125
1713358253471637200,0.48663720703125,8.584640502929688,3.2419586181640625,0.399078369140625
1713358253481616400,0.496616455078125,9.180801391601562,2.463836669921875,-0.7285919189453125
1713358253491565000,0.50656494140625,9.140090942382812,2.3201904296875,-0.393402099609375
1713358253501544400,0.51654443359375,10.940536499023438,1.87725830078125,1.5913848876953125
1713358253511523600,0.526523681640625,9.97088623046875,1.3074493408203125,-0.362274169921875
1713358253521472300,0.53647216796875,8.764205932617188,2.071197509765625,0.253021240234375
1713358253531451600,0.54645166015625,9.460922241210938,1.29547119140625,0.399078369140625
1713358253541400300,0.556400390625,9.082626342773438,1.384063720703125,1.6584320068359375
1713358253551379500,0.56637939453125,7.684417724609375,1.8413543701171875,1.186767578125
1713358253561358800,0.57635888671875,6.2646636962890625,1.5923614501953125,0.0950164794921875
1713358253571309300,0.586309326171875,3.394012451171875,1.8748626708984375,0.463714599609375
1713358253581288700,0.596288818359375,4.3756256103515625,1.3242034912109375,0.45892333984375
1713358253591267800,0.606267822265625,7.8975067138671875,1.61151123046875,1.6392669677734375
1713358253601247200,0.616247314453125,8.761810302734375,2.04486083984375,2.2569732666015625
1713358253611196000,0.62619580078125,7.5838623046875,1.776702880859375,2.5682220458984375
1713358253621175000,0.636175048828125,6.37957763671875,1.8102264404296875,2.8387603759765625
1713358253631154400,0.646154541015625,5.6397705078125,1.72882080078125,2.4987945556640625
1713358253641103000,0.65610302734375,5.40753173828125,1.173370361328125,2.3072509765625
1713358253651082500,0.66608251953125,10.152847290039062,1.3170166015625,4.2058563232421875
1713358253661061600,0.6760615234375,18.65704345703125,2.8780364990234375,6.00390625
1713358253671010300,0.68601025390625,27.477279663085938,3.23956298828125,3.6096954345703125
1713358253680989700,0.69598974609375,15.36981201171875,-2.185699462890625,0.7246856689453125
1713358253690968800,0.70596875,15.204605102539062,-5.3173065185546875,-1.8419036865234375
1713358253700917500,0.71591748046875,17.222915649414062,-4.754669189453125,-3.0150604248046875
1713358253710897000,0.72589697265625,16.265243530273438,-1.3477325439453125,-1.91851806640625
1713358253720876000,0.7358759765625,13.396987915039062,1.1661834716796875,-1.8634490966796875
1713358253730824700,0.74582470703125,11.306854248046875,1.058441162109375,-3.6064300537109375
1713358253740804000,0.75580419921875,10.353958129882812,0.656219482421875,-5.78515625
1713358253750783200,0.765783203125,9.439376831054688,-0.9478912353515625,-7.513763427734375
1713358253760732200,0.775732177734375,7.1792449951171875,-2.556793212890625,-5.9790802001953125
1713358253770711300,0.785711181640625,0.753204345703125,-2.1952667236328125,-6.3501739501953125
1713358253780690400,0.7956904296875,-2.9147186279296875,-0.0117645263671875,-4.3055267333984375
1713358253790639400,0.805639404296875,-4.2913818359375,0.464691162109375,-0.699859619140625
1713358253800618500,0.815618408203125,-6.0367584228515625,0.158233642578125,3.2505645751953125
1713358253810567200,0.825567138671875,-2.7375335693359375,-1.2423858642578125,5.525054931640625
1713358253820546600,0.835546630859375,1.047698974609375,-3.1673126220703125,8.156295776367188
1713358253830525700,0.845525634765625,1.809051513671875,-2.4753875732421875,17.76422119140625
1713358253840474400,0.855474365234375,3.9877777099609375,-0.8617095947265625,22.02349853515625
1713358253850453800,0.865453857421875,3.7603302001953125,-1.6398162841796875,22.485580444335938
1713358253860433000,0.875432861328125,2.22802734375,-1.7499542236328125,20.51275634765625
1713358253870412300,0.885412353515625,0.731658935546875,-1.9630279541015625,17.091445922851562
1713358253880361000,0.89536083984375,1.028533935546875,-1.65179443359375,13.445083618164062
1713358253890340000,0.905340087890625,3.31500244140625,-0.665374755859375,10.193756103515625
1713358253900309000,0.91530908203125,5.486541748046875,-0.801849365234375,8.7093505859375
1713358253910257700,0.925257568359375,4.8808135986328125,0.57720947265625,9.48028564453125
1713358253920237000,0.935237060546875,7.119384765625,1.2308349609375,8.134735107421875
1713358253930216200,0.94521630859375,9.075454711914062,0.7807159423828125,6.231353759765625
1713358253940164900,0.955164794921875,9.635696411132812,-0.399627685546875,5.5370330810546875
1713358253950144300,0.965144287109375,11.548660278320312,-1.129852294921875,3.8922119140625
1713358253960123400,0.975123291015625,12.24298095703125,-2.2431640625,2.429351806640625
1713358253970072300,0.985072265625,11.194320678710938,-1.99176025390625,3.0997314453125
1713358253980051500,0.995051513671875,9.185577392578125,-1.3429412841796875,3.6887054443359375
1713358253990030600,1.005030517578125,6.91827392578125,-0.390045166015625,3.580963134765625
1713358253999979500,1.0149794921875,5.94622802734375,-0.7826995849609375,3.1548004150390625
1713358254009958700,1.024958740234375,5.3931732177734375,-2.8752288818359375,1.098175048828125
1713358254019938000,1.03493798828125,4.852081298828125,-5.7410888671875,-1.3343353271484375
1713358254029886700,1.04488671875,7.8065185546875,-6.1121826171875,-0.0151214599609375
1713358254039865900,1.054865966796875,10.600555419921875,-5.9972686767578125,2.0965576171875
1713358254049814500,1.064814453125,11.428955078125,-6.4737091064453125,4.066986083984375
1713358254059816700,1.074816650390625,10.787307739257812,-6.67242431640625,3.0542449951171875
1713358254069771300,1.084771240234375,8.433807373046875,-6.2606201171875,4.1483917236328125
1713358254079721000,1.094720947265625,8.263809204101562,-6.07867431640625,4.6870880126953125
1713358254089700400,1.104700439453125,7.4162750244140625,-5.053955078125,7.880950927734375
1713358254099679500,1.114679443359375,7.473724365234375,-4.2327423095703125,8.606399536132812
1713358254109628400,1.12462841796875,8.067489624023438,-4.4984893798828125,9.315078735351562
1713358254119607600,1.134607666015625,9.9613037109375,-4.98211669921875,7.1339569091796875
1713358254129586700,1.144586669921875,11.701889038085938,-6.3946990966796875,6.8682098388671875
1713358254139535600,1.15453564453125,14.644363403320312,-6.44976806640625,8.615982055664062
1713358254149514800,1.1645146484375,15.108840942382812,-6.8232574462890625,7.689422607421875
1713358254159494000,1.174493896484375,14.464797973632812,-6.27020263671875,5.7022247314453125
1713358254169442800,1.18444287109375,11.795257568359375,-5.0204315185546875,5.5202789306640625
1713358254179436800,1.194436767578125,10.107345581054688,-1.7164306640625,8.68780517578125
1713358254189416200,1.204416259765625,6.0012969970703125,-1.37884521484375,9.245651245117188
1713358254199395300,1.214395263671875,4.050018310546875,-0.0069732666015625,10.622314453125
1713358254209344000,1.224343994140625,0.05169677734375,-0.744384765625,12.626266479492188
1713358254219323400,1.234323486328125,-0.06561279296875,-0.2440032958984375,12.628662109375
1713358254229302500,1.244302490234375,1.821014404296875,-2.736358642578125,9.267196655273438
1713358254239251200,1.254251220703125,0.35577392578125,-3.5886993408203125,7.4978790283203125
1713358254249230600,1.264230712890625,-2.3664398193359375,-4.2447052001953125,8.45556640625
1713358254259209700,1.274209716796875,-4.6696624755859375,-3.9454345703125,10.076431274414062
1713358254269158400,1.284158447265625,-4.1788482666015625,-5.9445953369140625,6.2337493896484375
1713358254279137800,1.2941376953125,-3.7191619873046875,-7.4074554443359375,4.7876434326171875
1713358254289117000,1.304116943359375,-4.487701416015625,-7.7570037841796875,5.21142578125
1713358254299065900,1.31406591796875,-2.9003448486328125,-8.420196533203125,5.2736663818359375
1713358254309045000,1.324044921875,-7.478057861328125,-9.562225341796875,11.575210571289062
1713358254318993700,1.33399365234375,-6.86993408203125,-11.061004638671875,13.84490966796875
1713358254328973000,1.34397314453125,-2.2826385498046875,-10.874252319335938,14.268692016601562
1713358254338954800,1.353954833984375,2.158599853515625,-12.389785766601562,12.784286499023438
1713358254348903400,1.3639033203125,5.613433837890625,-12.945236206054688,13.65338134765625
1713358254358882800,1.3738828125,7.5168304443359375,-11.453643798828125,12.712448120117188
1713358254368862000,1.383862060546875,2.860107421875,-9.701095581054688,10.935958862304688
1713358254378810600,1.393810546875,-3.34088134765625,-8.949310302734375,10.081222534179688
1713358254388790000,1.4037900390625,-3.8771820068359375,-9.04986572265625,9.954330444335938
1713358254398738700,1.41373876953125,-2.4957275390625,-9.964462280273438,5.862640380859375
1713358254408717800,1.4237177734375,1.0931854248046875,-11.717010498046875,1.4405517578125
1713358254418697200,1.433697265625,4.071563720703125,-10.970016479492188,-2.0430145263671875
1713358254428629800,1.443629638671875,4.344512939453125,-10.498367309570312,-2.60565185546875
1713358254438609200,1.453609130859375,2.0293121337890625,-13.072128295898438,-1.944854736328125
1713358254448588300,1.46358837890625,-0.5947265625,-14.513442993164062,-1.89935302734375
1713358254458567400,1.4735673828125,-1.97857666015625,-14.386550903320312,-1.7700653076171875
1713358254468516400,1.483516357421875,-5.97210693359375,-15.351409912109375,0.9784698486328125
1713358254478495500,1.49349560546875,-11.411727905273438,-16.646682739257812,3.949676513671875
1713358254488475000,1.503474853515625,-14.596023559570312,-17.8701171875,6.4516143798828125
1713358254498423600,1.513423583984375,-12.01507568359375,-17.060867309570312,8.376556396484375
1713358254508402700,1.523402587890625,-6.654449462890625,-15.88531494140625,7.1531219482421875
1713358254518382000,1.533382080078125,-0.463043212890625,-16.136703491210938,4.3542938232421875
1713358254528330800,1.543330810546875,2.5440673828125,-18.4830322265625,0.47808837890625
1713358254538310000,1.553309814453125,1.133880615234375,-20.139816284179688,-1.0757598876953125
1713358254548289300,1.563289306640625,-1.26031494140625,-21.17889404296875,0.5235748291015625
1713358254558238000,1.573238037109375,-2.859649658203125,-20.410354614257812,4.2010650634765625
1713358254568217000,1.583217041015625,-3.7885894775390625,-18.583587646484375,6.9160919189453125
1713358254578196500,1.593196533203125,-3.209197998046875,-17.230865478515625,8.53936767578125
1713358254588145200,1.603145263671875,-0.6641693115234375,-17.319442749023438,7.8546142578125
1713358254598124500,1.61312451171875,1.6749725341796875,-19.048065185546875,5.0510101318359375
1713358254608106800,1.623106689453125,6.24072265625,-21.408737182617188,1.2154998779296875
1713358254618055700,1.6330556640625,13.83990478515625,-22.184463500976562,-1.63360595703125
1713358254628034800,1.643034912109375,17.871749877929688,-25.15087890625,-3.2640533447265625
1713358254638014000,1.653013916015625,19.48065185546875,-24.9593505859375,-0.4748077392578125
1713358254647963000,1.662962890625,15.685836791992188,-25.495651245117188,6.580902099609375
1713358254657942000,1.67294189453125,0.5449066162109375,-22.840469360351562,5.95123291015625
1713358254667890700,1.682890625,-21.204025268554688,-5.8296661376953125,13.746749877929688
1713358254677870000,1.6928701171875,-6.4030609130859375,-2.0875396728515625,11.453109741210938
1713358254687849200,1.70284912109375,0.0421295166015625,-7.4146270751953125,8.654281616210938
1713358254697798000,1.7127978515625,-4.763031005859375,-10.574981689453125,4.014312744140625
1713358254707777300,1.72277734375,-3.853240966796875,-12.507095336914062,0.0279693603515625
1713358254717756400,1.73275634765625,13.377838134765625,-16.73046875,-3.2903900146484375
1713358254727735800,1.74273583984375,6.449005126953125,-14.590057373046875,3.7246246337890625
1713358254737684500,1.7526845703125,-2.1988525390625,-12.875808715820312,5.185089111328125
1713358254747663600,1.76266357421875,-8.026336669921875,-7.46490478515625,7.6774444580078125
1713358254757643000,1.77264306640625,-4.3895416259765625,-8.520751953125,3.638427734375
1713358254767591700,1.782591796875,0.4180145263671875,-9.775314331054688,-0.709442138671875
1713358254777570800,1.79257080078125,-1.116668701171875,-9.646026611328125,-1.4731903076171875
1713358254787550200,1.80255029296875,7.57427978515625,-9.993194580078125,-4.84661865234375
1713358254797499000,1.812498779296875,2.6470184326171875,-2.7339630126953125,2.407806396484375
1713358254807478300,1.822478271484375,-5.0934295654296875,1.9921875,6.41571044921875
1713358254817457400,1.83245751953125,-12.582504272460938,3.191680908203125,4.531463623046875
1713358254827406000,1.842406005859375,-11.153167724609375,5.7295379638671875,4.2585296630859375
1713358254837385500,1.852385498046875,-6.4581298828125,8.652862548828125,3.432525634765625
1713358254847364600,1.862364501953125,-4.6337432861328125,3.1581573486328125,3.4492950439453125
1713358254857313300,1.872313232421875,-2.8668212890625,3.4957427978515625,6.590484619140625
1713358254867292700,1.882292724609375,-2.4023590087890625,2.4279327392578125,8.417251586914062
1713358254877271800,1.892271728515625,-0.6545867919921875,-0.5312957763671875,8.196990966796875
1713358254887220500,1.902220458984375,-2.332916259765625,-4.6828460693359375,3.6982879638671875
1713358254897199900,1.912199951171875,-3.1277923583984375,-5.197601318359375,5.905731201171875
1713358254907148500,1.9221484375,-4.5954437255859375,-7.637298583984375,9.753219604492188
1713358254917128000,1.9321279296875,-6.103790283203125,-8.092193603515625,11.649429321289062
1713358254927107000,1.942107177734375,-6.2187042236328125,-10.251754760742188,11.1610107421875
1713358254937055700,1.9520556640625,-1.973785400390625,-12.526260375976562,13.545639038085938
1713358254947035100,1.96203515625,2.3190155029296875,-14.894119262695312,13.720413208007812
1713358254957014300,1.97201416015625,6.4705657958984375,-18.006576538085938,11.3094482421875
1713358254966963000,1.981962890625,11.792877197265625,-18.080795288085938,7.7708282470703125
1713358254976942300,1.9919423828125,17.677810668945312,-16.622726440429688,4.7589111328125
1713358254986891000,2.00189111328125,17.807098388671875,-15.329864501953125,5.3215484619140625
1713358254996870100,2.0118701171875,16.528594970703125,-15.064102172851562,3.8850250244140625
1713358255006849500,2.021849609375,13.059402465820312,-12.07135009765625,4.12445068359375
1713358255016828700,2.03182861328125,4.4426727294921875,-11.80560302734375,4.4763946533203125
1713358255026777600,2.041777587890625,-1.0568084716796875,-11.956436157226562,3.82757568359375
1713358255036756700,2.0517568359375,-2.3089752197265625,-11.053817749023438,2.513153076171875
1713358255046736000,2.06173583984375,0.2432403564453125,-9.50238037109375,2.9058074951171875
1713358255056715300,2.07171533203125,1.3421783447265625,-9.495193481445312,1.435760498046875
1713358255066664000,2.081663818359375,4.2008514404296875,-10.625259399414062,-0.1683502197265625
1713358255076643300,2.091643310546875,7.4114837646484375,-11.049026489257812,-2.3015899658203125
1713358255086622500,2.10162255859375,7.0475616455078125,-12.49273681640625,-7.5017852783203125
1713358255096571100,2.111571044921875,2.548858642578125,-12.701034545898438,-7.0253448486328125
1713358255106547700,2.121547607421875,-2.33770751953125,-13.194229125976562,-4.9184417724609375
1713358255116527000,2.131527099609375,-8.440536499023438,-15.981094360351562,-2.2872161865234375
1713358255126475800,2.141475830078125,-14.725311279296875,-16.311492919921875,1.909820556640625
1713358255136455200,2.151455078125,-7.6384735107421875,-17.664215087890625,4.4811859130859375
1713358255146434300,2.161434326171875,-4.16448974609375,-12.267684936523438,9.70294189453125
1713358255156383000,2.171383056640625,-8.05267333984375,-12.753707885742188,12.43951416015625
1713358255166362400,2.1813623046875,-2.33770751953125,-16.400070190429688,9.939971923828125
1713358255176311000,2.19131103515625,-1.79901123046875,-18.119110107421875,5.3885955810546875
1713358255186290200,2.201290283203125,-4.5283966064453125,-18.574005126953125,3.7844696044921875
1713358255196269600,2.21126953125,-5.3615875244140625,-16.459930419921875,3.5187225341796875
1713358255206218200,2.22121826171875,-3.4366455078125,-15.813491821289062,3.2362060546875
1713358255216197400,2.231197265625,-0.69049072265625,-16.177413940429688,4.9696044921875
1713358255226176800,2.2411767578125,1.93115234375,-15.224517822265625,6.782012939453125
1713358255236125400,2.25112548828125,4.67730712890625,-15.7584228515625,6.7101898193359375
1713358255246104800,2.261104736328125,3.415557861328125,-15.3873291015625,6.7413177490234375
1713358255256053500,2.271053466796875,-1.672119140625,-14.625961303710938,10.586410522460938
1713358255266032600,2.28103271484375,-4.1884307861328125,-15.286773681640625,6.0015106201171875
1713358255276012000,2.291011962890625,8.256637573242188,-13.017059326171875,4.3375396728515625
1713358255285960700,2.300960693359375,8.194381713867188,-16.13909912109375,4.5554046630859375
1713358255295939800,2.31093994140625,-0.3912200927734375,-16.203750610351562,0.889892578125
1713358255305919200,2.320919189453125,0.8561553955078125,-14.075302124023438,-1.121246337890625
1713358255315898400,2.3308984375,0.4275970458984375,-14.623580932617188,-2.378204345703125
1713358255325847000,2.340846923828125,0.7867279052734375,-13.134384155273438,-2.67987060546875
1713358255335826400,2.350826416015625,0.932769775390625,-12.432876586914062,-2.39495849609375
1713358255345805600,2.3608056640625,-2.9626007080078125,-8.894256591796875,5.323944091796875
1713358255355754500,2.37075439453125,-10.178726196289062,-8.793685913085938,2.92974853515625
1713358255365733600,2.380733642578125,-3.5491790771484375,-10.462448120117188,0.27935791015625
1713358255375712800,2.390712646484375,-4.6433258056640625,-8.673980712890625,-4.59283447265625
1713358255385661700,2.40066162109375,-3.0703277587890625,-8.96368408203125,2.417388916015625
1713358255395640800,2.410640869140625,-1.339324951171875,-10.804824829101562,1.59857177734375
1713358255405620000,2.420619873046875,-0.8245697021484375,-11.812774658203125,-5.2584228515625
1713358255415569000,2.43056884765625,-0.441497802734375,-8.4776611328125,-4.4659423828125
1713358255425548000,2.440548095703125,1.461883544921875,-10.141632080078125,-3.1778564453125
1713358255435527400,2.45052734375,4.356475830078125,-12.3035888671875,-5.4092559814453125
1713358255445476000,2.46047607421875,2.5297088623046875,-8.791305541992188,-2.3135528564453125
1713358255455455200,2.470455322265625,3.805816650390625,-10.574981689453125,-6.7667694091796875
1713358255465434600,2.4804345703125,8.706741333007812,-13.081710815429688,-5.653472900390625
1713358255475383300,2.49038330078125,1.8377838134765625,-8.652435302734375,-4.5425567626953125
1713358255485362400,2.500362548828125,15.575714111328125,-10.404983520507812,-3.2017974853515625
1713358255495341800,2.510341796875,9.79132080078125,-14.793563842773438,2.07501220703125
1713358255505290500,2.52029052734375,3.638214111328125,-7.922210693359375,1.5171661376953125
1713358255515269600,2.53026953125,1.6055450439453125,-6.7155303955078125,2.628082275390625
1713358255525218600,2.540218505859375,-0.28826904296875,-3.4498291015625,3.3247833251953125
1713358255535197700,2.55019775390625,-1.466217041015625,-4.0651397705078125,-1.0661773681640625
1713358255545177000,2.560177001953125,1.3062591552734375,-3.17449951171875,-0.106109619140625
1713358255555125800,2.570125732421875,-1.7918243408203125,-1.4770050048828125,1.8140411376953125
1713358255565105000,2.58010498046875,-3.0032958984375,-2.185699462890625,3.07818603515625
1713358255575084300,2.590084228515625,-0.8341522216796875,-1.541656494140625,2.18035888671875
1713358255585033000,2.600032958984375,2.9774169921875,-4.86480712890625,-4.123565673828125
1713358255595012000,2.61001220703125,6.468170166015625,-6.433013916015625,-5.8473968505859375
1713358255604991500,2.619991455078125,5.623016357421875,-3.8209381103515625,-1.6838836669921875
1713358255614970600,2.629970703125,4.7754669189453125,-3.327728271484375,-1.2529296875
1713358255624919300,2.639919189453125,5.1298065185546875,-3.8113555908203125,0.0590972900390625
1713358255634898700,2.649898681640625,5.084320068359375,-5.0108489990234375,-0.8554840087890625
1713358255644877800,2.6598779296875,4.9239044189453125,-6.253448486328125,-2.938446044921875
1713358255654826800,2.66982666015625,4.94305419921875,-6.602996826171875,-3.510650634765625
1713358255664801000,2.679801025390625,3.9351043701171875,-6.464141845703125,-1.607269287109375
1713358255674780400,2.689780517578125,4.059600830078125,-6.09063720703125,-1.52825927734375
1713358255684729000,2.69972900390625,2.6254730224609375,-5.3532257080078125,-1.7269744873046875
1713358255694708200,2.709708251953125,0.7292633056640625,-3.8736114501953125,1.8810882568359375
1713358255704687600,2.7196875,0.118743896484375,-2.106689453125,5.058197021484375
1713358255714636300,2.72963623046875,-0.463043212890625,-2.9135284423828125,4.55780029296875
1713358255724615700,2.73961572265625,0.1786041259765625,-4.9773406982421875,0.75341796875
1713358255734594800,2.7495947265625,0.7125091552734375,-6.5790557861328125,0.758209228515625
1713358255744543500,2.75954345703125,0.319854736328125,-8.45611572265625,1.6656036376953125
1713358255754523000,2.76952294921875,2.4459075927734375,-8.142471313476562,3.104522705078125
1713358255764471600,2.779471435546875,5.5655517578125,-9.782501220703125,2.6663818359375
1713358255774450700,2.78945068359375,8.462539672851562,-14.175857543945312,0.3488006591796875
1713358255784430000,2.79943017578125,10.25579833984375,-17.963485717773438,-2.5841064453125
1713358255794378800,2.809378662109375,10.535919189453125,-20.192489624023438,-3.7716217041015625
1713358255804358000,2.81935791015625,8.740264892578125,-19.462249755859375,-1.492340087890625
1713358255814337300,2.829337158203125,7.040374755859375,-17.980239868164062,-1.513885498046875
1713358255824286000,2.839285888671875,6.24310302734375,-16.689773559570312,-1.6551513671875
1713358255834265300,2.849265380859375,5.7594757080078125,-16.155868530273438,-1.4253082275390625
1713358255844244500,2.859244384765625,4.028472900390625,-15.712936401367188,-1.3510894775390625
1713358255854193200,2.869193115234375,3.257537841796875,-15.023406982421875,-0.2521514892578125
1713358255864172500,2.879172607421875,5.57513427734375,-15.121566772460938,1.3160552978515625
1713358255874151700,2.889151611328125,11.294876098632812,-17.56365966796875,2.50836181640625
1713358255884100400,2.899100341796875,3.3772430419921875,-13.273239135742188,-2.4356536865234375
1713358255894079700,2.909079833984375,0.5233612060546875,-6.296539306640625,-1.0111083984375
1713358255904059000,2.919058837890625,4.97418212890625,-5.2119598388671875,1.3687286376953125
1713358255914038300,2.929038330078125,4.018890380859375,-3.7586822509765625,-0.2736968994140625
1713358255923987000,2.938987060546875,-11.9193115234375,3.043243408203125,-2.8690185546875
1713358255933966000,2.948966064453125,-4.202789306640625,6.689605712890625,-2.330322265625
1713358255943945500,2.958945556640625,-1.561981201171875,3.0528106689453125,-2.3853759765625
1713358255953894100,2.96889404296875,-0.64739990234375,0.20611572265625,-2.6200103759765625
1713358255963873300,2.978873291015625,-1.4686126708984375,-1.6446075439453125,-4.207366943359375
1713358255973852700,2.988852783203125,-2.73992919921875,-2.4418792724609375,-4.7125396728515625
1713358255983801300,2.99880126953125,-3.199615478515625,-4.4817352294921875,-3.7021942138671875
1713358255993780500,3.008780517578125,-1.7966156005859375,-7.4673004150390625,-1.724578857421875
1713358256003759900,3.018759765625,1.2200775146484375,-11.154373168945312,1.0478973388671875
1713358256013708500,3.02870849609375,7.1840362548828125,-11.55181884765625,0.5068206787109375
1713358256023688000,3.03868798828125,4.6988525390625,-7.8838958740234375,-0.91534423828125
1713358256033636600,3.04863671875,2.7978515625,-4.974945068359375,-0.3119964599609375
1713358256043615700,3.05861572265625,-0.1518096923828125,-3.6006622314453125,0.219512939453125
1713358256053595100,3.06859521484375,-1.518890380859375,-2.482574462890625,0.885101318359375
1713358256063543800,3.078543701171875,-3.479736328125,-5.62615966796875,1.9553070068359375
1713358256073523000,3.08852294921875,0.753204345703125,-6.6844024658203125,4.7660980224609375
1713358256083502300,3.09850244140625,2.9055938720703125,-8.7003173828125,6.5569610595703125
1713358256093451000,3.108450927734375,6.48492431640625,-10.268524169921875,6.74371337890625
1713358256103430100,3.11843017578125,5.2064208984375,-14.238113403320312,6.8059539794921875
1713358256113379000,3.128379150390625,6.6932220458984375,-14.13037109375,6.5832977294921875
1713358256123358200,3.138358154296875,4.282257080078125,-11.918121337890625,9.758010864257812
1713358256133337600,3.148337646484375,-0.1494140625,-13.83587646484375,10.287124633789062
1713358256143286300,3.158286376953125,0.2049407958984375,-13.479141235351562,9.315078735351562
1713358256153265400,3.168265380859375,2.613494873046875,-14.424850463867188,6.06854248046875
1713358256163244800,3.178244873046875,0.9471282958984375,-17.807861328125,-1.386993408203125
1713358256173224000,3.188223876953125,0.8202362060546875,-18.037704467773438,-3.5585479736328125
1713358256183172600,3.198172607421875,3.350921630859375,-15.880523681640625,-2.378204345703125
1713358256193152000,3.208152099609375,-0.7671051025390625,-11.5111083984375,2.4461212158203125
1713358256203131100,3.218131103515625,-0.695281982421875,-10.467239379882812,0.832427978515625
1713358256213079800,3.228079833984375,-0.9083709716796875,-9.4066162109375,-0.3646697998046875
1713358256223059200,3.23805908203125,-0.7671051025390625,-7.42181396484375,-0.6016998291015625
1713358256233038300,3.248038330078125,1.248809814453125,-6.7562255859375,-2.464385986328125
1713358256242987300,3.2579873046875,-0.1685638427734375,-5.693206787109375,-1.671905517578125
1713358256252966400,3.26796630859375,-1.449462890625,-8.9110107421875,-0.695068359375
1713358256262945500,3.277945556640625,-0.4319305419921875,-11.412948608398438,0.7941131591796875
1713358256272894500,3.28789453125,0.3749237060546875,-12.502304077148438,1.519561767578125
1713358256282873600,3.29787353515625,0.767578125,-12.380203247070312,1.8068695068359375
1713358256292853000,3.30785302734375,0.9040374755859375,-11.2142333984375,3.961639404296875
1713358256302801700,3.3178017578125,1.56005859375,-9.96685791015625,3.7772979736328125
1713358256312780800,3.32778076171875,1.0357208251953125,-9.289291381835938,4.1699371337890625
1713358256322760200,3.33776025390625,-0.0680084228515625,-9.547866821289062,4.653564453125
1713358256332708900,3.347708984375,0.4443511962890625,-9.796859741210938,3.209869384765625
1713358256342688000,3.35768798828125,0.0301513671875,-10.364288330078125,3.00396728515625
1713358256352667400,3.36766748046875,-0.1589813232421875,-11.719406127929688,3.36309814453125
1713358256362616000,3.377615966796875,0.288726806640625,-13.191848754882812,2.819610595703125
1713358256372595200,3.38759521484375,0.7555999755859375,-12.997909545898438,2.053466796875
1713358256382544100,3.397544189453125,-0.197296142578125,-11.70025634765625,1.890655517578125
1713358256392523300,3.407523193359375,-1.0592041015625,-11.453643798828125,0.8779144287109375
1713358256402502400,3.41750244140625,-0.6114959716796875,-11.336334228515625,1.677581787109375
1713358256412451300,3.427451416015625,0.10198974609375,-10.594131469726562,1.6081390380859375
1713358256422430500,3.437430419921875,1.3302154541015625,-8.652435302734375,0.305694580078125
1713358256432409900,3.447409912109375,0.7364501953125,-8.8056640625,1.0000152587890625
1713358256442358500,3.457358642578125,0.135498046875,-7.9317779541015625,0.8779144287109375
1713358256452337700,3.467337646484375,1.840179443359375,-7.88629150390625,0.801300048828125
1713358256462317000,3.477317138671875,0.1857757568359375,-8.226272583007812,0.88031005859375
1713358256472296200,3.487296142578125,-0.72161865234375,-7.268585205078125,0.4373779296875
1713358256482244900,3.497244873046875,0.1043701171875,-6.265411376953125,0.19317626953125
1713358256492224300,3.507224365234375,0.9519195556640625,-6.9860687255859375,-0.3957977294921875
1713358256502203400,3.517203369140625,1.174591064453125,-6.88311767578125,-0.16595458984375
1713358256512152000,3.527152099609375,0.779541015625,-7.6875762939453125,-0.6543731689453125
1713358256522131500,3.53713134765625,0.135498046875,-8.374710083007812,-1.1356048583984375
1713358256532110600,3.547110595703125,0.3150634765625,-9.15521240234375,-1.70782470703125
1713358256542059500,3.5570595703125,0.0540924072265625,-10.11529541015625,-2.3614349365234375
1713358256552038700,3.56703857421875,-0.21405029296875,-11.685882568359375,-3.08209228515625
1713358256562017800,3.577017822265625,0.192962646484375,-13.651535034179688,-3.6399383544921875
1713358256571966700,3.586966796875,0.853759765625,-12.782440185546875,-2.2369384765625
1713358256581945900,3.59694580078125,2.1179046630859375,-6.042755126953125,-1.31756591796875
1713358256591925200,3.60692529296875,-0.4869842529296875,-3.50250244140625,-2.89056396484375
1713358256601874000,3.6168740234375,-2.316162109375,-3.370819091796875,-3.1060333251953125
1713358256611853000,3.62685302734375,-2.8907623291015625,-5.8344573974609375,-3.5322113037109375
1713358256621832400,3.63683251953125,-2.280242919921875,-8.506393432617188,-3.414886474609375
1713358256631781000,3.646781005859375,-1.6362152099609375,-9.605331420898438,-2.749298095703125
1713358256641760300,3.65676025390625,-4.224334716796875,-4.2854156494140625,-0.1300506591796875
1713358256651709200,3.666709228515625,-4.2003936767578125,-4.045989990234375,3.07818603515625
1713358256661688300,3.676688232421875,0.64306640625,-3.030853271484375,1.67279052734375
1713358256671667500,3.68666748046875,0.14508056640625,-5.80572509765625,-0.043853759765625
1713358256681616400,3.696616455078125,0.0301513671875,-9.11212158203125,-0.836334228515625
1713358256691595500,3.706595458984375,-0.2739105224609375,-12.243743896484375,-0.8506927490234375
1713358256701575000,3.716574951171875,-0.64739990234375,-13.139175415039062,-0.0630035400390625
1713358256711523600,3.726523681640625,-1.6266326904296875,-9.018753051757812,-0.053436279296875
1713358256721502700,3.736502685546875,-2.692047119140625,-6.3851318359375,-0.7716827392578125
1713358256731482000,3.746482177734375,-1.8325347900390625,-8.353164672851562,1.011993408203125
1713358256741461200,3.756461181640625,-1.820556640625,-18.0496826171875,0.5068206787109375
1713358256751410000,3.766409912109375,-1.9235076904296875,-23.429443359375,-1.2026519775390625
1713358256761389300,3.776389404296875,-1.0448455810546875,-18.8541259765625,-5.2512359619140625
1713358256771368400,3.786368408203125,0.0684661865234375,-14.506256103515625,-2.849853515625
1713358256781317000,3.796317138671875,-0.7024688720703125,-14.582870483398438,-1.116455078125
1713358256791296500,3.806296630859375,-2.93865966796875,-15.406478881835938,-1.6312103271484375
1713358256801275600,3.816275634765625,-3.812530517578125,-14.101638793945312,-0.9608306884765625
1713358256811224600,3.826224609375,-3.45819091796875,-12.86383056640625,-1.0565948486328125
1713358256821203700,3.83620361328125,-2.785430908203125,-13.127197265625,-1.2672882080078125
1713358256831182800,3.846182861328125,-2.1078643798828125,-13.225357055664062,-1.2409515380859375
1713358256841131800,3.8561318359375,-3.6545257568359375,-11.566177368164062,-0.086944580078125
1713358256851111000,3.86611083984375,-4.1573028564453125,-12.622024536132812,0.0207977294921875
1713358256861090000,3.876090087890625,-3.9131011962890625,-10.661163330078125,0.31048583984375
1713358256871039000,3.8860390625,-3.7933807373046875,-7.522369384765625,1.4381561279296875
1713358256881018000,3.89601806640625,-2.438262939453125,-3.6988372802734375,2.8267974853515625
1713358256890997500,3.90599755859375,1.2895050048828125,-2.2982177734375,3.2170562744140625
1713358256900946200,3.9159462890625,0.848968505859375,-3.5982818603515625,-0.4317169189453125
1713358256910925300,3.92592529296875,0.56884765625,-6.212738037109375,-2.3015899658203125
1713358256920874000,3.9358740234375,0.0469207763671875,-7.9748687744140625,-1.64556884765625
1713358256930853400,3.945853271484375,1.4594879150390625,-8.705108642578125,-0.096527099609375
1713358256940832500,3.95583251953125,2.127471923828125,-9.61968994140625,0.4541473388671875
1713358256950781400,3.965781494140625,1.0620574951171875,-10.800033569335938,0.197967529296875
1713358256960760600,3.975760498046875,-0.599517822265625,-11.233383178710938,0.2865447998046875
1713358256970739700,3.98573974609375,-1.9905548095703125,-11.412948608398438,0.123748779296875
1713358256980688600,3.995688720703125,-2.960205078125,-11.561386108398438,-0.6232452392578125
1713358256990667800,4.005667724609375,-2.9889373779296875,-11.451263427734375,-0.9368896484375
1713358257000647200,4.015647216796875,-2.9003448486328125,-11.084945678710938,-0.4293212890625
1713358257010595800,4.025595947265625,-2.818939208984375,-10.699478149414062,-0.043853759765625
1713358257020575000,4.035574951171875,-2.59149169921875,-10.299652099609375,0.0806427001953125
1713358257030554400,4.045554443359375,-2.0073089599609375,-10.0626220703125,0.23626708984375
1713358257040533500,4.055533447265625,-1.073577880859375,-9.835174560546875,0.5882110595703125
1713358257050482200,4.065482177734375,-0.197296142578125,-9.583786010742188,1.129302978515625
1713358257060461600,4.075461669921875,0.468292236328125,-9.399429321289062,1.5028076171875
1713358257070440700,4.085440673828125,0.7484130859375,-9.382659912109375,1.70391845703125
1713358257080389400,4.095389404296875,0.743621826171875,-9.51434326171875,1.6656036376953125
1713358257090368800,4.10536865234375,0.8657379150390625,-9.600540161132812,1.4956207275390625
1713358257100348000,4.115347900390625,0.700531005859375,-9.636459350585938,1.27056884765625
1713358257110296800,4.125296875,0.288726806640625,-9.624481201171875,1.2178955078125
1713358257120276000,4.13527587890625,0.022979736328125,-9.499984741210938,1.19873046875
1713358257130255000,4.145255126953125,-0.2954559326171875,-9.4185791015625,1.277740478515625
1713358257140204000,4.1552041015625,-0.546844482421875,-9.394638061523438,1.38787841796875
1713358257150183200,4.16518310546875,-0.726409912109375,-9.4066162109375,1.4860382080078125
1713358257160162600,4.17516259765625,-0.726409912109375,-9.39703369140625,1.4812469482421875
1713358257170111200,4.185111328125,-0.5755767822265625,-9.452102661132812,1.423797607421875
1713358257180090400,4.19509033203125,-0.5947265625,-9.447311401367188,1.296905517578125
1713358257190069800,4.20506982421875,-0.4774169921875,-9.341964721679688,1.308868408203125
1713358257200018400,4.215018310546875,-0.24517822265625,-9.160003662109375,1.213104248046875
1713358257209997600,4.22499755859375,-0.21405029296875,-9.016357421875,1.435760498046875
1713358257219946500,4.234946533203125,0.224090576171875,-8.839187622070312,1.2107086181640625
1713358257229925600,4.244925537109375,0.520965576171875,-8.695526123046875,1.17718505859375
1713358257239904800,4.25490478515625,0.583221435546875,-8.575820922851562,1.335205078125
1713358257249853700,4.264853759765625,0.657440185546875,-8.537506103515625,1.476470947265625
1713358257259832800,4.274832763671875,0.564056396484375,-8.480056762695312,1.5889892578125
1713358257269812200,4.284812255859375,0.5281524658203125,-8.343582153320312,1.6703948974609375
1713358257279761000,4.294760986328125,0.4802703857421875,-8.17120361328125,1.7398223876953125
1713358257289740000,4.304739990234375,0.42999267578125,-7.91741943359375,1.8068695068359375
1713358257299719400,4.314719482421875,0.5257568359375,-7.6851806640625,1.9193878173828125
1713358257309668000,4.324668212890625,0.647857666015625,-7.55828857421875,2.0869903564453125
1713358257319647200,4.334647216796875,0.731658935546875,-7.6396942138671875,2.470062255859375
1713358257329626600,4.344626708984375,0.7603912353515625,-7.96051025390625,2.9704437255859375
1713358257339605800,4.354605712890625,0.731658935546875,-8.523147583007812,3.427734375
1713358257349554400,4.364554443359375,0.8609466552734375,-9.219863891601562,3.8203887939453125
1713358257359533800,4.374533935546875,1.7587738037109375,-9.82080078125,4.277679443359375
1713358257369513000,4.384512939453125,0.8848876953125,-10.309219360351562,3.93292236328125
1713358257379461600,4.394461669921875,0.482666015625,-11.269302368164062,3.949676513671875
1713358257389441000,4.40444091796875,0.061279296875,-12.195846557617188,5.0438232421875
1713358257399420200,4.414420166015625,-0.3864288330078125,-12.8111572265625,5.0773468017578125
1713358257409369000,4.424369140625,0.1809844970703125,-13.0218505859375,5.058197021484375
1713358257419348200,4.43434814453125,0.573638916015625,-13.0841064453125,5.1348114013671875
1713358257429297000,4.444296875,0.635894775390625,-13.160720825195312,5.000732421875
1713358257439276300,4.4542763671875,0.2959136962890625,-13.206207275390625,3.7413787841796875
1713358257449255400,4.46425537109375,-0.197296142578125,-13.919677734375,3.62884521484375
1713358257459204000,4.4742041015625,-1.6912689208984375,-15.9691162109375,2.83636474609375
1713358257469183500,4.48418359375,-3.87957763671875,-19.249176025390625,1.4381561279296875
1713358257479162600,4.49416259765625,-1.6266326904296875,-21.794204711914062,-1.686279296875
1713358257489111300,4.504111328125,3.38922119140625,-19.457473754882812,-4.5736846923828125
1713358257499090700,4.514090576171875,4.409149169921875,-10.1488037109375,-6.7811431884765625
1713358257509069800,4.52406982421875,2.5775909423828125,-3.337310791015625,-4.1570892333984375
1713358257519018800,4.534018798828125,1.081207275390625,-2.1880950927734375,1.191558837890625
1713358257528998000,4.543997802734375,-0.7647247314453125,-2.7267913818359375,1.699127197265625
1713358257538977000,4.55397705078125,-0.90118408203125,-4.457794189453125,2.4676666259765625
1713358257548926000,4.563926025390625,-2.828521728515625,-8.1185302734375,3.727020263671875
1713358257558905000,4.573905029296875,-5.0335845947265625,-12.088119506835938,3.485198974609375
1713358257568853800,4.583853759765625,-5.0383758544921875,-13.191848754882812,2.3934478759765625
1713358257578833200,4.593833251953125,-3.84844970703125,-12.41851806640625,1.689544677734375
1713358257588812300,4.603812255859375,-4.28179931640625,-11.137619018554688,0.8300323486328125
1713358257598791700,4.613791748046875,-3.810150146484375,-9.818405151367188,-0.2928466796875
1713358257608770800,4.623770751953125,-2.7088165283203125,-8.872695922851562,-1.6264190673828125
1713358257618719500,4.633719482421875,-1.89239501953125,-8.554275512695312,-3.208984375
1713358257628699000,4.643698974609375,-1.226806640625,-8.4034423828125,-4.4970703125
1713358257638647600,4.6536474609375,-0.949066162109375,-7.7665863037109375,-5.1506805419921875
1713358257648626700,4.663626708984375,-0.79583740234375,-6.9333953857421875,-5.210540771484375
1713358257658606000,4.673606201171875,-0.4175567626953125,-6.5335693359375,-4.650299072265625
1713358257668554800,4.6835546875,-0.5109405517578125,-6.6317291259765625,-3.7069854736328125
1713358257678534100,4.6935341796875,-0.85809326171875,-7.0554962158203125,-2.6200103759765625
1713358257688513300,4.70351318359375,-0.8293609619140625,-7.7306671142578125,-1.925689697265625
1713358257698462000,4.7134619140625,-0.63543701171875,-8.314849853515625,-1.152374267578125
1713358257708441300,4.72344140625,-0.6450042724609375,-8.640457153320312,-0.118072509765625
1713358257718420500,4.73342041015625,-0.0584259033203125,-8.906219482421875,-0.000762939453125
1713358257728369200,4.743369140625,0.329437255859375,-8.887069702148438,0.0950164794921875
1713358257738348500,4.7533486328125,0.5137786865234375,-8.614120483398438,0.547515869140625
1713358257748327700,4.76332763671875,0.42999267578125,-8.554275512695312,1.0742340087890625
1713358257758276400,4.7732763671875,0.0205841064453125,-8.597366333007812,1.5075836181640625
1713358257768255700,4.783255859375,-0.731201171875,-8.78411865234375,1.730255126953125
1713358257778235000,4.79323486328125,-1.4590301513671875,-9.14324951171875,1.5889892578125
1713358257788183600,4.80318359375,-1.782257080078125,-9.47125244140625,1.4740753173828125
1713358257798185700,4.813185791015625,-1.676910400390625,-9.75616455078125,1.277740478515625
1713358257808164900,4.823164794921875,-1.602691650390625,-10.045867919921875,0.918609619140625
1713358257818113500,4.833113525390625,-1.382415771484375,-10.395416259765625,0.38470458984375
1713358257828093000,4.843093017578125,-1.2627105712890625,-10.445693969726562,-0.2689056396484375
1713358257838041600,4.85304150390625,-1.0568084716796875,-10.184722900390625,-0.730987548828125
1713358257848020700,4.863020751953125,-0.72161865234375,-9.737014770507812,-0.582550048828125
1713358257858000100,4.873000244140625,-0.5205078125,-9.2701416015625,-0.498748779296875
1713358257867948800,4.88294873046875,-0.7718963623046875,-9.009170532226562,-0.66156005859375
1713358257877928200,4.89292822265625,-1.042449951171875,-9.009170532226562,-0.5657958984375
1713358257887907300,4.9029072265625,-0.9658355712890625,-9.052261352539062,-0.371856689453125
1713358257897886500,4.912886474609375,-0.874847412109375,-9.08099365234375,0.262603759765625
1713358257907835400,4.92283544921875,-0.989776611328125,-9.128875732421875,0.8946685791015625
1713358257917814500,4.932814453125,-1.011322021484375,-9.294082641601562,1.4956207275390625
1713358257927794000,4.9427939453125,-0.894012451171875,-9.306045532226562,1.4166107177734375
1713358257937742600,4.95274267578125,-0.1110992431640625,-9.1767578125,1.117340087890625
1713358257947721700,4.9627216796875,1.4547119140625,-8.750595092773438,0.3871002197265625
1713358257957701000,4.972701171875,2.675750732421875,-8.305282592773438,-0.139617919921875
1713358257967649800,4.98264990234375,3.563995361328125,-7.8360137939453125,0.145294189453125
1713358257977629000,4.99262890625,3.63104248046875,-7.23028564453125,0.8683319091796875
1713358257987608300,5.0026083984375,2.8433380126953125,-7.0171966552734375,1.7134857177734375
1713358257997557000,5.012556884765625,1.926361083984375,-7.39068603515625,2.4413299560546875
1713358258007536000,5.0225361328125,0.7986907958984375,-8.999588012695312,2.549072265625
1713358258017515500,5.032515625,-0.1518096923828125,-11.295639038085938,1.773345947265625
1713358258027464200,5.042464111328125,-0.6258544921875,-13.682647705078125,0.2745819091796875
1713358258037443600,5.052443603515625,-0.9227294921875,-15.782363891601562,-1.12603759765625
1713358258047422700,5.062422607421875,-0.161376953125,-16.670623779296875,-1.6168365478515625
1713358258057371400,5.072371337890625,1.3110504150390625,-16.007415771484375,-1.384613037109375
1713358258067350800,5.082350830078125,1.9862213134765625,-13.47674560546875,0.047119140625
1713358258077299500,5.092299560546875,0.9734649658203125,-10.6875,0.6720123291015625
1713358258087278600,5.102278564453125,-0.5492401123046875,-8.575820922851562,1.0622711181640625
1713358258097258000,5.112258056640625,-1.2818603515625,-7.256622314453125,1.5482940673828125
1713358258107206700,5.12220654296875,-2.311370849609375,-6.1193695068359375,1.2298583984375
1713358258117185800,5.132185791015625,-3.5707244873046875,-5.460968017578125,0.1165618896484375
1713358258127165200,5.142165283203125,-4.545166015625,-5.6237640380859375,-0.8506927490234375
1713358258137113900,5.15211376953125,-4.33447265625,-6.3563995361328125,-2.019073486328125
1713358258147093200,5.16209326171875,-3.156524658203125,-7.6133575439453125,-3.7812042236328125
1713358258157072400,5.172072265625,-2.4310760498046875,-9.959671020507812,-5.7157135009765625
1713358258167021000,5.18202099609375,-2.1701202392578125,-13.057769775390625,-7.0420989990234375
1713358258177000400,5.19200048828125,-1.741546630859375,-16.416824340820312,-8.43792724609375
1713358258186979600,5.2019794921875,-1.107086181640625,-19.665756225585938,-10.058792114257812
1713358258196958700,5.211958740234375,-1.03765869140625,-21.626617431640625,-8.806625366210938
1713358258206907600,5.22190771484375,-2.7375335693359375,-19.859695434570312,-4.714935302734375
1713358258216886800,5.23188671875,-5.5986175537109375,-16.689773559570312,-2.0286407470703125
1713358258226866200,5.2418662109375,-8.165191650390625,-14.906097412109375,-1.0853271484375
1713358258236814800,5.25181494140625,-9.424545288085938,-13.057769775390625,0.74383544921875
1713358258246794000,5.2617939453125,-8.723052978515625,-11.120849609375,2.3359832763671875
1713358258256773400,5.2717734375,-6.8292388916015625,-10.184722900390625,2.9488983154296875
1713358258266722000,5.28172216796875,-4.6529083251953125,-8.863128662109375,2.9632720947265625
1713358258276701200,5.291701171875,-2.352081298828125,-7.3882904052734375,3.252960205078125
1713358258286680600,5.3016806640625,-0.5588226318359375,-6.9046630859375,2.697509765625
1713358258296629200,5.311629150390625,1.1697998046875,-6.433013916015625,1.979248046875
1713358258306608400,5.3216083984375,2.4842071533203125,-6.1193695068359375,1.830810546875
1713358258316587800,5.331587890625,2.1514129638671875,-5.798553466796875,1.351959228515625
1713358258326536400,5.341536376953125,1.8880615234375,-5.6381378173828125,0.8707275390625
1713358258336515800,5.351515869140625,1.8329925537109375,-5.6237640380859375,0.0327606201171875
1713358258346495000,5.361494873046875,1.682159423828125,-5.250274658203125,-0.4436798095703125
1713358258356443600,5.371443603515625,1.5001983642578125,-4.7307281494140625,-1.09490966796875
1713358258366423000,5.381423095703125,1.0309295654296875,-4.395538330078125,-1.55938720703125
1713358258376371700,5.391371826171875,0.5496978759765625,-4.3189239501953125,-1.322357177734375
1713358258386350800,5.401350830078125,0.56884765625,-4.64215087890625,-1.0398406982421875
1713358258396330200,5.411330322265625,0.7125091552734375,-5.1569061279296875,-0.984771728515625
1713358258406279000,5.42127880859375,0.8178558349609375,-5.82489013671875,-1.0973052978515625
1713358258416258000,5.431258056640625,0.7029266357421875,-6.782562255859375,-1.24334716796875
1713358258426237400,5.441237548828125,0.5281524658203125,-7.85516357421875,-1.5210723876953125
1713358258436186000,5.45118603515625,0.477874755859375,-8.611740112304688,-1.5306549072265625
1713358258446165500,5.46116552734375,0.4658966064453125,-8.982833862304688,-1.006317138671875
1713358258456144600,5.47114453125,0.530548095703125,-8.949310302734375,-0.3167877197265625
1713358258466093300,5.48109326171875,0.6454620361328125,-8.906219482421875,0.293731689453125
1713358258476072700,5.49107275390625,0.796295166015625,-9.045089721679688,1.3735198974609375
1713358258486051800,5.5010517578125,1.016571044921875,-9.179153442382812,2.8435516357421875
1713358258496031200,5.51103125,1.4307708740234375,-9.262954711914062,4.414154052734375
1713358258505980000,5.52097998046875,1.63427734375,-9.090576171875,5.6687164306640625
1713358258515959000,5.530958984375,1.461883544921875,-9.686737060546875,7.28240966796875
1713358258525938400,5.5409384765625,1.01177978515625,-10.744964599609375,7.921661376953125
1713358258535887000,5.55088720703125,0.25042724609375,-11.824752807617188,6.5234375
1713358258545866200,5.5608662109375,-0.568389892578125,-13.187057495117188,3.834747314453125
1713358258555845600,5.570845703125,-0.831756591796875,-14.317123413085938,1.9289703369140625
1713358258565794300,5.580794189453125,0.4754791259765625,-14.69061279296875,0.0902252197265625
1713358258575773400,5.5907734375,2.793060302734375,-14.6690673828125,-1.93048095703125
1713358258585752800,5.6007529296875,3.9566497802734375,-13.440841674804688,-4.0445709228515625
1713358258595701500,5.610701416015625,2.5464630126953125,-12.100082397460938,-2.96478271484375
1713358258605681000,5.620680908203125,1.92156982421875,-13.68743896484375,-0.04864501953125
1713358258615660000,5.630659912109375,2.505767822265625,-16.8980712890625,-0.7238006591796875
1713358258625608700,5.640608642578125,-0.4654388427734375,-21.224395751953125,-3.75726318359375
1713358258635588000,5.650588134765625,-6.4341888427734375,-24.193191528320312,-3.9463958740234375
1713358258645536800,5.660536865234375,-10.013519287109375,-21.063980102539062,-1.7054290771484375
1713358258655516000,5.670515869140625,-8.682342529296875,-14.846237182617188,-1.0733642578125
1713358258665495300,5.680495361328125,-4.7798004150390625,-11.072967529296875,3.020721435546875
1713358258675444000,5.69044384765625,-2.18927001953125,-9.119308471679688,4.5338592529296875
1713358258685423000,5.700423095703125,-1.24835205078125,-8.080215454101562,3.516326904296875
1713358258695402500,5.710402587890625,-0.8987884521484375,-6.9333953857421875,3.7988433837890625
1713358258705351200,5.72035107421875,-0.9610443115234375,-5.788970947265625,4.1029052734375
1713358258715330300,5.730330322265625,-1.42791748046875,-4.5990447998046875,3.0709991455078125
1713358258725309700,5.740309814453125,-1.1214599609375,-3.7347412109375,2.4413299560546875
1713358258735258400,5.75025830078125,-0.0057525634765625,-4.3811798095703125,1.7757415771484375
1713358258745237800,5.76023779296875,1.4259796142578125,-6.6580657958984375,0.051910400390625
1713358258755217000,5.770216796875,1.7659454345703125,-9.009170532226562,-4.4228515625
1713358258765196000,5.780196044921875,1.076416015625,-10.96044921875,-8.698898315429688
1713358258775145000,5.79014501953125,-0.556427001953125,-12.2916259765625,-11.758682250976562
1713358258785124000,5.8001240234375,-2.0959014892578125,-12.02825927734375,-11.631790161132812
1713358258795103500,5.810103515625,-2.141387939453125,-9.538284301757812,-7.355743408203125
1713358258805052200,5.82005224609375,-0.4654388427734375,-6.138519287109375,-4.8585968017578125
1713358258815031300,5.83003125,1.1410675048828125,-3.9047393798828125,-2.6295928955078125
1713358258825010700,5.8400107421875,1.892852783203125,-3.10028076171875,-0.8123931884765625
1713358258834959400,5.84995947265625,1.9000244140625,-3.3995513916015625,-0.434112548828125
1713358258844938500,5.8599384765625,1.5217437744140625,-4.3452606201171875,0.2434539794921875
1713358258854918000,5.86991796875,1.05487060546875,-5.6381378173828125,1.4788665771484375
1713358258864866600,5.879866455078125,-0.1949005126953125,-7.3619537353515625,2.2138824462890625
1713358258874845700,5.889845703125,-1.001739501953125,-8.915802001953125,2.8052520751953125
1713358258884825000,5.8998251953125,-1.6050872802734375,-10.029098510742188,2.8148193359375
1713358258894773800,5.909773681640625,-1.8109893798828125,-10.658782958984375,2.640045166015625
1713358258904753200,5.919753173828125,-2.05279541015625,-10.586944580078125,2.94171142578125
1713358258914701800,5.929701904296875,-2.5675506591796875,-10.15838623046875,2.7645416259765625
1713358258924681000,5.939680908203125,-2.93865966796875,-9.413787841796875,2.671173095703125
1713358258934660400,5.949660400390625,-3.0679473876953125,-9.382659912109375,2.3311920166015625
1713358258944609000,5.959609130859375,-2.9147186279296875,-9.79925537109375,1.7853240966796875
1713358258954588200,5.969588134765625,-2.648956298828125,-10.330764770507812,0.9832611083984375
1713358258964567600,5.979567626953125,-2.2108154296875,-10.7066650390625,0.253021240234375
1713358258974516200,5.98951611328125,-1.60748291015625,-10.572586059570312,-0.074981689453125
1713358258984495400,5.999495361328125,-1.1046905517578125,-10.208663940429688,0.0231781005859375
1713358258994474800,6.009474853515625,-0.769500732421875,-9.847137451171875,0.1740264892578125
1713358259004423400,6.01942333984375,-0.5109405517578125,-9.341964721679688,0.1117706298828125
1713358259014402800,6.02940283203125,-0.017730712890625,-8.820022583007812,-0.594512939453125
1713358259024382000,6.0393818359375,1.143463134765625,-8.365127563476562,-1.090118408203125
1713358259034330600,6.04933056640625,2.8002471923828125,-8.06585693359375,-1.248138427734375
1713358259044310000,6.05931005859375,4.8353271484375,-7.7258758544921875,-1.5354461669921875
1713358259054289200,6.0692890625,6.45379638671875,-7.871917724609375,-1.829925537109375
1713358259064268500,6.0792685546875,6.099456787109375,-7.816864013671875,-1.42291259765625
1713358259074217200,6.08921728515625,3.7196197509765625,-7.802490234375,0.166839599609375
1713358259084196400,6.0991962890625,1.2416229248046875,-8.662017822265625,2.596954345703125
1713358259094175700,6.10917578125,-0.45587158203125,-10.407379150390625,4.6104736328125
1713358259104124400,6.11912451171875,-1.1717376708984375,-12.236557006835938,4.8020172119140625
1713358259114103600,6.129103515625,-1.2579193115234375,-13.646743774414062,3.5498504638671875
1713358259124083000,6.1390830078125,-1.1980743408203125,-14.367401123046875,2.280914306640625
1713358259134031600,6.149031494140625,-0.31939697265625,-14.403305053710938,2.1252899169921875
1713358259144010800,6.1590107421875,0.19775390625,-13.098464965820312,3.073394775390625
1713358259153990100,6.168990234375,0.0181884765625,-11.602096557617188,2.4197845458984375
1713358259163938800,6.178938720703125,-0.228424072265625,-10.692291259765625,1.6608123779296875
1713358259173918000,6.18891796875,-0.35052490234375,-9.792068481445312,1.2322540283203125
1713358259183867000,6.198866943359375,-1.16455078125,-8.930160522460938,0.5068206787109375
1713358259193846000,6.208845947265625,-1.739166259765625,-8.494415283203125,-0.6855010986328125
1713358259203825400,6.218825439453125,-1.961822509765625,-8.312454223632812,-1.8634490966796875
1713358259213774000,6.228774169921875,-1.9881591796875,-8.391464233398438,-3.436431884765625
1713358259223753200,6.238753173828125,-2.7375335693359375,-8.860733032226562,-5.675018310546875
1713358259233732600,6.248732666015625,-3.5108642578125,-10.311614990234375,-7.1570281982421875
1713358259243681300,6.258681396484375,-3.9777374267578125,-12.89495849609375,-8.789871215820312
1713358259253660400,6.268660400390625,-3.5012969970703125,-15.650680541992188,-11.126617431640625
1713358259263639800,6.278639892578125,-2.4981231689453125,-17.879684448242188,-10.6142578125
1713358259273588500,6.28858837890625,-1.834930419921875,-18.739212036132812,-7.7843017578125
1713358259283567600,6.298567626953125,-2.8548583984375,-17.566055297851562,-2.8474578857421875
1713358259293516500,6.3085166015625,-5.586639404296875,-16.330642700195312,-0.0318756103515625
1713358259303495700,6.31849560546875,-9.13006591796875,-15.363388061523438,0.67919921875
1713358259313475000,6.32847509765625,-10.626434326171875,-14.460769653320312,2.185150146484375
1713358259323454200,6.3384541015625,-9.367080688476562,-12.803985595703125,4.2585296630859375
1713358259333403000,6.34840283203125,-8.308853149414062,-10.309219360351562,5.1611480712890625
1713358259343382300,6.35838232421875,-6.4509429931640625,-8.307662963867188,5.8650360107421875
1713358259353361400,6.368361328125,-4.0136566162109375,-7.19915771484375,4.785247802734375
1713358259363310000,6.37831005859375,-0.6713409423828125,-6.358795166015625,2.640045166015625
1713358259373289500,6.38828955078125,3.7339935302734375,-5.2574615478515625,2.067840576171875
1713358259383268600,6.3982685546875,5.8935546875,-5.154510498046875,1.19873046875
1713358259393217300,6.40821728515625,4.9598236083984375,-5.6429290771484375,-0.6639556884765625
1713358259403196700,6.41819677734375,4.68927001953125,-5.6548919677734375,-1.983154296875
1713358259413175800,6.42817578125,4.366058349609375,-5.7434844970703125,-2.770843505859375
1713358259423124700,6.438124755859375,3.5496368408203125,-5.7434844970703125,-3.2161712646484375
1713358259433104000,6.448103759765625,1.92156982421875,-5.293365478515625,-2.368621826171875
1713358259443083000,6.4580830078125,0.923187255859375,-5.06591796875,-1.686279296875
1713358259453032000,6.468031982421875,-0.36248779296875,-5.0970458984375,-0.85308837890625
1713358259463011000,6.478010986328125,-1.497344970703125,-5.293365478515625,-0.3670654296875
1713358259472990500,6.487990478515625,-1.401580810546875,-5.71954345703125,-0.2306060791015625
1713358259482939100,6.497939208984375,-1.11187744140625,-6.37554931640625,-0.1300506591796875
1713358259492918300,6.507918212890625,-0.810211181640625,-7.0219879150390625,-0.4891815185546875
1713358259502897700,6.517897705078125,-0.0105438232421875,-7.2278900146484375,-0.7884521484375
1713358259512846300,6.527846435546875,0.722076416015625,-7.10577392578125,-0.80999755859375
1713358259522825500,6.537825439453125,1.1003570556640625,-7.05072021484375,-0.4795989990234375
1713358259532804900,6.547804931640625,1.301483154296875,-7.369140625,0.1859893798828125
1713358259542753500,6.55775341796875,1.502593994140625,-7.881500244140625,1.349578857421875
1713358259552732700,6.567732666015625,1.9120025634765625,-8.281326293945312,3.305633544921875
1713358259562681600,6.577681640625,2.56561279296875,-8.53033447265625,5.8865814208984375
1713358259572660700,6.58766064453125,3.0229034423828125,-9.035507202148438,7.8618011474609375
1713358259582639900,6.597639892578125,2.601531982421875,-10.481597900390625,8.084457397460938
1713358259592619300,6.607619384765625,1.809051513671875,-12.732162475585938,7.1076202392578125
1713358259602568000,6.61756787109375,-1.032867431640625,-15.169448852539062,5.618438720703125
1713358259612547300,6.62754736328125,-4.17645263671875,-17.329025268554688,3.738983154296875
1713358259622526500,6.6375263671875,-3.2858123779296875,-17.613937377929688,1.28253173828125
1713358259632475100,6.64747509765625,-0.9347076416015625,-17.206924438476562,-2.5984649658203125
1713358259642454500,6.65745458984375,3.1258544921875,-16.605972290039062,-5.53375244140625
1713358259652433700,6.66743359375,5.0723419189453125,-14.762435913085938,-5.9216156005859375
1713358259662382300,6.67738232421875,3.9518585205078125,-12.358657836914062,-3.0988616943359375
1713358259672361700,6.68736181640625,3.700469970703125,-13.304367065429688,1.4549102783203125
1713358259682340900,6.6973408203125,4.7060394287109375,-16.069671630859375,2.142059326171875
1713358259692289500,6.70728955078125,2.3309783935546875,-18.35614013671875,-0.0677947998046875
1713358259702269000,6.71726904296875,-4.5283966064453125,-19.016937255859375,-3.508270263671875
1713358259712248000,6.727248046875,-8.87628173828125,-17.613937377929688,-5.2296905517578125
1713358259722197000,6.737197021484375,-10.791641235351562,-12.696243286132812,-4.0445709228515625
1713358259732176100,6.747176025390625,-8.869094848632812,-9.684341430664062,-0.7238006591796875
1713358259742155300,6.7571552734375,-4.614593505859375,-8.693130493164062,1.857147216796875
1713358259752104200,6.767104248046875,-1.1358184814453125,-7.46490478515625,2.989593505859375
1713358259762083300,6.777083251953125,0.80108642578125,-5.8775482177734375,2.6113128662109375
1713358259772062700,6.787062744140625,1.8880615234375,-4.5894775390625,2.2952880859375
1713358259782011400,6.797011474609375,0.5137786865234375,-3.770660400390625,1.2681732177734375
1713358259791990500,6.806990478515625,-1.1621551513671875,-3.9119110107421875,0.13092041015625
1713358259801970000,6.816969970703125,-1.2363739013671875,-5.482513427734375,-0.38861083984375
1713358259811918600,6.826918701171875,-0.3337554931640625,-7.46490478515625,-1.99273681640625
1713358259821897700,6.836897705078125,0.04931640625,-8.997207641601562,-4.6119842529296875
1713358259831846700,6.8468466796875,-0.123077392578125,-10.076980590820312,-6.86492919921875
1713358259841825800,6.85682568359375,-1.0831451416015625,-11.197463989257812,-8.540878295898438
1713358259851805000,6.866804931640625,-2.0503997802734375,-11.889389038085938,-8.665374755859375
1713358259861753900,6.87675390625,-2.30657958984375,-11.080154418945312,-5.3565826416015625
1713358259871733000,6.88673291015625,-1.54522705078125,-8.757781982421875,-2.67987060546875
1713358259881712400,6.89671240234375,-0.3960113525390625,-5.9613494873046875,-0.889007568359375
1713358259891691500,6.90669140625,0.489837646484375,-4.129791259765625,-0.3694610595703125
1713358259901640200,6.91664013671875,0.9303741455078125,-3.591094970703125,-0.7645111083984375
1713358259911619600,6.92661962890625,1.1985321044921875,-3.962188720703125,-1.537841796875
1713358259921598700,6.9365986328125,0.89447021484375,-4.7762298583984375,-1.439666748046875
1713358259931547400,6.94654736328125,-0.187713623046875,-6.160064697265625,-1.0733642578125
1713358259941526800,6.95652685546875,-1.1789093017578125,-7.986846923828125,-0.371856689453125
1713358259951506000,6.966505859375,-1.8804168701171875,-9.856719970703125,0.3296356201171875
1713358259961454600,6.97645458984375,-1.6266326904296875,-11.403366088867188,1.2178955078125
1713358259971434000,6.98643408203125,-1.1669464111328125,-12.375411987304688,1.7254638671875
1713358259981413000,6.9964130859375,-1.2100372314453125,-12.363449096679688,1.67279052734375
1713358259991362000,7.006362060546875,-1.76788330078125,-11.441680908203125,1.6177215576171875
1713358260001341200,7.016341064453125,-2.3975677490234375,-10.045867919921875,1.5602569580078125
1713358260011320300,7.0263203125,-2.4717864990234375,-8.772140502929688,1.423797607421875
1713358260021269200,7.036269287109375,-2.0623779296875,-8.068252563476562,1.0359344482421875
1713358260031248400,7.046248291015625,-1.487762451171875,-7.7785491943359375,0.736663818359375
1713358260041227500,7.0562275390625,-0.915557861328125,-7.8312225341796875,0.432586669921875
1713358260051176400,7.066176513671875,-0.45587158203125,-8.001205444335938,0.62652587890625
1713358260061155600,7.076155517578125,-0.087158203125,-8.503997802734375,1.0000152587890625
1713358260071135000,7.086135009765625,0.0804290771484375,-9.03790283203125,1.5961761474609375
1713358260081083600,7.096083740234375,0.9830474853515625,-9.6412353515625,1.34478759765625
1713358260091062800,7.106062744140625,2.898406982421875,-10.005157470703125,0.4828643798828125
1713358260101011500,7.116011474609375,4.3061981201171875,-10.134445190429688,-0.1875
1713358260110990800,7.125990966796875,4.864044189453125,-9.811233520507812,-0.4700164794921875
1713358260120970000,7.135969970703125,4.67730712890625,-8.863128662109375,0.1428985595703125
1713358260130919000,7.1459189453125,3.7244110107421875,-8.1304931640625,1.2274627685546875
1713358260140898000,7.15589794921875,2.9750213623046875,-7.7737579345703125,2.89862060546875
1713358260150877200,7.165877197265625,2.1777496337890625,-8.159225463867188,4.361480712890625
1713358260160826000,7.175826171875,1.423583984375,-9.528717041015625,4.45245361328125
1713358260170805200,7.18580517578125,0.499420166015625,-11.396194458007812,3.4037933349609375
1713358260180784600,7.19578466796875,-0.2212371826171875,-13.625198364257812,2.324005126953125
1713358260190763800,7.205763671875,0.3892822265625,-15.078475952148438,0.801300048828125
1713358260200712400,7.21571240234375,1.028533935546875,-15.0401611328125,0.432586669921875
1713358260210691800,7.22569189453125,0.51617431640625,-13.61322021484375,1.383087158203125
1713358260220671000,7.2356708984375,-0.683319091796875,-12.16473388671875,2.4365386962890625
1713358260230619600,7.24561962890625,-1.1884918212890625,-10.694686889648438,2.0127716064453125
1713358260240599000,7.25559912109375,-1.739166259765625,-9.219863891601562,1.4716796875
1713358260250578200,7.265578125,-3.1062469482421875,-8.338790893554688,0.631317138671875
1713358260260526800,7.27552685546875,-4.272216796875,-8.06585693359375,-0.1252593994140625
1713358260270506200,7.28550634765625,-3.843658447265625,-7.71868896484375,-0.968017578125
1713358260280485400,7.2954853515625,-3.1708984375,-7.5415191650390625,-2.5074920654296875
1713358260290434300,7.305434326171875,-3.2882080078125,-8.190353393554688,-4.913665771484375
1713358260300413400,7.315413330078125,-4.2147674560546875,-10.012344360351562,-8.181747436523438
1713358260310392600,7.325392578125,-4.243499755859375,-13.237335205078125,-9.591934204101562
1713358260320341500,7.335341552734375,-2.881195068359375,-16.811874389648438,-11.729949951171875
1713358260330320600,7.345320556640625,-1.7631072998046875,-19.639434814453125,-13.295761108398438
1713358260340300000,7.355300048828125,-1.7535247802734375,-20.697662353515625,-11.421096801757812
1713358260350248700,7.365248779296875,-2.775848388671875,-18.899612426757812,-5.560089111328125
1713358260360227800,7.375227783203125,-5.174835205078125,-16.629913330078125,-0.8770294189453125
1713358260370207200,7.385207275390625,-7.76776123046875,-15.475906372070312,0.822845458984375
1713358260380156000,7.395156005859375,-8.986404418945312,-14.3961181640625,1.984039306640625
1713358260390135000,7.405135009765625,-8.234634399414062,-12.674697875976562,3.528289794921875
1713358260400084000,7.415083984375,-7.4613037109375,-10.503158569335938,4.9193267822265625
1713358260410063000,7.42506298828125,-6.5227813720703125,-8.46807861328125,6.336700439453125
1713358260420042200,7.435042236328125,-4.964141845703125,-7.158447265625,5.9177093505859375
1713358260429991200,7.4449912109375,-2.9434356689453125,-5.8871307373046875,5.302398681640625
1713358260439970300,7.45497021484375,1.3804931640625,-4.8935394287109375,4.79962158203125
1713358260449949700,7.46494970703125,4.9957275390625,-4.8097381591796875,3.5785675048828125
1713358260459928800,7.4749287109375,6.16888427734375,-4.68524169921875,2.276123046875
1713358260469877500,7.48487744140625,4.5599822998046875,-5.25506591796875,0.9353790283203125
1713358260479857000,7.49485693359375,2.9008026123046875,-5.3939208984375,0.1548614501953125
1713358260489836000,7.5048359375,2.168182373046875,-5.2359161376953125,-1.0230865478515625
1713358260499784700,7.51478466796875,1.9598846435546875,-5.271820068359375,-1.8658447265625
1713358260509764000,7.52476416015625,1.440338134765625,-5.06591796875,-1.7174072265625
1713358260519743200,7.5347431640625,0.722076416015625,-4.922271728515625,-1.8227386474609375
1713358260529692000,7.54469189453125,0.4922332763671875,-4.8504486083984375,-2.0142822265625
1713358260539671300,7.55467138671875,0.183380126953125,-4.795379638671875,-1.576141357421875
1713358260549650400,7.564650390625,0.05169677734375,-5.0371856689453125,-0.9991455078125
1713358260559599000,7.57459912109375,0.0995941162109375,-5.4537811279296875,-0.92730712890625
1713358260569578500,7.58457861328125,0.236053466796875,-5.8560028076171875,-0.968017578125
1713358260579557600,7.5945576171875,0.41082763671875,-6.286956787109375,-1.0565948486328125
1713358260589506600,7.604506591796875,0.64306640625,-6.7418670654296875,-1.2098236083984375
1713358260599485700,7.614485595703125,0.7340545654296875,-7.1752166748046875,-0.9775848388671875
1713358260609464800,7.62446484375,0.8657379150390625,-7.6612396240234375,-0.106109619140625
1713358260619413800,7.634413818359375,1.143463134765625,-8.2047119140625,1.260986328125
1713358260629393000,7.644392822265625,1.7324371337890625,-8.64764404296875,3.0709991455078125
1713358260639372300,7.654372314453125,2.4674530029296875,-9.169586181640625,5.0605926513671875
1713358260649321000,7.664321044921875,2.7643280029296875,-9.9261474609375,6.803558349609375
1713358260659300000,7.674300048828125,2.3094329833984375,-11.05621337890625,7.2440948486328125
1713358260669248800,7.684248779296875,1.275146484375,-12.32513427734375,6.2672576904296875
1713358260679228200,7.694228271484375,-1.01611328125,-13.874191284179688,3.5618133544921875
1713358260689207300,7.704207275390625,-2.5029144287109375,-15.296340942382812,1.435760498046875
1713358260699156200,7.71415625,-0.953857421875,-15.581253051757812,0.485260009765625
1713358260709135400,7.72413525390625,1.44512939453125,-15.0401611328125,-1.9735870361328125
1713358260719114500,7.734114501953125,3.3988037109375,-14.0369873046875,-4.6957855224609375
1713358260729063400,7.7440634765625,3.6980743408203125,-11.73138427734375,-4.671844482421875
1713358260739042600,7.75404248046875,3.9135589599609375,-9.87347412109375,-1.1595458984375
1713358260749022000,7.76402197265625,4.0691680908203125,-9.686737060546875,2.745391845703125
1713358260759001000,7.7740009765625,4.3469085693359375,-11.022689819335938,4.8091888427734375
1713358260768949800,7.78394970703125,2.211273193359375,-15.1143798828125,4.014312744140625
1713358260778929200,7.79392919921875,-4.197998046875,-23.127777099609375,-0.3910064697265625
1713358260788908300,7.803908203125,-12.56573486328125,-29.719009399414062,-2.27764892578125
1713358260798857000,7.81385693359375,-19.820175170898438,-26.8531494140625,-6.1801910400390625
1713358260808836400,7.82383642578125,-13.384552001953125,-16.119949340820312,-6.553680419921875
1713358260818815500,7.8338154296875,-1.53564453125,-9.385055541992188,-1.8897857666015625
1713358260828764200,7.84376416015625,2.0484619140625,-6.370758056640625,1.1197357177734375
1713358260838743600,7.85374365234375,2.4147796630859375,-5.2957611083984375,2.544281005859375
1713358260848722700,7.86372265625,1.7013092041015625,-4.943817138671875,3.3176116943359375
1713358260858671600,7.873671630859375,0.779541015625,-4.4338531494140625,2.1204986572265625
1713358260868650800,7.883650634765625,0.209716796875,-3.442657470703125,-0.4053802490234375
1713358260878630000,7.8936298828125,0.767578125,-4.172882080078125,-1.1140594482421875
1713358260888578800,7.903578857421875,1.868896484375,-6.41864013671875,-2.8953399658203125
1713358260898558000,7.913557861328125,1.387664794921875,-8.6260986328125,-6.362152099609375
1713358260908537300,7.923537353515625,0.2264862060546875,-10.103317260742188,-9.563201904296875
1713358260918486000,7.933486083984375,-1.063995361328125,-11.13043212890625,-9.869659423828125
1713358260928465200,7.943465087890625,-1.813385009765625,-11.611663818359375,-7.4634857177734375
1713358260938413800,7.953413818359375,-1.2986297607421875,-10.601318359375,-4.84661865234375
1713358260948393200,7.963393310546875,-0.78387451171875,-8.348373413085938,-3.2544708251953125
1713358260958372400,7.973372314453125,-0.051239013671875,-6.4306182861328125,-2.04541015625
1713358260968321000,7.983321044921875,1.2057037353515625,-5.4489898681640625,-2.2441253662109375
1713358260978300400,7.993300537109375,1.6175079345703125,-4.8241119384765625,-2.399749755859375
1713358260988279600,8.003279541015624,0.9830474853515625,-4.8935394287109375,-2.26806640625
1713358260998228500,8.013228515625,-0.1158905029296875,-5.36041259765625,-1.4875640869140625
1713358261008207600,8.02320751953125,-1.0089263916015625,-6.1552886962890625,-1.027862548828125
1713358261018186800,8.033186767578124,-2.0073089599609375,-7.13690185546875,-0.297637939453125
1713358261028135700,8.0431357421875,-2.373626708984375,-8.513565063476562,0.810882568359375
1713358261038114800,8.05311474609375,-1.8852081298828125,-9.631668090820312,1.2753448486328125
1713358261048094200,8.06309423828125,-1.200469970703125,-10.436111450195312,1.8020782470703125
1713358261058073300,8.0730732421875,-1.0472412109375,-10.941299438476562,2.249786376953125
1713358261068022000,8.08302197265625,-1.32257080078125,-10.900588989257812,2.5849761962890625
1713358261078001400,8.09300146484375,-1.4590301513671875,-10.1368408203125,2.8387603759765625
1713358261087980500,8.10298046875,-1.2698974609375,-9.109725952148438,2.5059661865234375
1713358261097929200,8.11292919921875,-1.169342041015625,-8.511184692382812,2.0965576171875
1713358261107908600,8.12290869140625,-1.40875244140625,-8.369918823242188,1.4716796875
1713358261117887700,8.1328876953125,-1.4638214111328125,-8.685958862304688,0.906646728515625
1713358261127836400,8.14283642578125,-1.1884918212890625,-8.887069702148438,1.05029296875
1713358261137815800,8.15281591796875,-0.695281982421875,-9.100143432617188,1.3280181884765625
1713358261147795000,8.162794921875,0.283935546875,-9.346755981445312,1.711090087890625
1713358261157743900,8.172743896484375,1.70849609375,-9.490402221679688,1.878692626953125
1713358261167723000,8.182722900390624,3.520904541015625,-9.205490112304688,1.636871337890625
1713358261177702100,8.1927021484375,5.1992340087890625,-8.6260986328125,1.624908447265625
1713358261187651000,8.202651123046875,5.7523040771484375,-8.070648193359375,1.835601806640625
1713358261197630200,8.212630126953124,5.48175048828125,-7.505615234375,2.5107574462890625
1713358261207609600,8.222609619140625,4.3899993896484375,-7.03155517578125,4.2274017333984375
1713358261217558300,8.232558349609375,2.8170013427734375,-7.4553375244140625,6.05657958984375
1713358261227537400,8.242537353515624,0.8465728759765625,-8.906219482421875,6.5665435791015625
1713358261237486000,8.252486083984374,-0.1278533935546875,-10.816787719726562,5.5418243408203125
1713358261247465500,8.262465576171875,-0.621063232421875,-12.59808349609375,3.600128173828125
1713358261257444600,8.272444580078124,0.236053466796875,-13.5174560546875,1.9145965576171875
1713358261267393500,8.2823935546875,2.105926513671875,-13.120010375976562,0.4876556396484375
1713358261277372700,8.29237255859375,2.74517822265625,-12.061782836914062,0.2697906494140625
1713358261287351800,8.302351806640624,1.59356689453125,-11.022689819335938,0.2889404296875
1713358261297300700,8.31230078125,1.0883941650390625,-10.108108520507812,-0.1827239990234375
1713358261307280000,8.32227978515625,0.0469207763671875,-9.250991821289062,-0.8123931884765625
1713358261317259300,8.33225927734375,-2.1222381591796875,-8.875091552734375,-0.793243408203125
1713358261327208000,8.3422080078125,-4.049560546875,-8.78411865234375,-0.783660888671875
1713358261337187000,8.35218701171875,-4.6744537353515625,-9.021148681640625,-1.7485198974609375
1713358261347166500,8.36216650390625,-5.04315185546875,-9.6412353515625,-4.0349884033203125
1713358261357145600,8.3721455078125,-6.252227783203125,-11.199859619140625,-6.572845458984375
1713358261367094300,8.38209423828125,-6.8795166015625,-14.30035400390625,-9.711639404296875
1713358261377073700,8.39207373046875,-5.9266204833984375,-18.676956176757812,-13.135345458984375
1713358261387052800,8.402052734375,-3.503692626953125,-22.75189208984375,-14.42822265625
1713358261397001500,8.41200146484375,-1.401580810546875,-24.705551147460938,-13.14971923828125
1713358261406980900,8.42198095703125,-3.37200927734375,-22.49810791015625,-8.39483642578125
1713358261416960000,8.4319599609375,-6.738250732421875,-18.913986206054688,-2.5027008056640625
1713358261426908700,8.44190869140625,-7.8036651611328125,-16.56048583984375,0.4709014892578125
1713358261436888000,8.45188818359375,-8.495590209960938,-14.4583740234375,2.4724578857421875
1713358261446867200,8.4618671875,-8.679946899414062,-12.399368286132812,3.959259033203125
1713358261456816000,8.471816162109375,-7.899444580078125,-10.843124389648438,5.290435791015625
1713358261466795300,8.481795166015624,-5.4358062744140625,-9.708282470703125,5.862640380859375
1713358261476744000,8.491743896484374,-3.77423095703125,-8.228668212890625,6.2720489501953125
1713358261486723300,8.501723388671875,-0.8772430419921875,-7.3811187744140625,6.4180908203125
1713358261496702500,8.511702392578124,2.2088775634765625,-7.2494354248046875,6.1858673095703125
1713358261506651100,8.521651123046874,3.350921630859375,-7.5774383544921875,3.80841064453125
1713358261516630500,8.531630615234375,3.848907470703125,-7.373931884765625,1.689544677734375
1713358261526609700,8.541609619140624,3.480194091796875,-6.433013916015625,0.44696044921875
1713358261536558300,8.551558349609374,3.056427001953125,-5.767425537109375,-0.73577880859375
1713358261546537700,8.561537841796875,2.7379913330078125,-4.7570648193359375,-1.1715240478515625
1713358261556486400,8.571486328125,1.4786529541015625,-4.129791259765625,-1.619232177734375
1713358261566465800,8.5814658203125,0.5927886962890625,-3.442657470703125,-1.6096649169921875
1713358261576445000,8.59144482421875,0.18817138671875,-2.841705322265625,-1.8658447265625
1713358261586424000,8.601424072265624,0.482666015625,-2.451446533203125,-1.870635986328125
1713358261596373000,8.611373046875,1.0668487548828125,-2.4370880126953125,-1.765289306640625
1713358261606352100,8.62135205078125,1.0716400146484375,-3.0452117919921875,-1.6982421875
1713358261616331500,8.63133154296875,0.90643310546875,-3.9262847900390625,-2.0118865966796875
1713358261626310700,8.641310546875,0.784332275390625,-4.706787109375,-2.330322265625
1713358261636259300,8.65125927734375,0.8178558349609375,-5.420257568359375,-2.19384765625
1713358261646238700,8.66123876953125,1.200927734375,-6.1840057373046875,-1.7485198974609375
1713358261656217900,8.6712177734375,1.481048583984375,-6.7490386962890625,-0.8243560791015625
1713358261666166500,8.68116650390625,1.6773681640625,-7.215911865234375,0.49005126953125
1713358261676146000,8.69114599609375,1.80426025390625,-7.7953033447265625,2.0343170166015625
1713358261686125000,8.701125,2.0652313232421875,-8.527938842773438,3.9640350341796875
1713358261696073700,8.71107373046875,2.369293212890625,-9.308441162109375,6.116424560546875
1713358261706053000,8.72105322265625,1.9646759033203125,-10.129653930664062,7.5505523681640625
1713358261716032300,8.7310322265625,0.3773193359375,-11.757720947265625,6.2983856201171875
1713358261725981200,8.740981201171875,-0.87005615234375,-13.558151245117188,2.982421875
1713358261735960300,8.750960205078124,-1.0998992919921875,-14.925247192382812,-0.0725860595703125
1713358261745939500,8.760939453125,0.6502532958984375,-15.384933471679688,-2.7612762451171875
1713358261755888400,8.770888427734375,3.5592041015625,-15.878143310546875,-6.3358154296875
1713358261765867500,8.780867431640624,5.1824798583984375,-15.00665283203125,-6.247222900390625
1713358261775816200,8.790816162109374,5.1345977783203125,-11.185501098632812,-1.501922607421875
1713358261785795600,8.800795654296875,4.631805419921875,-8.3411865234375,1.7757415771484375
1713358261795774700,8.810774658203124,3.0707855224609375,-8.283721923828125,4.4739990234375
1713358261805723400,8.820723388671874,1.55047607421875,-11.535049438476562,7.5864715576171875
1713358261815702800,8.830702880859375,-1.5045318603515625,-16.82623291015625,7.6942138671875
1713358261825682000,8.840681884765624,-6.7238922119140625,-27.10455322265625,0.9952239990234375
1713358261835630800,8.850630859375,-16.987823486328125,-36.75556945800781,-4.968719482421875
1713358261845610000,8.86060986328125,-16.070846557617188,-25.114959716796875,-6.2113189697265625
1713358261855558700,8.87055859375,-4.470947265625,-12.432876586914062,-6.663818359375
1713358261865538000,8.8805380859375,-0.70965576171875,-7.1153564453125,-3.0677337646484375
1713358261875517200,8.89051708984375,-0.937103271484375,-4.479339599609375,0.008819580078125
1713358261885496300,8.900496337890624,-1.042449951171875,-5.049163818359375,1.636871337890625
1713358261895445200,8.9104453125,-1.84210205078125,-7.19915771484375,1.43096923828125
1713358261905424400,8.92042431640625,-1.5787506103515625,-8.568634033203125,0.145294189453125
1713358261915403800,8.93040380859375,0.4539337158203125,-8.781723022460938,-1.9280853271484375
1713358261925352400,8.9403525390625,1.7970733642578125,-8.611740112304688,-4.142730712890625
1713358261935331600,8.95033154296875,2.4937896728515625,-8.712295532226562,-6.553680419921875
1713358261945311000,8.96031103515625,2.2088775634765625,-8.693130493164062,-7.9495086669921875
1713358261955259600,8.970259765625,0.4587249755859375,-8.693130493164062,-6.8026885986328125
1713358261965238800,8.98023876953125,-1.39678955078125,-8.420196533203125,-5.315887451171875
1713358261975218200,8.99021826171875,-1.655364990234375,-8.31964111328125,-3.604034423828125
1713358261985166800,9.000166748046874,-1.14300537109375,-8.175994873046875,-1.384613037109375
1713358261995146000,9.01014599609375,-0.4869842529296875,-7.405059814453125,-0.127655029296875
1713358262005125400,9.02012548828125,0.214508056640625,-6.782562255859375,-1.0302581787109375
1713358262015074000,9.030073974609374,0.3174591064453125,-6.0499420166015625,-1.6958465576171875
1713358262025053400,9.040053466796875,0.848968505859375,-5.1161956787109375,-1.851470947265625
1713358262035032600,9.050032470703124,1.2775421142578125,-4.6134185791015625,-1.7796478271484375
1713358262044981200,9.059981201171874,0.9519195556640625,-4.6349639892578125,-1.099700927734375
1713358262054960600,9.069960693359375,0.310272216796875,-5.2119598388671875,-0.393402099609375
1713358262064939800,9.079939697265624,-0.3912200927734375,-6.5431365966796875,-0.6184539794921875
1713358262074888400,9.089888427734374,-0.9658355712890625,-8.132888793945312,-0.52508544921875
1713358262084867800,9.099867919921875,-1.1717376708984375,-9.363510131835938,-0.3215789794921875
1713358262094847000,9.109846923828124,-1.4734039306640625,-10.132049560546875,-0.034271240234375
1713358262104795600,9.119795654296874,-1.7176055908203125,-10.572586059570312,0.8515777587890625
1713358262114775000,9.129775146484375,-1.7223968505859375,-10.83355712890625,1.5458984375
1713358262124754200,9.139754150390624,-1.6050872802734375,-10.673141479492188,2.2617645263671875
1713358262134703000,9.149703125,-1.38720703125,-10.196701049804688,3.082977294921875
1713358262144682200,9.15968212890625,-1.116668701171875,-9.399429321289062,3.2505645751953125
1713358262154631000,9.169630859375,-0.7982330322265625,-8.633285522460938,2.649627685546875
1713358262164610300,9.1796103515625,-0.4008026123046875,-8.190353393554688,2.407806396484375
1713358262174589400,9.18958935546875,-0.012939453125,-7.9748687744140625,2.5418853759765625
1713358262184568800,9.19956884765625,0.1115570068359375,-7.7043304443359375,2.8220062255859375
1713358262194548000,9.2095478515625,0.118743896484375,-7.86474609375,2.4197845458984375
1713358262204496600,9.21949658203125,0.1522674560546875,-8.417800903320312,1.8020782470703125
1713358262214476000,9.22947607421875,0.669403076171875,-8.894256591796875,1.3112640380859375
1713358262224455200,9.239455078125,2.0341033935546875,-9.131271362304688,0.7845458984375
1713358262234403800,9.24940380859375,3.499359130859375,-8.915802001953125,0.609771728515625
1713358262244383200,9.25938330078125,4.2056427001953125,-8.7003173828125,0.7773590087890625
1713358262254362400,9.2693623046875,3.89678955078125,-8.6260986328125,2.053466796875
1713358262264311000,9.27931103515625,2.867279052734375,-8.7003173828125,3.4397125244140625
1713358262274290400,9.28929052734375,1.4307708740234375,-9.179153442382812,3.7030792236328125
1713358262284269600,9.29926953125,0.59039306640625,-10.65399169921875,3.147613525390625
1713358262294218500,9.309218505859375,0.44195556640625,-12.361053466796875,1.9648895263671875
1713358262304197600,9.31919775390625,0.853759765625,-13.503082275390625,1.0670623779296875
1713358262314176800,9.3291767578125,1.51934814453125,-14.326690673828125,0.4709014892578125
1713358262324125700,9.339125732421875,1.3158416748046875,-14.252471923828125,0.875518798828125
1713358262334104800,9.349104736328124,0.161834716796875,-13.184661865234375,1.256195068359375
1713358262344053500,9.359053466796874,-1.540435791015625,-11.750534057617188,1.07183837890625
1713358262354033000,9.369032958984375,-2.7207794189453125,-10.778488159179688,0.432586669921875
1713358262364012000,9.379011962890624,-3.8149261474609375,-9.847137451171875,0.1285247802734375
1713358262373960700,9.388960693359374,-4.5164337158203125,-9.023529052734375,-0.1252593994140625
1713358262383940000,9.398940185546875,-4.755859375,-8.56146240234375,-2.0430145263671875
1713358262393919200,9.408919189453124,-5.0455474853515625,-8.786514282226562,-4.94000244140625
1713358262403868000,9.418867919921874,-5.6512908935546875,-9.875869750976562,-7.303070068359375
1713358262413847300,9.428847412109375,-5.411865234375,-12.171905517578125,-9.132247924804688
1713358262423826400,9.438826416015624,-4.190826416015625,-15.34661865234375,-10.973388671875
1713358262433775400,9.448775390625,-2.0001220703125,-18.576400756835938,-11.595870971679688
1713358262443754500,9.45875439453125,-0.2427825927734375,-20.922714233398438,-10.74114990234375
1713358262453733600,9.468733642578124,-1.00653076171875,-20.91314697265625,-7.6598052978515625
1713358262463682600,9.4786826171875,-4.0352020263671875,-18.291488647460938,-2.505096435546875
1713358262473661700,9.48866162109375,-6.8100738525390625,-16.1055908203125,-0.3096160888671875
1713358262483641000,9.49864111328125,-8.684738159179688,-14.580474853515625,1.095794677734375
1713358262493620200,9.5086201171875,-9.453277587890625,-13.067337036132812,2.067840576171875
1713358262503569000,9.51856884765625,-9.165969848632812,-11.7960205078125,2.920166015625
1713358262513548300,9.52854833984375,-8.028732299804688,-10.340347290039062,4.5123138427734375
1713358262523527400,9.53852734375,-6.1612548828125,-9.4066162109375,4.7349700927734375
1713358262533476000,9.54847607421875,-4.518829345703125,-8.295700073242188,4.4548492431640625
1713358262543455500,9.55845556640625,-0.6450042724609375,-7.203948974609375,5.3526763916015625
1713358262553434600,9.5684345703125,2.675750732421875,-6.3085174560546875,4.852294921875
1713358262563383300,9.57838330078125,5.634979248046875,-6.0762786865234375,3.3247833251953125
1713358262573362700,9.58836279296875,5.421905517578125,-5.7650299072265625,1.557861328125
1713358262583341800,9.598341796875,3.9135589599609375,-4.912689208984375,0.959320068359375
1713358262593290800,9.608290771484375,2.22802734375,-4.3069610595703125,0.832427978515625
1713358262603270000,9.618269775390624,1.4571075439453125,-4.29498291015625,0.0064239501953125
1713358262613218600,9.628218505859374,0.6143341064453125,-3.993316650390625,-0.520294189453125
1713358262623198000,9.638197998046875,-0.0799713134765625,-3.6102447509765625,-1.0182952880859375
1713358262633177000,9.648177001953124,0.0684661865234375,-3.2870330810546875,-1.6479644775390625
1713358262643125800,9.658125732421874,0.10198974609375,-3.231964111328125,-1.6790924072265625
1713358262653105200,9.668105224609375,0.4706878662109375,-3.71319580078125,-1.554595947265625
1713358262663084300,9.678084228515624,0.916015625,-4.25189208984375,-1.6240234375
1713358262673033000,9.688032958984374,1.1051483154296875,-4.6924285888671875,-1.7317657470703125
1713358262683012400,9.698012451171875,1.2368316650390625,-5.144927978515625,-1.67669677734375
1713358262692991500,9.707991455078124,1.509765625,-5.8033294677734375,-1.3989715576171875
1713358262702940400,9.7179404296875,1.840179443359375,-6.62933349609375,-1.0446319580078125
1713358262712919600,9.72791943359375,1.713287353515625,-7.1776123046875,-0.2186279296875
1713358262722868200,9.7378681640625,1.409210205078125,-7.6133575439453125,1.1724090576171875
1713358262732847600,9.74784765625,1.5792083740234375,-8.187957763671875,2.9010162353515625
1713358262742826800,9.75782666015625,2.2567596435546875,-8.748199462890625,5.237762451171875
1713358262752806000,9.767805908203124,3.2695159912109375,-9.420974731445312,7.426055908203125
1713358262762754800,9.7777548828125,2.7954559326171875,-10.7928466796875,7.478729248046875
1713358262772734000,9.78773388671875,1.301483154296875,-12.021072387695312,6.0350189208984375
1713358262782713300,9.79771337890625,-0.53009033203125,-13.618011474609375,2.1037445068359375
1713358262792662000,9.807662109375,-2.3137664794921875,-14.819900512695312,-0.8554840087890625
1713358262802641200,9.81764111328125,-0.24517822265625,-15.667449951171875,-2.9145050048828125
1713358262812620500,9.82762060546875,1.6031494140625,-17.288314819335938,-7.79388427734375
1713358262822569200,9.8375693359375,3.4227447509765625,-17.29071044921875,-8.00457763671875
1713358262832548400,9.84754833984375,3.7244110107421875,-13.218185424804688,-1.7844390869140625
1713358262842527700,9.85752783203125,3.5544281005859375,-10.100921630859375,2.2354278564453125
1713358262852476400,9.867476318359374,3.331756591796875,-12.760879516601562,3.1715545654296875
1713358262862455600,9.87745556640625,1.3325958251953125,-19.7830810546875,2.312042236328125
1713358262872435000,9.88743505859375,-3.3336944580078125,-26.537124633789062,-1.983154296875
1713358262882383600,9.897383544921874,-7.6336822509765625,-25.047927856445312,-3.8673858642578125
1713358262892363000,9.907363037109375,-9.869873046875,-13.270843505859375,-2.536224365234375
1713358262902342100,9.917342041015624,-4.2195587158203125,-8.4776611328125,-1.6982421875
1713358262912290800,9.927290771484374,-2.613037109375,-6.160064697265625,0.7246856689453125
1713358262922270200,9.937270263671875,-3.2642669677734375,-6.0044403076171875,2.60174560546875
1713358262932249300,9.947249267578124,-2.3496856689453125,-8.544692993164062,3.6049041748046875
1713358262942198000,9.957197998046874,-2.438262939453125,-12.17669677734375,3.5043487548828125
1713358262952177400,9.967177490234375,-3.113433837890625,-12.751312255859375,1.921783447265625
1713358262962156500,9.977156494140624,-2.7064208984375,-11.049026489257812,0.801300048828125
1713358262972105200,9.987105224609374,-1.6649322509765625,-9.581390380859375,-1.0494232177734375
1713358262982084600,9.997084716796875,-0.235595703125,-8.697921752929688,-3.414886474609375
1713358262992033300,10.007033203125,1.102752685546875,-8.379501342773438,-5.622344970703125
1713358263002012700,10.0170126953125,1.6175079345703125,-8.525543212890625,-6.6231231689453125
1713358263011991800,10.02699169921875,0.9998016357421875,-8.36273193359375,-6.9774627685546875
1713358263021940500,10.0369404296875,-0.388824462890625,-7.9581146240234375,-7.039703369140625
1713358263031919900,10.046919921875,-1.0041351318359375,-7.23028564453125,-6.1227264404296875
1713358263041899000,10.05689892578125,-0.398406982421875,-6.5694732666015625,-4.44439697265625
1713358263051878400,10.06687841796875,0.6717987060546875,-5.8129119873046875,-3.0318145751953125
1713358263061857500,10.076857421875,1.208099365234375,-5.22393798828125,-2.2489166259765625
1713358263071806200,10.08680615234375,1.0357208251953125,-4.891143798828125,-2.009490966796875
1713358263081785600,10.09678564453125,1.050079345703125,-4.848052978515625,-1.7054290771484375
1713358263091764700,10.1067646484375,1.08599853515625,-5.1425323486328125,-1.3558807373046875
1713358263101713400,10.11671337890625,0.437164306640625,-5.767425537109375,-0.848297119140625
1713358263111692800,10.12669287109375,-0.5396575927734375,-6.7442626953125,-0.2258148193359375
1713358263121641500,10.136641357421874,-1.0975189208984375,-7.891082763671875,0.123748779296875
1713358263131620600,10.14662060546875,-1.597900390625,-9.0474853515625,0.1117706298828125
1713358263141600000,10.15660009765625,-2.05279541015625,-9.72503662109375,-0.086944580078125
1713358263151548700,10.166548583984374,-2.1868743896484375,-10.04107666015625,0.3966827392578125
1713358263161528000,10.176528076171875,-2.4454498291015625,-10.333160400390625,1.1005706787109375
1713358263171507200,10.186507080078124,-2.5100860595703125,-10.57977294921875,1.5698394775390625
1713358263181456000,10.196455810546874,-2.5819244384765625,-10.81439208984375,2.197113037109375
1713358263191435300,10.206435302734375,-2.60107421875,-11.005935668945312,2.41259765625
1713358263201414400,10.216414306640624,-2.4933319091796875,-10.996353149414062,1.962493896484375
1713358263211363000,10.226363037109374,-2.15814208984375,-10.840728759765625,1.3208465576171875
1713358263221342500,10.236342529296875,-1.4063720703125,-10.395416259765625,0.9473419189453125
1713358263231321600,10.246321533203124,-0.2068634033203125,-9.722640991210938,0.9305877685546875
1713358263241270300,10.256270263671874,1.1410675048828125,-9.03790283203125,0.92340087890625
1713358263251249700,10.266249755859375,2.4147796630859375,-8.2550048828125,0.7821502685546875
1713358263261198300,10.2761982421875,3.74835205078125,-7.42181396484375,0.6073760986328125
1713358263271177500,10.286177490234374,5.022064208984375,-6.856781005859375,0.62652587890625
1713358263281156900,10.296156982421875,6.599853515625,-6.27020263671875,0.6935577392578125
1713358263291105500,10.30610546875,6.2239532470703125,-5.8177032470703125,1.5530853271484375
1713358263301085000,10.3160849609375,3.8943939208984375,-5.662078857421875,3.12127685546875
1713358263311064000,10.32606396484375,1.7396240234375,-6.2295074462890625,4.9696044921875
1713358263321043200,10.336043212890624,0.341400146484375,-8.075439453125,6.2576904296875
1713358263330992000,10.3459921875,-0.6665496826171875,-10.790451049804688,5.59210205078125
1713358263340971300,10.35597119140625,-1.6649322509765625,-13.318740844726562,3.79644775390625
1713358263350950700,10.36595068359375,-1.063995361328125,-15.444778442382812,1.488433837890625
1713358263360899300,10.3758994140625,0.9184112548828125,-16.737655639648438,0.04473876953125
1713358263370878500,10.38587841796875,1.4475250244140625,-15.988265991210938,0.41583251953125
1713358263380857900,10.39585791015625,0.0852203369140625,-13.754486083984375,1.392669677734375
1713358263390806500,10.405806640625,-0.6282501220703125,-11.11846923828125,1.330413818359375
1713358263400785700,10.41578564453125,-1.2196197509765625,-8.760177612304688,0.74383544921875
1713358263410765000,10.42576513671875,-2.8572540283203125,-7.067474365234375,0.2745819091796875
1713358263420713700,10.435713623046874,-4.5260162353515625,-5.9972686767578125,-0.12286376953125
1713358263430692900,10.44569287109375,-4.317718505859375,-5.32928466796875,-1.576141357421875
1713358263440672300,10.45567236328125,-3.9729461669921875,-5.2909698486328125,-4.0661163330078125
1713358263450621000,10.465620849609374,-4.877960205078125,-6.6484832763671875,-6.383697509765625
1713358263460600300,10.475600341796875,-5.141326904296875,-9.531112670898438,-8.2056884765625
1713358263470579500,10.485579345703124,-3.84844970703125,-14.3218994140625,-10.745941162109375
1713358263480528100,10.495528076171874,-1.2244110107421875,-19.83575439453125,-13.796142578125
1713358263490507500,10.505507568359375,0.753204345703125,-24.691192626953125,-14.928604125976562
1713358263500486700,10.515486572265624,-0.534881591796875,-26.362350463867188,-11.066757202148438
1713358263510435300,10.525435302734374,-4.5475616455078125,-22.60345458984375,-4.090057373046875
1713358263520414700,10.535414794921875,-8.81402587890625,-18.71527099609375,-0.8818206787109375
1713358263530393900,10.545393798828124,-11.5601806640625,-15.815887451171875,1.3663330078125
1713358263540342500,10.555342529296874,-11.7947998046875,-13.522247314453125,3.068603515625
1713358263550322000,10.565322021484375,-10.691085815429688,-11.750534057617188,3.9664306640625
1713358263560270600,10.5752705078125,-8.71826171875,-10.055435180664062,5.7429351806640625
1713358263570250000,10.58525,-6.336029052734375,-9.00677490234375,5.6256103515625
1713358263580229000,10.59522900390625,-3.8197174072265625,-7.9365692138671875,5.0821380615234375
1713358263590177800,10.605177734375,0.5377197265625,-7.0962066650390625,5.62322998046875
1713358263600157200,10.6151572265625,3.8201751708984375,-6.634124755859375,5.4268951416015625
1713358263610136300,10.62513623046875,5.9174957275390625,-6.7107391357421875,2.8315887451171875
1713358263620115700,10.63511572265625,5.1920623779296875,-6.57666015625,0.758209228515625
1713358263630064400,10.645064453125,2.7044830322265625,-5.9015045166015625,-0.297637939453125
1713358263640043500,10.65504345703125,1.291900634765625,-5.259857177734375,-1.226593017578125
1713358263650023000,10.66502294921875,1.588775634765625,-4.7403106689453125,-1.9903411865234375
1713358263659971600,10.6749716796875,0.8824920654296875,-4.151336669921875,-2.32073974609375
1713358263669950700,10.68495068359375,0.19775390625,-3.4929351806640625,-2.4284820556640625
1713358263679930000,10.69493017578125,0.4515380859375,-3.10986328125,-2.6822662353515625
1713358263689878800,10.704878662109374,0.2599945068359375,-2.87762451171875,-1.99273681640625
1713358263699858000,10.71485791015625,0.17620849609375,-3.061981201171875,-1.6312103271484375
1713358263709837300,10.72483740234375,0.437164306640625,-3.433074951171875,-1.480377197265625
1713358263719786000,10.734785888671874,0.669403076171875,-3.9909210205078125,-1.5354461669921875
1713358263729765000,10.74476513671875,0.6717987060546875,-4.6708831787109375,-1.597686767578125
1713358263739744500,10.75474462890625,0.784332275390625,-5.293365478515625,-1.4157257080078125
1713358263749693200,10.764693115234374,1.2368316650390625,-5.884735107421875,-0.740570068359375
1713358263759672600,10.774672607421875,1.6893310546875,-6.56707763671875,0.4445648193359375
1713358263769651700,10.784651611328124,2.105926513671875,-7.531951904296875,2.18035888671875
1713358263779600400,10.794600341796874,2.508148193359375,-8.822418212890625,4.4955596923828125
1713358263789579800,10.804579833984375,3.0372772216796875,-10.15838623046875,6.96636962890625
1713358263799559000,10.814558837890624,2.6494140625,-11.685882568359375,7.7444915771484375
1713358263809507600,10.824507568359374,0.5760345458984375,-12.775253295898438,6.1595306396484375
1713358263819487000,10.834487060546875,-1.31298828125,-13.685043334960938,2.6687774658203125
1713358263829435600,10.844435546875,-2.732757568359375,-15.044952392578125,1.9457244873046875
1713358263839414800,10.854414794921874,-2.0432281494140625,-15.159881591796875,-0.6807098388671875
1713358263849394200,10.864394287109375,-0.7024688720703125,-15.308319091796875,-5.2512359619140625
1713358263859342800,10.8743427734375,0.9782562255859375,-15.384933471679688,-6.5177764892578125
1713358263869322200,10.884322265625,5.3572540283203125,-13.35943603515625,-2.5841064453125
1713358263879301400,10.89430126953125,7.6293487548828125,-10.77130126953125,1.5147705078125
1713358263889280500,10.904280517578124,4.8353271484375,-9.236618041992188,3.3223876953125
1713358263899229400,10.9142294921875,2.2400054931640625,-11.803207397460938,5.5585784912109375
1713358263909208600,10.92420849609375,-0.8030242919921875,-17.664215087890625,5.0821380615234375
1713358263919188000,10.93418798828125,-3.4557952880859375,-23.508453369140625,0.92340087890625
1713358263929136600,10.94413671875,-8.119705200195312,-27.071029663085938,-5.6726226806640625
1713358263939115800,10.95411572265625,-10.348709106445312,-18.559646606445312,-6.812255859375
1713358263949095200,10.96409521484375,-5.3304595947265625,-9.11212158203125,-4.7436676025390625
1713358263959043800,10.9740439453125,-2.0288543701171875,-5.7482757568359375,-0.9081573486328125
1713358263969023000,10.98402294921875,-1.2890472412109375,-4.3452606201171875,0.432586669921875
1713358263979002400,10.99400244140625,-2.1030731201171875,-5.5016632080078125,2.06304931640625
1713358263988951000,11.003950927734374,-2.5100860595703125,-8.980438232421875,3.590545654296875
1713358263998930200,11.01393017578125,-1.878021240234375,-12.085723876953125,3.506744384765625
1713358264008909600,11.02390966796875,-2.1916656494140625,-12.423309326171875,2.702301025390625
1713358264018858200,11.033858154296874,-1.9163360595703125,-11.271697998046875,0.67919921875
1713358264028837600,11.043837646484375,-0.3289794921875,-10.057830810546875,-2.63677978515625
1713358264038816800,11.053816650390624,1.4954071044921875,-9.104934692382812,-5.3781280517578125
1713358264048765400,11.063765380859374,1.9120025634765625,-9.267745971679688,-7.525726318359375
1713358264058744800,11.073744873046875,1.23443603515625,-9.796859741210938,-7.9590911865234375
1713358264068724000,11.083723876953124,0.1283111572265625,-9.521530151367188,-7.75079345703125
1713358264078672600,11.093672607421874,-0.7551422119140625,-8.6260986328125,-6.59918212890625
1713358264088652000,11.103652099609375,-0.661773681640625,-7.9365692138671875,-4.2552490234375
1713358264098600700,11.1136005859375,-0.2379913330078125,-7.3811187744140625,-1.6790924072265625
1713358264108579800,11.123579833984374,-0.4654388427734375,-7.1536712646484375,-0.0414581298828125
1713358264118559200,11.133559326171875,-0.42474365234375,-7.09381103515625,0.126129150390625
1713358264128508000,11.1435078125,-0.012939453125,-7.0483245849609375,-0.0390625
1713358264138487000,11.153487060546874,0.25042724609375,-7.0698699951171875,-0.11328125
1713358264148466400,11.163466552734375,-0.2547607421875,-7.2757720947265625,-0.2066650390625
1713358264158415000,11.1734150390625,-0.8197784423828125,-7.6349029541015625,-0.3000335693359375
1713358264168394500,11.18339453125,-1.075958251953125,-8.03472900390625,-0.3048248291015625
1713358264178373600,11.19337353515625,-1.08074951171875,-8.463287353515625,-0.34552001953125
1713358264188352800,11.203352783203124,-1.24835205078125,-8.798477172851562,-0.561004638671875
1713358264198301700,11.2133017578125,-1.8397216796875,-9.138458251953125,-0.63043212890625
1713358264208280800,11.22328076171875,-2.246734619140625,-9.595748901367188,-0.9967498779296875
1713358264218260200,11.23326025390625,-1.8588714599609375,-9.8519287109375,-1.2505340576171875
1713358264228209000,11.243208984375,-1.435089111328125,-10.165573120117188,-0.6328277587890625
1713358264238188000,11.25318798828125,-1.2196197509765625,-10.22064208984375,0.20513916015625
1713358264248167400,11.26316748046875,-1.1789093017578125,-9.832778930664062,0.73187255859375
1713358264258116000,11.2731162109375,-1.032867431640625,-9.162399291992188,1.244232177734375
1713358264268095200,11.28309521484375,-0.8293609619140625,-8.642852783203125,1.6584320068359375
1713358264278074600,11.29307470703125,-0.3577117919921875,-8.247817993164062,1.6536407470703125
1713358264288023300,11.303023193359374,-0.091949462890625,-7.934173583984375,1.3902740478515625
1713358264298002400,11.31300244140625,0.350982666015625,-7.3236541748046875,1.383087158203125
1713358264307981800,11.32298193359375,1.2631683349609375,-6.6365203857421875,1.0263519287109375
1713358264317930500,11.332930419921874,2.9438934326171875,-5.8272705078125,0.844390869140625
1713358264327910000,11.342909912109375,4.8664398193359375,-5.4705352783203125,0.4541473388671875
1713358264337889000,11.352888916015624,5.749908447265625,-5.2047882080078125,0.765380859375
1713358264347837700,11.362837646484374,5.2782440185546875,-5.2430877685546875,1.318450927734375
1713358264357817000,11.372817138671875,3.156982421875,-6.5096282958984375,2.6041412353515625
1713358264367796200,11.382796142578124,0.920806884765625,-8.602157592773438,4.193878173828125
1713358264377745000,11.392744873046874,0.0110015869140625,-11.168746948242188,4.964813232421875
1713358264387724300,11.402724365234375,-0.5659942626953125,-13.261276245117188,4.99114990234375
1713358264397673000,11.4126728515625,-0.8365478515625,-15.147903442382812,3.9089813232421875
1713358264407652000,11.422652099609374,-0.1781463623046875,-16.143890380859375,1.7805328369140625
1713358264417631500,11.432631591796875,0.5975799560546875,-15.56689453125,1.4477386474609375
1713358264427580200,11.442580078125,0.7244720458984375,-13.5916748046875,2.1396636962890625
1713358264437559600,11.4525595703125,-0.0272979736328125,-11.736160278320312,2.5179443359375
1713358264447538700,11.46253857421875,-0.6067047119140625,-10.0745849609375,1.984039306640625
1713358264457517800,11.472517822265624,-1.06878662109375,-8.527938842773438,1.3160552978515625
1713358264467466800,11.482466796875,-2.4622039794921875,-7.2494354248046875,0.315277099609375
1713358264477446000,11.49244580078125,-3.7957763671875,-6.717926025390625,-0.68310546875
1713358264487425300,11.50242529296875,-3.992095947265625,-6.52398681640625,-1.861053466796875
1713358264497374000,11.5123740234375,-3.7071990966796875,-6.856781005859375,-4.2360992431640625
1713358264507353000,11.52235302734375,-3.975341796875,-8.274154663085938,-7.2671661376953125
1713358264517332500,11.53233251953125,-4.3895416259765625,-10.83355712890625,-9.685302734375
1713358264527281200,11.54228125,-4.2267303466796875,-14.633148193359375,-11.962188720703125
1713358264537260300,11.55226025390625,-2.6465606689453125,-18.772720336914062,-14.638900756835938
1713358264547239700,11.56223974609375,-1.54522705078125,-22.390365600585938,-14.3348388671875
1713358264557188400,11.572188232421874,-1.01611328125,-23.32171630859375,-11.356460571289062
1713358264567167500,11.58216748046875,-1.8804168701171875,-20.331344604492188,-5.5672760009765625
1713358264577147000,11.59214697265625,-4.7079620361328125,-17.39605712890625,-1.5474090576171875
1713358264587095600,11.602095458984374,-7.9688720703125,-15.973907470703125,0.284149169921875
1713358264597074700,11.61207470703125,-9.644805908203125,-14.625961303710938,2.00079345703125
1713358264607054000,11.62205419921875,-9.630447387695312,-12.976364135742188,3.5498504638671875
1713358264617002800,11.632002685546874,-8.21307373046875,-11.587722778320312,5.175506591796875
1713358264626982100,11.641982177734375,-7.1045684814453125,-10.266128540039062,5.556182861328125
1713358264636961300,11.651961181640624,-5.8907012939453125,-8.915802001953125,5.290435791015625
1713358264646910000,11.661909912109374,-3.1014556884765625,-7.9461517333984375,5.1300201416015625
1713358264656889300,11.671889404296875,0.1786041259765625,-6.6053924560546875,6.126007080078125
1713358264666838000,11.681838134765625,3.50653076171875,-5.726715087890625,4.9983367919921875
1713358264676817200,11.691817138671874,4.9406585693359375,-5.5543365478515625,2.46527099609375
1713358264686796500,11.701796630859375,4.038055419921875,-5.1114044189453125,1.055084228515625
1713358264696745200,11.7117451171875,3.082763671875,-4.4458160400390625,0.442169189453125
1713358264706724400,11.721724365234374,2.328582763671875,-4.340484619140625,-0.7022552490234375
1713358264716703700,11.731703857421875,1.8712921142578125,-4.2925872802734375,-2.071746826171875
1713358264726652400,11.74165234375,1.0668487548828125,-3.828125,-2.548187255859375
1713358264736631800,11.7516318359375,0.4850616455078125,-3.50250244140625,-2.97674560546875
1713358264746611000,11.76161083984375,0.3964691162109375,-3.4378662109375,-3.1778564453125
1713358264756559600,11.7715595703125,0.437164306640625,-3.7467193603515625,-2.969573974609375
1713358264766539000,11.7815390625,0.647857666015625,-4.2973785400390625,-2.452423095703125
1713358264776518100,11.79151806640625,0.50421142578125,-4.943817138671875,-2.0166778564453125
1713358264786497500,11.80149755859375,0.4491424560546875,-5.5184173583984375,-1.9520263671875
1713358264796446200,11.8114462890625,0.36773681640625,-5.9565582275390625,-1.786834716796875
1713358264806425300,11.82142529296875,0.135498046875,-6.411468505859375,-1.4300994873046875
1713358264816404700,11.83140478515625,0.1522674560546875,-7.1967620849609375,-1.1595458984375
1713358264826353400,11.841353515625,0.5066070556640625,-8.092193603515625,-0.2306060791015625
1713358264836332500,11.85133251953125,1.2583770751953125,-9.1767578125,1.330413818359375
1713358264846312000,11.86131201171875,2.273529052734375,-9.856719970703125,4.002349853515625
1713358264856260600,11.871260498046874,3.2240142822265625,-10.5390625,6.66949462890625
1713358264866239700,11.88123974609375,3.1905059814453125,-11.793624877929688,7.8426513671875
1713358264876219100,11.89121923828125,2.04608154296875,-13.318740844726562,8.311904907226562
1713358264886167800,11.901167724609374,1.200927734375,-14.8486328125,7.8546142578125
1713358264896147200,11.911147216796875,-0.429534912109375,-16.009811401367188,5.9727783203125
1713358264906126300,11.921126220703124,-4.1884307861328125,-16.376129150390625,3.2601470947265625
1713358264916075000,11.931074951171874,-3.6593017578125,-16.227691650390625,0.0638885498046875
1713358264926054400,11.941054443359375,-0.218841552734375,-16.30670166015625,-2.8139495849609375
1713358264936003000,11.951003173828125,4.0859375,-15.097625732421875,-5.3494110107421875
1713358264945982200,11.960982177734374,5.455413818359375,-12.253311157226562,-6.2855377197265625
1713358264955961600,11.970961669921875,4.768280029296875,-10.491180419921875,-3.235321044921875
1713358264965910300,11.98091015625,4.5001373291015625,-11.2261962890625,1.7278594970703125
1713358264975889400,11.990889404296874,4.7850341796875,-12.751312255859375,4.356689453125
1713358264985868800,12.000868896484375,2.6901092529296875,-15.200576782226562,2.5514678955078125
1713358264995817500,12.0108173828125,-4.0806884765625,-18.7056884765625,-2.2129974365234375
1713358265005796900,12.020796875,-10.719802856445312,-21.50689697265625,-3.83148193359375
1713358265015776000,12.03077587890625,-15.19696044921875,-17.621109008789062,-4.935211181640625
1713358265025724700,12.040724609375,-11.7828369140625,-12.368240356445312,-3.3957366943359375
1713358265035704000,12.0507041015625,-5.9792938232421875,-9.478439331054688,1.05029296875
1713358265045683200,12.06068310546875,-0.8652801513671875,-6.993255615234375,1.9553070068359375
1713358265055662300,12.070662353515624,1.6103363037109375,-5.34124755859375,1.557861328125
1713358265065611300,12.080611328125,1.48822021484375,-4.6134185791015625,1.8978424072265625
1713358265075590400,12.09059033203125,0.097198486328125,-4.575103759765625,0.6193389892578125
1713358265085569800,12.10056982421875,-0.4606475830078125,-4.225555419921875,0.31048583984375
1713358265095518500,12.1105185546875,0.2911224365234375,-5.2454833984375,0.5020294189453125
1713358265105497600,12.12049755859375,1.1817626953125,-7.290130615234375,-1.2888336181640625
1713358265115477000,12.13047705078125,0.827423095703125,-9.2821044921875,-3.36700439453125
1713358265125425700,12.14042578125,-0.8987884521484375,-10.81439208984375,-5.4188385009765625
1713358265135404800,12.15040478515625,-2.8093719482421875,-11.714614868164062,-6.594390869140625
1713358265145384200,12.16038427734375,-3.2427215576171875,-12.047409057617188,-5.241668701171875
1713358265155332900,12.170332763671874,-2.438262939453125,-11.233383178710938,-2.526641845703125
1713358265165312000,12.18031201171875,-0.7862701416015625,-8.9229736328125,-1.52825927734375
1713358265175291400,12.19029150390625,0.927978515625,-6.897491455078125,-1.99273681640625
1713358265185240000,12.200239990234374,1.646240234375,-5.7482757568359375,-2.32073974609375
1713358265195219500,12.210219482421875,1.4571075439453125,-4.9150848388671875,-2.3063812255859375
1713358265205198600,12.220198486328124,1.356536865234375,-4.6756591796875,-2.421295166015625
1713358265215147300,12.230147216796874,0.741241455078125,-5.10662841796875,-1.908935546875
1713358265225126700,12.240126708984375,-0.324188232421875,-6.1768341064453125,-0.9249267578125
1713358265235075300,12.250075439453125,-1.1837005615234375,-7.7953033447265625,0.4876556396484375
1713358265245054500,12.260054443359374,-1.5308685302734375,-9.610122680664062,1.656036376953125
1713358265255033900,12.270033935546875,-1.028076171875,-10.898193359375,2.407806396484375
1713358265264982500,12.279982421875,-0.9179534912109375,-11.116073608398438,2.8435516357421875
1713358265274961700,12.289961669921874,-1.1884918212890625,-10.642013549804688,2.982421875
1713358265284941000,12.299941162109375,-1.593109130859375,-9.880661010742188,2.697509765625
1713358265294889700,12.3098896484375,-1.940277099609375,-9.03790283203125,2.302459716796875
1713358265304869000,12.319869140625,-2.1485595703125,-8.56146240234375,1.6344757080078125
1713358265314848300,12.32984814453125,-2.3927764892578125,-8.590179443359375,0.865936279296875
1713358265324797000,12.339796875,-2.45263671875,-9.057052612304688,0.209930419921875
1713358265334776300,12.3497763671875,-2.268280029296875,-9.51434326171875,0.0375518798828125
1713358265344755500,12.35975537109375,-1.9019622802734375,-9.950088500976562,0.2290802001953125
1713358265354734800,12.36973486328125,-1.5260772705078125,-10.302047729492188,0.5187835693359375
1713358265364683500,12.37968359375,-1.1046905517578125,-10.32598876953125,1.0694580078125
1713358265374662700,12.38966259765625,0.3749237060546875,-10.007553100585938,0.77496337890625
1713358265384642000,12.39964208984375,2.8888397216796875,-9.224655151367188,0.4086456298828125
1713358265394590700,12.4095908203125,5.1441650390625,-8.08740234375,0.4134368896484375
1713358265404569900,12.41956982421875,6.393951416015625,-6.9381866455078125,0.6025848388671875
1713358265414549200,12.42954931640625,6.41070556640625,-5.6812286376953125,0.609771728515625
1713358265424498000,12.439497802734374,3.9949493408203125,-4.9486083984375,1.1460723876953125
1713358265434477000,12.44947705078125,1.756378173828125,-5.4561767578125,1.9145965576171875
1713358265444456400,12.45945654296875,0.2049407958984375,-7.82403564453125,2.7166595458984375
1713358265454405000,12.469405029296874,-1.0041351318359375,-10.87664794921875,2.58258056640625
1713358265464384500,12.479384521484375,-0.9730072021484375,-13.49591064453125,1.64166259765625
1713358265474333200,12.489333251953125,-0.2643280029296875,-15.140716552734375,-0.0390625
1713358265484312300,12.499312255859374,0.4850616455078125,-15.626739501953125,-0.6328277587890625
1713358265494291700,12.509291748046875,0.8848876953125,-14.788772583007812,0.4756927490234375
1713358265504240400,12.519240478515625,0.087615966796875,-13.108047485351562,2.127685546875
1713358265514219500,12.529219482421874,-0.853302001953125,-11.113677978515625,2.364715576171875
1713358265524199000,12.539198974609375,-1.4853668212890625,-9.219863891601562,2.2330322265625
1713358265534147600,12.549147705078125,-2.806976318359375,-8.017974853515625,2.06304931640625
1713358265544126700,12.559126708984374,-4.0782928466796875,-7.584625244140625,1.74700927734375
1713358265554106000,12.569106201171875,-4.26983642578125,-7.2542266845703125,0.3871002197265625
1713358265564054800,12.5790546875,-3.6760711669921875,-7.1800079345703125,-2.303985595703125
1713358265574034000,12.589033935546874,-3.9298553466796875,-7.8527679443359375,-5.52178955078125
1713358265584013300,12.599013427734375,-4.5882568359375,-9.452102661132812,-8.272720336914062
1713358265593962000,12.6089619140625,-4.95697021484375,-12.691452026367188,-12.038803100585938
1713358265603941400,12.61894140625,-3.8556365966796875,-16.361770629882812,-14.753829956054688
1713358265613920500,12.62892041015625,-2.22039794921875,-19.512527465820312,-15.6348876953125
1713358265623899600,12.638899658203124,-1.8397216796875,-21.111862182617188,-13.66925048828125
1713358265633848600,12.6488486328125,-2.2515106201171875,-19.601119995117188,-7.8657073974609375
1713358265643827700,12.65882763671875,-3.4701690673828125,-16.989044189453125,-2.1555328369140625
1713358265653807000,12.66880712890625,-6.1851959228515625,-15.88531494140625,0.9425506591796875
1713358265663755800,12.678755859375,-8.246597290039062,-15.2939453125,3.1811370849609375
1713358265673735000,12.68873486328125,-8.691925048828125,-14.171066284179688,4.931304931640625
1713358265683714300,12.69871435546875,-8.023941040039062,-12.775253295898438,6.1762847900390625
1713358265693663000,12.7086630859375,-7.487640380859375,-11.010726928710938,6.2409210205078125
1713358265703642000,12.71864208984375,-6.6568450927734375,-9.349151611328125,6.8849639892578125
1713358265713591000,12.728591064453125,-4.86358642578125,-8.178390502929688,5.7333526611328125
1713358265723570200,12.738570068359374,-2.2395477294921875,-6.8160858154296875,4.52667236328125
1713358265733549300,12.74854931640625,2.1562042236328125,-6.1887969970703125,3.2026824951171875
1713358265743498200,12.758498291015625,5.2806396484375,-5.8607940673828125,1.308868408203125
1713358265753477400,12.768477294921874,5.7523040771484375,-5.671661376953125,-0.1563873291015625
1713358265763456800,12.778456787109375,4.4378814697265625,-5.4897003173828125,-1.2840423583984375
1713358265773405400,12.788405517578125,2.6350555419921875,-5.346038818359375,-1.607269287109375
1713358265783384600,12.798384521484374,1.74200439453125,-5.1712646484375,-1.7174072265625
1713358265793364000,12.808364013671875,1.0883941650390625,-4.9102935791015625,-1.6048736572265625
1713358265803312600,12.818312744140625,0.688568115234375,-4.436248779296875,-1.5737457275390625
1713358265813291800,12.828291748046874,0.456329345703125,-4.172882080078125,-1.413330078125
1713358265823271200,12.838271240234375,0.2599945068359375,-4.1848602294921875,-0.752532958984375
1713358265833219800,12.8482197265625,0.07086181640625,-4.3907623291015625,-0.22821044921875
1713358265843199000,12.858198974609374,0.0325469970703125,-4.706787109375,0.03515625
1713358265853148000,12.86814794921875,0.022979736328125,-5.0970458984375,-0.1252593994140625
1713358265863127000,12.878126953125,-0.0201263427734375,-5.5184173583984375,-0.38623046875
1713358265873106400,12.8881064453125,0.2647857666015625,-6.0403594970703125,-0.4221343994140625
1713358265883061000,12.89806103515625,0.7484130859375,-6.528778076171875,-0.26171875
1713358265893040000,12.9080400390625,1.155426025390625,-7.0602874755859375,0.2817535400390625
1713358265903019500,12.91801953125,1.502593994140625,-7.8192596435546875,1.3376007080078125
1713358265912998700,12.92799853515625,2.1394500732421875,-8.750595092773438,2.60174560546875
1713358265922947300,12.937947265625,2.802642822265625,-9.751373291015625,4.0478363037109375
1713358265932926700,12.9479267578125,2.9965667724609375,-10.735397338867188,5.417327880859375
