time,seconds_elapsed,z,y,x
1713358253142596600,0.1575966796875,-0.20426511764526367,0.07764005661010742,-1.9286296367645264
1713358253152575700,0.16757568359375,-0.25494956970214844,-0.3175950050354004,-0.9707567095756531
1713358253162555100,0.17755517578125,0.31118011474609375,-0.5478291511535645,-0.6485115885734558
1713358253172534300,0.1875341796875,0.8801369667053223,0.019164085388183594,-0.37666764855384827
1713358253182513700,0.197513671875,0.18124961853027344,-0.4960346221923828,-0.136359304189682
1713358253192462300,0.20746240234375,0.5148043632507324,-0.403775691986084,-0.4430229365825653
1713358253202441500,0.21744140625,0.49845075607299805,-0.31168127059936523,-0.17335377633571625
1713358253212420900,0.2274208984375,0.4903116226196289,-0.03623008728027344,0.0070385560393333435
1713358253222400000,0.23739990234375,0.3855133056640625,0.11340904235839844,-0.17470785975456238
1713358253232379400,0.24737939453125,0.11304712295532227,0.28812336921691895,-0.10999622941017151
1713358253242328000,0.257328125,0.03136444091796875,0.1465141773223877,-0.16615261137485504
1713358253252307200,0.26730712890625,0.17386245727539062,0.10596323013305664,-0.14652405679225922
1713358253262286600,0.27728662109375,0.21788787841796875,0.30580902099609375,-0.3548913598060608
1713358253272235300,0.2872353515625,0.26760005950927734,0.3563201427459717,-0.3285938501358032
1713358253282214400,0.29721435546875,0.3090353012084961,0.48634767532348633,-0.07367292046546936
1713358253292193800,0.30719384765625,0.25298309326171875,0.6717135906219482,0.05927124619483948
1713358253302173000,0.3171728515625,0.3574094772338867,1.0025506019592285,-0.2572433650493622
1713358253312121900,0.327121826171875,1.5082130432128906,1.2838678359985352,-0.6781265139579773
1713358253322101000,0.33710107421875,2.1477222442626953,1.265470266342163,-0.8010354042053223
1713358253332080000,0.347080078125,2.983214855194092,1.3591833114624023,-1.0171782970428467
1713358253342059500,0.3570595703125,3.543015480041504,0.490034818649292,-0.5663668513298035
1713358253352008200,0.36700830078125,3.6682491302490234,-0.6043040752410889,0.1033269613981247
1713358253361987600,0.376987548828125,2.9822330474853516,-0.44141125679016113,-1.0928720235824585
1713358253371966700,0.386966796875,2.5532426834106445,1.2623209953308105,-1.207280158996582
1713358253381915400,0.396915283203125,1.498586654663086,0.7845516204833984,-0.3892578184604645
1713358253391894800,0.406894775390625,0.8877973556518555,0.6332237720489502,0.5740174651145935
1713358253401874000,0.4168740234375,-0.007433891296386719,1.077587604522705,0.5741816759109497
1713358253411822600,0.426822509765625,-0.9459609985351562,0.33954334259033203,0.8678245544433594
1713358253421802000,0.436802001953125,-1.2382183074951172,0.5186614990234375,1.110384464263916
1713358253431750700,0.446750732421875,-1.113204002380371,0.530242919921875,1.1635041236877441
1713358253441729800,0.456729736328125,-1.1921014785766602,0.07927894592285156,1.1160727739334106
1713358253451709200,0.466709228515625,-0.6232328414916992,-0.11182975769042969,0.6793928146362305
1713358253461657900,0.476657958984375,-0.4038505554199219,-0.49466419219970703,0.91323322057724
1713358253471637200,0.48663720703125,0.31269073486328125,-0.7074105739593506,0.2567026615142822
1713358253481616400,0.496616455078125,0.846099853515625,-1.3657662868499756,-0.7707337141036987
1713358253491565000,0.50656494140625,0.7458057403564453,-1.3847465515136719,-0.3592654764652252
1713358253501544400,0.51654443359375,2.455320358276367,-1.7167861461639404,1.6083043813705444
1713358253511523600,0.526523681640625,1.435490608215332,-2.197014331817627,-0.36222073435783386
1713358253521472300,0.53647216796875,0.216949462890625,-1.3821017742156982,0.13459092378616333
1713358253531451600,0.54645166015625,0.9002647399902344,-2.113313674926758,0.06481191515922546
1713358253541400300,0.556400390625,0.5336437225341797,-2.0052216053009033,1.0512311458587646
1713358253551379500,0.56637939453125,-0.8102502822875977,-1.5486981868743896,0.3146330714225769
1713358253561358800,0.57635888671875,-2.142589569091797,-1.784911870956421,-1.012404203414917
1713358253571309300,0.586309326171875,-4.862188339233398,-1.4726002216339111,-0.9356129169464111
1713358253581288700,0.596288818359375,-3.7532854080200195,-1.948127031326294,-1.2461607456207275
1713358253591267800,0.606267822265625,-0.2144308090209961,-1.5364673137664795,-0.281618595123291
1713358253601247200,0.616247314453125,0.6095876693725586,-0.941643476486206,0.22492456436157227
1713358253611196000,0.62619580078125,-0.5980806350708008,-1.0244841575622559,0.4589056968688965
1713358253621175000,0.636175048828125,-1.8116912841796875,-0.7963988780975342,0.6589226722717285
1713358253631154400,0.646154541015625,-2.5438413619995117,-0.673652172088623,0.24679780006408691
1713358253641103000,0.65610302734375,-2.755697250366211,-1.006545066833496,-0.038762569427490234
1713358253651082500,0.66608251953125,1.9134979248046875,-0.6371750831604004,1.7828280925750732
1713358253661061600,0.6760615234375,10.146800994873047,1.1087387800216675,3.670546531677246
1713358253671010300,0.68601025390625,18.521650314331055,1.5742264986038208,1.6245864629745483
1713358253680989700,0.69598974609375,6.22774600982666,-3.7188615798950195,-0.9149478673934937
1713358253690968800,0.70596875,5.9330339431762695,-6.765957832336426,-3.2242298126220703
1713358253700917500,0.71591748046875,7.830592155456543,-6.253161907196045,-4.218166351318359
1713358253710897000,0.72589697265625,6.804064750671387,-3.0667567253112793,-3.0360403060913086
1713358253720876000,0.7358759765625,3.9495296478271484,-0.8905229568481445,-2.987273693084717
1713358253730824700,0.74582470703125,1.9448680877685547,-1.3785464763641357,-4.8075151443481445
1713358253740804000,0.75580419921875,1.1306419372558594,-2.180788993835449,-7.102883338928223
1713358253750783200,0.765783203125,0.4036235809326172,-4.169321060180664,-8.965465545654297
1713358253760732200,0.775732177734375,-1.6174125671386719,-6.116237163543701,-7.590053558349609
1713358253770711300,0.785711181640625,-7.71372127532959,-6.005671501159668,-8.173450469970703
1713358253780690400,0.7956904296875,-11.039529800415039,-3.9492640495300293,-6.4225850105285645
1713358253790639400,0.805639404296875,-12.127328872680664,-3.4490466117858887,-3.124361515045166
1713358253800618500,0.815618408203125,-13.621539115905762,-3.5878238677978516,0.4761977195739746
1713358253810567200,0.825567138671875,-10.167898178100586,-4.69380521774292,2.404614210128784
1713358253820546600,0.835546630859375,-6.294104099273682,-6.235553741455078,4.668961048126221
1713358253830525700,0.845525634765625,-5.425090312957764,-5.17147159576416,13.779642105102539
1713358253840474400,0.855474365234375,-3.1217875480651855,-3.2542080879211426,17.498144149780273
1713358253850453800,0.865453857421875,-3.185990333557129,-3.7659177780151367,17.439620971679688
1713358253860433000,0.875432861328125,-4.527687072753906,-3.6348061561584473,15.018918991088867
1713358253870412300,0.885412353515625,-5.829371452331543,-3.5926687717437744,11.242944717407227
1713358253880361000,0.89536083984375,-5.380554676055908,-2.9965016841888428,7.348424434661865
1713358253890340000,0.905340087890625,-3.026109218597412,-1.6965948343276978,3.959080696105957
1713358253900309000,0.91530908203125,-0.8890423774719238,-1.472917079925537,2.443502902984619
1713358253910257700,0.925257568359375,-1.562845230102539,0.27835604548454285,3.2353272438049316
1713358253920237000,0.935237060546875,0.5706305503845215,1.3026840686798096,1.9620881080627441
1713358253930216200,0.94521630859375,2.4095606803894043,1.2137579917907715,0.16760587692260742
1713358253940164900,0.955164794921875,2.8696436882019043,0.38678640127182007,-0.4117774963378906
1713358253950144300,0.965144287109375,4.677941799163818,-0.0017625093460083008,-1.9212965965270996
1713358253960123400,0.975123291015625,5.273344993591309,-0.7801281213760376,-3.2284903526306152
1713358253970072300,0.985072265625,4.152665615081787,-0.21440982818603516,-2.4099225997924805
1713358253980051500,0.995051513671875,2.111356258392334,0.7319855690002441,-1.682403564453125
1713358253990030600,1.005030517578125,-0.14060306549072266,1.9686903953552246,-1.6615681648254395
1713358253999979500,1.0149794921875,-1.0696830749511719,1.8677513599395752,-1.956709384918213
1713358254009958700,1.024958740234375,-1.561767578125,0.11082768440246582,-3.843702793121338
1713358254019938000,1.03493798828125,-2.006045341491699,-2.353502035140991,-6.07180643081665
1713358254029886700,1.04488671875,1.0387258529663086,-2.3030195236206055,-4.546584129333496
1713358254039865900,1.054865966796875,3.902057647705078,-1.7869701385498047,-2.234497547149658
1713358254049814500,1.064814453125,4.790371417999268,-1.8960909843444824,-0.0768899917602539
1713358254059816700,1.074816650390625,4.2155938148498535,-1.7508974075317383,-0.8790137767791748
1713358254069771300,1.084771240234375,1.9604458808898926,-1.0098767280578613,0.4324462413787842
1713358254079721000,1.094720947265625,1.8902111053466797,-0.505340576171875,1.2247931957244873
1713358254089700400,1.104700439453125,1.1570830345153809,0.8253345489501953,4.675116062164307
1713358254099679500,1.114679443359375,1.3382248878479004,1.9361658096313477,5.678050994873047
1713358254109628400,1.12462841796875,2.0576090812683105,1.9460744857788086,6.676103591918945
1713358254119607600,1.134607666015625,4.061479568481445,1.7203927040100098,4.822700500488281
1713358254129586700,1.144586669921875,5.8947062492370605,0.5444107055664062,4.874892711639404
1713358254139535600,1.15453564453125,8.880375862121582,0.6758055686950684,6.895895004272461
1713358254149514800,1.1645146484375,9.357718467712402,0.4474372863769531,6.225569725036621
1713358254159494000,1.174493896484375,8.709333419799805,1.1079206466674805,4.51772928237915
1713358254169442800,1.18444287109375,6.053271770477295,2.435518264770508,4.634320259094238
1713358254179436800,1.194436767578125,4.394548416137695,5.770440101623535,8.04974365234375
1713358254189416200,1.204416259765625,0.3731856346130371,6.136419773101807,8.80331039428711
1713358254199395300,1.214395263671875,-1.4429850578308105,7.539975643157959,10.33500862121582
1713358254209344000,1.224343994140625,-5.207779407501221,6.877998352050781,12.44308090209961
1713358254219323400,1.234323486328125,-5.022336483001709,7.485321521759033,12.491768836975098
1713358254229302500,1.244302490234375,-2.8228201866149902,5.125939846038818,9.149378776550293
1713358254239251200,1.254251220703125,-3.937594413757324,4.41373348236084,7.370684623718262
1713358254249230600,1.264230712890625,-6.231559753417969,3.9132862091064453,8.249918937683105
1713358254259209700,1.274209716796875,-8.036989212036133,4.361098289489746,9.677568435668945
1713358254269158400,1.284158447265625,-7.038700103759766,2.497049331665039,5.596139430999756
1713358254279137800,1.2941376953125,-6.068459510803223,1.1471138000488281,3.8966360092163086
1713358254289117000,1.304116943359375,-6.301049709320068,0.8831520080566406,4.068137168884277
1713358254299065900,1.31406591796875,-4.190548419952393,0.2776508331298828,3.899947166442871
1713358254309045000,1.324044921875,-8.174860954284668,-0.838780403137207,9.868099212646484
1713358254318993700,1.33399365234375,-6.923408031463623,-2.3629589080810547,11.707703590393066
1713358254328973000,1.34397314453125,-1.739499568939209,-2.2837724685668945,11.630717277526855
1713358254338954800,1.353954833984375,3.1944847106933594,-3.963414192199707,9.631377220153809
1713358254348903400,1.3639033203125,7.02988338470459,-4.727571487426758,9.97649097442627
1713358254358882800,1.3738828125,9.2092924118042,-3.4906558990478516,8.525327682495117
1713358254368862000,1.383862060546875,4.819947719573975,-2.0326294898986816,6.276306629180908
1713358254378810600,1.393810546875,-1.049508810043335,-1.6122288703918457,4.992688179016113
1713358254388790000,1.4037900390625,-1.2470128536224365,-2.0828628540039062,4.46127462387085
1713358254398738700,1.41373876953125,0.4067676067352295,-3.3597512245178223,0.0394134521484375
1713358254408717800,1.4237177734375,4.065767288208008,-5.38826847076416,-4.639658451080322
1713358254418697200,1.433697265625,6.905656337738037,-4.790056228637695,-8.287535667419434
1713358254428629800,1.443629638671875,6.917689323425293,-4.330859661102295,-8.917386054992676
1713358254438609200,1.453609130859375,4.2887372970581055,-6.78451681137085,-8.235310554504395
1713358254448588300,1.46358837890625,1.3610925674438477,-7.996702194213867,-8.056167602539062
1713358254458567400,1.4735673828125,-0.2976033687591553,-7.570559501647949,-7.686749458312988
1713358254468516400,1.483516357421875,-4.5130181312561035,-8.210643768310547,-4.654870986938477
1713358254478495500,1.49349560546875,-10.057435989379883,-9.185962677001953,-1.3824462890625
1713358254488475000,1.503474853515625,-13.196697235107422,-10.12089729309082,1.411616325378418
1713358254498423600,1.513423583984375,-10.481225967407227,-9.084370613098145,3.5877442359924316
1713358254508402700,1.523402587890625,-4.977983474731445,-7.728814125061035,2.5982666015625
1713358254518382000,1.533382080078125,1.306185007095337,-7.814558982849121,0.043787479400634766
1713358254528330800,1.543330810546875,4.3424553871154785,-9.96750259399414,-3.5335841178894043
1713358254538310000,1.553309814453125,2.9241957664489746,-11.398265838623047,-4.720817565917969
1713358254548289300,1.563289306640625,0.5026246309280396,-12.193482398986816,-2.706259250640869
1713358254558238000,1.573238037109375,-1.1332027912139893,-11.198623657226562,1.3853774070739746
1713358254568217000,1.583217041015625,-2.0949738025665283,-9.18221378326416,4.4919633865356445
1713358254578196500,1.593196533203125,-1.5546667575836182,-7.674978256225586,6.47050666809082
1713358254588145200,1.603145263671875,0.9162750244140625,-7.627717971801758,6.117819309234619
1713358254598124500,1.61312451171875,3.146836280822754,-9.219456672668457,3.678122043609619
1713358254608106800,1.623106689453125,7.537838935852051,-11.435938835144043,0.2722114324569702
1713358254618055700,1.6330556640625,14.81677532196045,-12.071144104003906,-2.0622506141662598
1713358254628034800,1.643034912109375,18.37749671936035,-14.905183792114258,-3.0491433143615723
1713358254638014000,1.653013916015625,19.395334243774414,-14.644238471984863,0.43112123012542725
1713358254647963000,1.662962890625,14.974925994873047,-15.196264266967773,8.196754455566406
1713358254657942000,1.67294189453125,-0.6046584844589233,-12.65245246887207,8.288429260253906
1713358254667890700,1.682890625,-22.573890686035156,4.161223411560059,16.45977210998535
1713358254677870000,1.6928701171875,-8.087566375732422,7.756217002868652,14.222090721130371
1713358254687849200,1.70284912109375,-1.9827728271484375,2.3484716415405273,11.348184585571289
1713358254697798000,1.7127978515625,-6.9450531005859375,-0.8702602386474609,6.737489700317383
1713358254707777300,1.72277734375,-6.032336235046387,-2.879587173461914,3.0258829593658447
1713358254717756400,1.73275634765625,11.119020462036133,-7.2435407638549805,0.2397773265838623
1713358254727735800,1.74273583984375,4.100984573364258,-5.345270156860352,7.837022304534912
1713358254737684500,1.7526845703125,-4.604937553405762,-3.9287662506103516,9.852006912231445
1713358254747663600,1.76266357421875,-10.445812225341797,1.176377296447754,12.763392448425293
1713358254757643000,1.77264306640625,-6.963752746582031,-0.14656352996826172,9.009641647338867
1713358254767591700,1.782591796875,-2.467761993408203,-1.6447887420654297,4.851224422454834
1713358254777570800,1.79257080078125,-4.34954833984375,-1.7417478561401367,4.195756435394287
1713358254787550200,1.80255029296875,3.9055817127227783,-2.3383026123046875,0.9263143539428711
1713358254797499000,1.812498779296875,-1.3784232139587402,4.643100261688232,8.215173721313477
1713358254807478300,1.822478271484375,-9.355575561523438,9.149615287780762,12.1513671875
1713358254817457400,1.83245751953125,-16.977346420288086,10.235677719116211,10.097757339477539
1713358254827406000,1.842406005859375,-15.61468505859375,12.770983695983887,9.548469543457031
1713358254837385500,1.852385498046875,-10.93879508972168,15.774165153503418,8.365863800048828
1713358254847364600,1.862364501953125,-9.063802719116211,10.464265823364258,7.96269416809082
1713358254857313300,1.872313232421875,-7.182987689971924,11.04758071899414,10.581277847290039
1713358254867292700,1.882292724609375,-6.543041229248047,10.273411750793457,11.766558647155762
1713358254877271800,1.892271728515625,-4.5813374519348145,7.620166778564453,10.809530258178711
1713358254887220500,1.902220458984375,-5.969903945922852,3.7587642669677734,5.565594673156738
1713358254897199900,1.912199951171875,-6.393229961395264,3.488513946533203,7.004064559936523
1713358254907148500,1.9221484375,-7.383002281188965,1.2544126510620117,10.061823844909668
1713358254917128000,1.9321279296875,-8.281952857971191,0.9473886489868164,11.169294357299805
1713358254927107000,1.942107177734375,-7.660493850708008,-1.1280412673950195,9.941343307495117
1713358254937055700,1.9520556640625,-2.641519546508789,-3.407743453979492,11.602869033813477
1713358254947035100,1.96203515625,2.403306245803833,-5.892203330993652,11.034740447998047
1713358254957014300,1.97201416015625,7.232548236846924,-9.226332664489746,7.892264366149902
1713358254966963000,1.981962890625,13.111919403076172,-9.60222339630127,3.701022148132324
1713358254976942300,1.9919423828125,19.40126609802246,-8.47313404083252,0.15705251693725586
1713358254986891000,2.00189111328125,19.792787551879883,-7.501235008239746,0.267822265625
1713358254996870100,2.0118701171875,18.623123168945312,-7.515041828155518,-1.5447306632995605
1713358255006849500,2.021849609375,15.136392593383789,-4.764044761657715,-1.626845359802246
1713358255016828700,2.03182861328125,6.472114562988281,-4.709742069244385,-1.5592966079711914
1713358255026777600,2.041777587890625,0.9454171657562256,-5.05053186416626,-2.447834014892578
1713358255036756700,2.0517568359375,-0.32508230209350586,-4.328054904937744,-3.963778495788574
1713358255046736000,2.06173583984375,2.148932456970215,-2.9584426879882812,-3.769918441772461
1713358255056715300,2.07171533203125,3.1952595710754395,-3.097775936126709,-5.377890110015869
1713358255066664000,2.081663818359375,5.9905104637146,-4.309851169586182,-7.051046371459961
1713358255076643300,2.091643310546875,9.037559509277344,-4.739228248596191,-9.194320678710938
1713358255086622500,2.10162255859375,8.40372085571289,-6.072027206420898,-14.298507690429688
1713358255096571100,2.111571044921875,3.605302572250366,-6.057414531707764,-13.618295669555664
1713358255106547700,2.121547607421875,-1.54441499710083,-6.246026992797852,-11.207518577575684
1713358255116527000,2.131527099609375,-7.800424575805664,-8.69609260559082,-8.217437744140625
1713358255126475800,2.141475830078125,-13.982848167419434,-8.724963188171387,-3.665836811065674
1713358255136455200,2.151455078125,-6.699364185333252,-9.830850601196289,-0.7841596603393555
1713358255146434300,2.161434326171875,-3.050229549407959,-4.282689571380615,4.6471991539001465
1713358255156383000,2.171383056640625,-6.758490085601807,-4.663305282592773,7.516070365905762
1713358255166362400,2.1813623046875,-0.9757702350616455,-8.197823524475098,5.129900932312012
1713358255176311000,2.19131103515625,-0.4539000988006592,-9.775875091552734,0.7334580421447754
1713358255186290200,2.201290283203125,-3.2275872230529785,-10.065638542175293,-0.6690049171447754
1713358255196269600,2.21126953125,-4.118719577789307,-7.78450870513916,-0.6970052719116211
1713358255206218200,2.22121826171875,-2.264599323272705,-6.967220306396484,-0.7048165798187256
1713358255216197400,2.231197265625,0.39003849029541016,-7.157693862915039,1.324272871017456
1713358255226176800,2.2411767578125,2.886868715286255,-6.047035217285156,3.424384355545044
1713358255236125400,2.25112548828125,5.464599132537842,-6.434001922607422,3.6325714588165283
1713358255246104800,2.261104736328125,4.0279436111450195,-5.927861213684082,3.952120065689087
1713358255256053500,2.271053466796875,-1.186769723892212,-5.0623779296875,8.021136283874512
1713358255266032600,2.28103271484375,-3.7843945026397705,-5.64285945892334,3.613227128982544
1713358255276012000,2.291011962890625,8.47034740447998,-3.312122344970703,2.1103618144989014
1713358255285960700,2.300960693359375,8.144336700439453,-6.365335464477539,2.486748218536377
1713358255295939800,2.31093994140625,-0.6582819223403931,-6.368155479431152,-0.9937162399291992
1713358255305919200,2.320919189453125,0.3719714879989624,-4.190957069396973,-2.7818877696990967
1713358255315898400,2.3308984375,-0.2861018776893616,-4.694415092468262,-3.779752731323242
1713358255325847000,2.340846923828125,-0.1860063672065735,-3.1790285110473633,-3.798067092895508
1713358255335826400,2.350826416015625,-0.3219984769821167,-2.471442222595215,-3.227391242980957
1713358255345805600,2.3608056640625,-4.462737083435059,1.0426969528198242,4.709640979766846
1713358255355754500,2.37075439453125,-11.791278839111328,1.1237945556640625,2.538492202758789
1713358255365733600,2.380733642578125,-5.286545753479004,-0.5607433319091797,0.15575776994228363
1713358255375712800,2.390712646484375,-6.5414299964904785,1.187300682067871,-4.44163703918457
1713358255385661700,2.40066162109375,-5.13655424118042,0.8506374359130859,2.7433135509490967
1713358255395640800,2.410640869140625,-3.5870373249053955,-1.0353260040283203,2.0572421550750732
1713358255405620000,2.420619873046875,-3.2638280391693115,-2.092707633972168,-4.619629859924316
1713358255415569000,2.43056884765625,-3.0671730041503906,1.1720924377441406,-3.6386852264404297
1713358255425548000,2.440548095703125,-1.3768203258514404,-0.5692224502563477,-2.158562660217285
1713358255435527400,2.45052734375,1.2738313674926758,-2.817204475402832,-4.168394088745117
1713358255445476000,2.46047607421875,-0.8023233413696289,0.5801982879638672,-0.8824446201324463
1713358255455455200,2.470455322265625,0.21814322471618652,-1.321706771850586,-5.135250568389893
1713358255465434600,2.4804345703125,4.872308731079102,-3.9565067291259766,-3.728353261947632
1713358255475383300,2.49038330078125,-2.1667566299438477,0.31970787048339844,-2.286729574203491
1713358255485362400,2.500362548828125,11.33306884765625,-1.6168365478515625,-0.5703701972961426
1713358255495341800,2.510341796875,5.381363868713379,-6.208466529846191,5.159174919128418
1713358255505290500,2.52029052734375,-0.8777194023132324,0.42691898345947266,5.031764030456543
1713358255515269600,2.53026953125,-3.0300493240356445,1.3897361755371094,6.482093334197998
1713358255525218600,2.540218505859375,-5.0615997314453125,4.423455715179443,7.3904571533203125
1713358255535197700,2.55019775390625,-6.385921955108643,3.6061348915100098,3.135932445526123
1713358255545177000,2.560177001953125,-3.7680482864379883,4.310537815093994,4.179771900177002
1713358255555125800,2.570125732421875,-6.953502178192139,5.86347770690918,6.145025253295898
1713358255565105000,2.58010498046875,-8.209508895874023,5.066824913024902,7.399561882019043
1713358255575084300,2.590084228515625,-6.082876205444336,5.65905237197876,6.442910671234131
1713358255585033000,2.600032958984375,-2.3336777687072754,2.295830249786377,0.10147571563720703
1713358255595012000,2.61001220703125,1.0694389343261719,0.6769609451293945,-1.6404719352722168
1713358255604991500,2.619991455078125,0.14700555801391602,3.2340760231018066,2.48482608795166
1713358255614970600,2.629970703125,-0.7451634407043457,3.6938934326171875,2.8731560707092285
1713358255624919300,2.639919189453125,-0.4144606590270996,3.2062296867370605,4.1200032234191895
1713358255634898700,2.649898681640625,-0.4668736457824707,2.0289225578308105,3.128359079360962
1713358255644877800,2.6598779296875,-0.6267986297607422,0.8197307586669922,0.9733700752258301
1713358255654826800,2.66982666015625,-0.593045711517334,0.5069437026977539,0.3466224670410156
1713358255664801000,2.679801025390625,-1.572380542755127,0.6888556480407715,2.1887714862823486
1713358255674780400,2.689780517578125,-1.4159283638000488,1.1098580360412598,2.1991257667541504
1713358255684729000,2.69972900390625,-2.810245990753174,1.8998794555664062,1.9183990955352783
1713358255694708200,2.709708251953125,-4.637065410614014,3.4566054344177246,5.39966344833374
1713358255704687600,2.7196875,-5.149301528930664,5.333243370056152,8.386466979980469
1713358255714636300,2.72963623046875,-5.6052069664001465,4.676478385925293,7.63358211517334
1713358255724615700,2.73961572265625,-4.836334705352783,2.785238742828369,3.5246036052703857
1713358255734594800,2.7495947265625,-4.171935081481934,1.3689322471618652,3.158979892730713
1713358255744543500,2.75954345703125,-4.41583251953125,-0.3103065490722656,3.619691848754883
1713358255754523000,2.76952294921875,-2.1140599250793457,0.1998615264892578,4.545697212219238
1713358255764471600,2.779471435546875,1.1972031593322754,-1.25885009765625,3.5745227336883545
1713358255774450700,2.78945068359375,4.287609577178955,-5.48960018157959,0.7552523612976074
1713358255784430000,2.79943017578125,6.273440837860107,-9.133416175842285,-2.6008260250091553
1713358255794378800,2.809378662109375,6.737319469451904,-11.236366271972656,-4.103956699371338
1713358255804358000,2.81935791015625,5.112997055053711,-10.401252746582031,-2.0537424087524414
1713358255814337300,2.829337158203125,3.5442352294921875,-8.840147018432617,-2.208339214324951
1713358255824286000,2.839285888671875,2.799455165863037,-7.503846168518066,-2.408762216567993
1713358255834265300,2.849265380859375,2.2752845287323,-6.9600324630737305,-2.210458278656006
1713358255844244500,2.859244384765625,0.43649983406066895,-6.537127494812012,-2.1610288619995117
1713358255854193200,2.869193115234375,-0.48196983337402344,-5.889225959777832,-1.0924944877624512
1713358255864172500,2.879172607421875,1.6336326599121094,-6.052977561950684,0.42520254850387573
1713358255874151700,2.889151611328125,7.041107654571533,-8.603919982910156,1.5203660726547241
1713358255884100400,2.899100341796875,-1.170792579650879,-4.452878952026367,-3.475496292114258
1713358255894079700,2.909079833984375,-4.244184494018555,2.3932504653930664,-2.018465518951416
1713358255904059000,2.919058837890625,-0.016178131103515625,3.3470306396484375,0.42271870374679565
1713358255914038300,2.929038330078125,-1.1716666221618652,4.668499946594238,-1.1489430665969849
1713358255923987000,2.938987060546875,-17.10445785522461,11.403938293457031,-3.6514220237731934
1713358255933966000,2.948966064453125,-9.311128616333008,15.032424926757812,-3.0120205879211426
1713358255943945500,2.958945556640625,-6.586986541748047,11.396713256835938,-2.9988412857055664
1713358255953894100,2.96889404296875,-5.58036994934082,8.564488410949707,-3.206102132797241
1713358255963873300,2.978873291015625,-6.277591228485107,6.749859809875488,-4.774225234985352
1713358255973852700,2.988852783203125,-7.368048667907715,6.019695281982422,-5.24688720703125
1713358255983801300,2.99880126953125,-7.585855007171631,4.081229209899902,-4.204141616821289
1713358255993780500,3.008780517578125,-5.900097846984863,1.2211055755615234,-2.2148098945617676
1713358256003759900,3.018759765625,-2.600950241088867,-2.33724308013916,0.49989956617355347
1713358256013708500,3.02870849609375,3.5853869915008545,-2.6355676651000977,-0.1571662425994873
1713358256023688000,3.03868798828125,1.3145933151245117,1.1009397506713867,-1.729811429977417
1713358256033636600,3.04863671875,-0.36218905448913574,4.058722496032715,-1.3042709827423096
1713358256043615700,3.05861572265625,-3.0537664890289307,5.473091125488281,-0.9713616371154785
1713358256053595100,3.06859521484375,-4.133589744567871,6.621829986572266,-0.5148106813430786
1713358256063543800,3.078543701171875,-5.7711381912231445,3.512007713317871,0.33421242237091064
1713358256073523000,3.08852294921875,-1.230674386024475,2.4695749282836914,2.889498710632324
1713358256083502300,3.09850244140625,1.2188009023666382,0.4538536071777344,4.398761749267578
1713358256093451000,3.108450927734375,5.046884059906006,-1.1302614212036133,4.312088966369629
1713358256103430100,3.11843017578125,3.994809150695801,-5.114130973815918,4.1247968673706055
1713358256113379000,3.128379150390625,5.671656608581543,-5.026548385620117,3.686429023742676
1713358256123358200,3.138358154296875,3.4458866119384766,-2.8555030822753906,6.625820159912109
1713358256133337600,3.148337646484375,-0.7641250491142273,-4.822717666625977,6.901555061340332
1713358256143286300,3.158286376953125,-0.1944236159324646,-4.527443885803223,5.684016704559326
1713358256153265400,3.168265380859375,2.371971607208252,-5.531801223754883,2.23276686668396
1713358256163244800,3.178244873046875,0.8229970932006836,-8.931744575500488,-5.315974712371826
1713358256173224000,3.188223876953125,0.782992959022522,-9.13910961151123,-7.48124885559082
1713358256183172600,3.198172607421875,3.351123571395874,-6.9442596435546875,-6.246198654174805
1713358256193152000,3.208152099609375,-0.7244490385055542,-2.5575551986694336,-1.3962066173553467
1713358256203131100,3.218131103515625,-0.62557053565979,-1.500701904296875,-2.980881929397583
1713358256213079800,3.228079833984375,-0.8180168867111206,-0.42124176025390625,-4.123002529144287
1713358256223059200,3.23805908203125,-0.6568111777305603,1.5877161026000977,-4.275237083435059
1713358256233038300,3.248038330078125,1.3394368886947632,2.288119316101074,-6.014213562011719
1713358256242987300,3.2579873046875,-0.11393827944993973,3.3932266235351562,-5.068668365478516
1713358256252966400,3.26796630859375,-1.405650019645691,0.23621368408203125,-3.910278797149658
1713358256262945500,3.277945556640625,-0.3781720697879791,-2.19423770904541,-2.223994731903076
1713358256272894500,3.28789453125,0.45152947306632996,-3.2086992263793945,-1.2882816791534424
1713358256282873600,3.29787353515625,0.8717634677886963,-3.0118885040283203,-0.7716021537780762
1713358256292853000,3.30785302734375,1.04116690158844,-1.780055046081543,1.6100807189941406
1713358256302801700,3.3178017578125,1.7254304885864258,-0.4755430221557617,1.658778429031372
1713358256312780800,3.32778076171875,1.2345633506774902,0.2542095184326172,2.301082134246826
1713358256322760200,3.33776025390625,0.19157737493515015,0.04383277893066406,3.0505294799804688
1713358256332708900,3.347708984375,0.7809087038040161,-0.16307926177978516,1.8914471864700317
1713358256342688000,3.35768798828125,0.45107167959213257,-0.6970157623291016,1.9643895626068115
1713358256352667400,3.36766748046875,0.34226661920547485,-2.026669502258301,2.5595898628234863
1713358256362616000,3.377615966796875,0.8489212393760681,-3.4782915115356445,2.1943564414978027
1713358256372595200,3.38759521484375,1.3389861583709717,-3.2694292068481445,1.5356075763702393
1713358256382544100,3.397544189453125,0.3911743760108948,-1.964468002319336,1.4018628597259521
1713358256392523300,3.407523193359375,-0.4526187777519226,-1.7140130996704102,0.3815569579601288
1713358256402502400,3.41750244140625,0.022013545036315918,-1.5947265625,1.1561651229858398
1713358256412451300,3.427451416015625,0.7617161273956299,-0.8535966873168945,1.0518605709075928
1713358256422430500,3.437430419921875,2.0056076049804688,1.0833148956298828,-0.25047528743743896
1713358256432409900,3.447409912109375,1.4143383502960205,0.9291982650756836,0.4854271411895752
1713358256442358500,3.457358642578125,0.7975255846977234,1.802912712097168,0.45060524344444275
1713358256452337700,3.467337646484375,2.457117795944214,1.850214958190918,0.5021853446960449
1713358256462317000,3.477317138671875,0.7622871994972229,1.511775016784668,0.7451353073120117
1713358256472296200,3.487296142578125,-0.17512351274490356,2.4646520614624023,0.500610888004303
1713358256482244900,3.497244873046875,0.6202937960624695,3.455507278442383,0.4673703908920288
1713358256492224300,3.507224365234375,1.4408541917800903,2.718836784362793,0.10779178142547607
1713358256502203400,3.517203369140625,1.6443265676498413,2.79935359954834,0.5694761872291565
1713358256512152000,3.527152099609375,1.2472598552703857,1.9681901931762695,0.3166012167930603
1713358256522131500,3.53713134765625,0.6205105185508728,1.249074935913086,0.07701456546783447
1713358256532110600,3.547110595703125,0.8238160014152527,0.43238258361816406,-0.25259876251220703
1713358256542059500,3.5570595703125,0.5837186574935913,-0.565521240234375,-0.6714988946914673
1713358256552038700,3.56703857421875,0.32930123805999756,-2.1708860397338867,-1.1754032373428345
1713358256562017800,3.577017822265625,0.7426640391349792,-4.159106254577637,-1.5660111904144287
1713358256571966700,3.586966796875,1.3990058898925781,-3.295896530151367,-0.09356021881103516
1713358256581945900,3.59694580078125,2.6483101844787598,3.4389305114746094,0.8031339645385742
1713358256591925200,3.60692529296875,0.06086397171020508,5.9739837646484375,-0.8258843421936035
1713358256601874000,3.6168740234375,-1.7118616104125977,6.100905418395996,-1.1117937564849854
1713358256611853000,3.62685302734375,-2.219776153564453,3.63845157623291,-1.6087921857833862
1713358256621832400,3.63683251953125,-1.5678353309631348,0.9748802185058594,-1.5563935041427612
1713358256631781000,3.646781005859375,-0.9141485095024109,-0.11140632629394531,-0.9550176858901978
1713358256641760300,3.65676025390625,-3.4792373180389404,5.203238487243652,1.6037719249725342
1713358256651709200,3.666709228515625,-3.3645148277282715,5.431112289428711,4.740579128265381
1713358256661688300,3.676688232421875,1.5845563411712646,6.429832458496094,3.256537914276123
1713358256671667500,3.68666748046875,1.200356125831604,3.6448936462402344,1.459324598312378
1713358256681616400,3.696616455078125,1.1937255859375,0.3363504409790039,0.5883386135101318
1713358256691595500,3.706595458984375,0.9876183271408081,-2.7894582748413086,0.4976468086242676
1713358256701575000,3.716574951171875,0.6899114847183228,-3.6744203567504883,1.2027086019515991
1713358256711523600,3.726523681640625,-0.23256051540374756,0.4479789733886719,1.1215664148330688
1713358256721502700,3.736502685546875,-1.248256802558899,3.076413154602051,0.3170267343521118
1713358256731482000,3.746482177734375,-0.36267411708831787,1.1113901138305664,2.0052199363708496
1713358256741461200,3.756461181640625,-0.33222997188568115,-8.554085731506348,1.3921067714691162
1713358256751410000,3.766409912109375,-0.3950103521347046,-13.891608238220215,-0.4369567632675171
1713358256761389300,3.776389404296875,0.5287060737609863,-9.291572570800781,-4.565439701080322
1713358256771368400,3.786368408203125,1.6562411785125732,-4.928718566894531,-2.2268447875976562
1713358256781317000,3.796317138671875,0.8633047342300415,-4.98492431640625,-0.5510755777359009
1713358256791296500,3.806296630859375,-1.4083322286605835,-5.784344673156738,-1.1021822690963745
1713358256801275600,3.816275634765625,-2.322497606277466,-4.459378242492676,-0.4456881284713745
1713358256811224600,3.826224609375,-2.024278163909912,-3.2039899826049805,-0.5335876941680908
1713358256821203700,3.83620361328125,-1.4340870380401611,-3.446681022644043,-0.724243700504303
1713358256831182800,3.846182861328125,-0.866639256477356,-3.52146053314209,-0.6773999333381653
1713358256841131800,3.8561318359375,-2.504481315612793,-1.8452463150024414,0.4736531972885132
1713358256851111000,3.86611083984375,-3.058633804321289,-2.886638641357422,0.5811832547187805
1713358256861090000,3.876090087890625,-2.8164026737213135,-0.9224710464477539,0.8720337152481079
1713358256871039000,3.8860390625,-2.6761410236358643,2.2084856033325195,2.0024924278259277
1713358256881018000,3.89601806640625,-1.3600579500198364,6.020410537719727,3.391115427017212
1713358256890997500,3.90599755859375,2.2453601360321045,7.414369583129883,3.760343074798584
1713358256900946200,3.9159462890625,1.701941728591919,6.109371185302734,0.07590216398239136
1713358256910925300,3.92592529296875,1.3871345520019531,3.490504264831543,-1.8300046920776367
1713358256920874000,3.9358740234375,0.8758565187454224,1.7243757247924805,-1.205063819885254
1713358256930853400,3.945853271484375,2.276794910430908,0.9933633804321289,0.31281352043151855
1713358256940832500,3.95583251953125,2.887376308441162,0.08411693572998047,0.8246873617172241
1713358256950781400,3.965781494140625,1.7361950874328613,-1.0860013961791992,0.5287172794342041
1713358256960760600,3.975760498046875,-0.017693758010864258,-1.5081901550292969,0.5751919746398926
1713358256970739700,3.98573974609375,-1.4929172992706299,-1.6773853302001953,0.3684568405151367
1713358256980688600,3.995688720703125,-2.5309338569641113,-1.8167686462402344,-0.413828045129776
1713358256990667800,4.005667724609375,-2.613825798034668,-1.6992874145507812,-0.7508658766746521
1713358257000647200,4.015647216796875,-2.5644240379333496,-1.3275976181030273,-0.26041871309280396
1713358257010595800,4.025595947265625,-2.505824565887451,-0.9385528564453125,0.11138975620269775
1713358257020575000,4.035574951171875,-2.284193515777588,-0.5368528366088867,0.22606512904167175
1713358257030554400,4.045554443359375,-1.6911587715148926,-0.29913997650146484,0.37603020668029785
1713358257040533500,4.055533447265625,-0.7410071492195129,-0.07196712493896484,0.7242900729179382
1713358257050482200,4.065482177734375,0.15330630540847778,0.17836666107177734,1.2592215538024902
1713358257060461600,4.075461669921875,0.8338600397109985,0.3612852096557617,1.6210249662399292
1713358257070440700,4.085440673828125,1.1240172386169434,0.3767728805541992,1.8039158582687378
1713358257080389400,4.095389404296875,1.1225881576538086,0.24440956115722656,1.7426469326019287
1713358257090368800,4.10536865234375,1.239234447479248,0.15806198120117188,1.5459874868392944
1713358257100348000,4.115347900390625,1.0657455921173096,0.12214946746826172,1.2916656732559204
1713358257110296800,4.125296875,0.6446746587753296,0.1340951919555664,1.2090917825698853
1713358257120276000,4.13527587890625,0.36838671565055847,0.2582283020019531,1.1598562002182007
1713358257130255000,4.145255126953125,0.040801048278808594,0.3389596939086914,1.209647297859192
1713358257140204000,4.1552041015625,-0.21569496393203735,0.3619804382324219,1.2916669845581055
1713358257150183200,4.16518310546875,-0.39589715003967285,0.3489255905151367,1.3631396293640137
1713358257160162600,4.17516259765625,-0.3953186571598053,0.3573427200317383,1.334191083908081
1713358257170111200,4.185111328125,-0.2379428744316101,0.30097007751464844,1.2522543668746948
1713358257180090400,4.19509033203125,-0.24284154176712036,0.3041372299194336,1.1021969318389893
1713358257190069800,4.20506982421875,-0.10681599378585815,0.4073905944824219,1.09279203414917
1713358257200018400,4.215018310546875,0.14613628387451172,0.5867080688476562,0.9793387651443481
1713358257209997600,4.22499755859375,0.1979726254940033,0.7273683547973633,1.1873157024383545
1713358257219946500,4.234946533203125,0.6553923487663269,0.9011459350585938,0.9512028694152832
1713358257229925600,4.244925537109375,0.9732440710067749,1.0410070419311523,0.910747766494751
1713358257239904800,4.25490478515625,1.055419921875,1.156752586364746,1.0665805339813232
1713358257249853700,4.264853759765625,1.1470085382461548,1.1911888122558594,1.208847165107727
1713358257259832800,4.274832763671875,1.069839358329773,1.244734764099121,1.3249398469924927
1713358257269812200,4.284812255859375,1.049248456954956,1.3770475387573242,1.4117894172668457
1713358257279761000,4.294760986328125,1.0157077312469482,1.5449047088623047,1.4879001379013062
1713358257289740000,4.304739990234375,0.9789716601371765,1.7936067581176758,1.563278317451477
1713358257299719400,4.314719482421875,1.0863494873046875,2.020315170288086,1.686166524887085
1713358257309668000,4.324668212890625,1.2170636653900146,2.141566276550293,1.866699457168579
1713358257319647200,4.334647216796875,1.3058078289031982,2.054964065551758,2.264354705810547
1713358257329626600,4.344626708984375,1.33610200881958,1.729933738708496,2.7782719135284424
1713358257339605800,4.354605712890625,1.307223916053772,1.1645402908325195,3.2458298206329346
1713358257349554400,4.364554443359375,1.434537649154663,0.4668302536010742,3.6445720195770264
1713358257359533800,4.374533935546875,2.3216049671173096,-0.13327789306640625,4.103166580200195
1713358257369513000,4.384512939453125,1.4373762607574463,-0.6195707321166992,3.75954532623291
1713358257379461600,4.394461669921875,1.0299711227416992,-1.5754213333129883,3.7746222019195557
1713358257389441000,4.40444091796875,0.6121118068695068,-2.4960031509399414,4.856240749359131
1713358257399420200,4.414420166015625,0.18356996774673462,-3.1047983169555664,4.870877742767334
1713358257409369000,4.424369140625,0.7814077734947205,-3.3094520568847656,4.826042652130127
1713358257419348200,4.43434814453125,1.2118992805480957,-3.366466522216797,4.867265701293945
1713358257429297000,4.444296875,1.3173733949661255,-3.438627243041992,4.687383651733398
1713358257439276300,4.4542763671875,1.0249934196472168,-3.480319023132324,3.3820433616638184
1713358257449255400,4.46425537109375,0.5703226327896118,-4.1880340576171875,3.2189648151397705
1713358257459204000,4.4742041015625,-0.8978587985038757,-6.226161003112793,2.3669331073760986
1713358257469183500,4.48418359375,-3.0538313388824463,-9.488646507263184,0.8868551254272461
1713358257479162600,4.49416259765625,-0.7831363081932068,-12.01075553894043,-2.3268189430236816
1713358257489111300,4.504111328125,4.230565071105957,-9.6571683883667,-5.295029640197754
1713358257499090700,4.514090576171875,5.282672882080078,-0.3558511734008789,-7.539018630981445
1713358257509069800,4.52406982421875,3.518540620803833,6.4318742752075195,-4.909672737121582
1713358257519018800,4.534018798828125,2.0781307220458984,7.555755615234375,0.43387866020202637
1713358257528998000,4.543997802734375,0.2699481248855591,6.995245933532715,0.9356167912483215
1713358257538977000,4.55397705078125,0.13884735107421875,5.250086784362793,1.694969654083252
1713358257548926000,4.563926025390625,-1.8038996458053589,1.5869255065917969,2.9399237632751465
1713358257558905000,4.573905029296875,-4.0155792236328125,-2.3747329711914062,2.6942336559295654
1713358257568853800,4.583853759765625,-4.012688636779785,-3.4685964584350586,1.6098870038986206
1713358257578833200,4.593833251953125,-2.807912588119507,-2.6881532669067383,0.9187628626823425
1713358257588812300,4.603812255859375,-3.2060251235961914,-1.4051856994628906,0.07815557718276978
1713358257598791700,4.613791748046875,-2.6835052967071533,-0.08899688720703125,-1.0193915367126465
1713358257608770800,4.623770751953125,-1.5323668718338013,0.8506937026977539,-2.326113700866699
1713358257618719500,4.633719482421875,-0.6769300699234009,1.1624927520751953,-3.8866050243377686
1713358257628699000,4.643698974609375,0.015516996383666992,1.3067903518676758,-5.159714221954346
1713358257638647600,4.6536474609375,0.3139995336532593,1.935922622680664,-5.800116539001465
1713358257648626700,4.663626708984375,0.4880349636077881,2.759699821472168,-5.839399337768555
1713358257658606000,4.673606201171875,0.8827290534973145,3.1504459381103516,-5.245614051818848
1713358257668554800,4.6835546875,0.7969702482223511,3.0457382202148438,-4.251535415649414
1713358257678534100,4.6935341796875,0.44894635677337646,2.6185302734375,-3.0974555015563965
1713358257688513300,4.70351318359375,0.4704352617263794,1.9426450729370117,-2.324047565460205
1713358257698462000,4.7134619140625,0.652564525604248,1.359323501586914,-1.468653678894043
1713358257708441300,4.72344140625,0.6300814151763916,1.0348005294799805,-0.35787996649742126
1713358257718420500,4.73342041015625,1.2006125450134277,0.7703609466552734,-0.16661182045936584
1713358257728369200,4.743369140625,1.566843032836914,0.7908124923706055,0.004504874348640442
1713358257738348500,4.7533486328125,1.7202812433242798,1.0648717880249023,0.5346940159797668
1713358257748327700,4.76332763671875,1.5955461263656616,1.1261882781982422,1.1409138441085815
1713358257758276400,4.7732763671875,1.1396430730819702,1.0845832824707031,1.6546952724456787
1713358257768255700,4.783255859375,0.3437483310699463,0.8987884521484375,1.9585533142089844
1713358257778235000,4.79323486328125,-0.4168895483016968,0.5395479202270508,1.8999125957489014
1713358257788183600,4.80318359375,-0.7579021453857422,0.2099132537841797,1.8677897453308105
1713358257798185700,4.813185791015625,-0.6576848030090332,-0.07800769805908203,1.753831386566162
1713358257808164900,4.823164794921875,-0.5770186185836792,-0.3718852996826172,1.4763686656951904
1713358257818113500,4.833113525390625,-0.33999311923980713,-0.7265100479125977,1.0237171649932861
1713358257828093000,4.843093017578125,-0.1930941343307495,-0.7836847305297852,0.4532979726791382
1713358257838041600,4.85304150390625,0.049166321754455566,-0.5322132110595703,0.07591938972473145
1713358257848020700,4.863020751953125,0.42644667625427246,-0.0965719223022461,0.3062096834182739
1713358257858000100,4.873000244140625,0.6724448204040527,0.3562040328979492,0.46715354919433594
1713358257867948800,4.88294873046875,0.4700256586074829,0.6013288497924805,0.3799152374267578
1713358257877928200,4.89292822265625,0.2542375326156616,0.5838689804077148,0.5513873100280762
1713358257887907300,4.9029072265625,0.3905644416809082,0.5216951370239258,0.8209620714187622
1713358257897886500,4.912886474609375,0.5465211868286133,0.47243213653564453,1.5270452499389648
1713358257907835400,4.92283544921875,0.5049402713775635,0.4028129577636719,2.2220406532287598
1713358257917814500,4.932814453125,0.5682058334350586,0.2151784896850586,2.8717055320739746
1713358257927794000,4.9427939453125,0.7809131145477295,0.18002033233642578,2.826777935028076
1713358257937742600,4.95274267578125,1.6638529300689697,0.28594970703125,2.545440673828125
1713358257947721700,4.9627216796875,3.3246631622314453,0.6892814636230469,1.8181421756744385
1713358257957701000,4.972701171875,4.630187511444092,1.113753318786621,1.278342366218567
1713358257967649800,4.98264990234375,5.587496757507324,1.5657539367675781,1.53078031539917
1713358257977629000,4.99262890625,5.706297874450684,2.158656120300293,2.199700355529785
1713358257987608300,5.0026083984375,4.955389976501465,2.363753318786621,2.9727835655212402
1713358257997557000,5.012556884765625,4.065420150756836,1.9863290786743164,3.6187448501586914
1713358258007536000,5.0225361328125,2.963345527648926,0.37755584716796875,3.646179676055908
1713358258017515500,5.032515625,2.038137435913086,-1.9144878387451172,2.8083620071411133
1713358258027464200,5.042464111328125,1.5851690769195557,-4.293909072875977,1.2815440893173218
1713358258037443600,5.052443603515625,1.3037610054016113,-6.383496284484863,-0.10550260543823242
1713358258047422700,5.062422607421875,2.0712039470672607,-7.260964393615723,-0.5522925853729248
1713358258057371400,5.072371337890625,3.5356767177581787,-6.587989807128906,-0.2632019519805908
1713358258067350800,5.082350830078125,4.186151504516602,-4.0494842529296875,1.212036371231079
1713358258077299500,5.092299560546875,3.1395905017852783,-1.253575325012207,1.8522968292236328
1713358258087278600,5.102278564453125,1.5775017738342285,0.8653221130371094,2.226360559463501
1713358258097258000,5.112258056640625,0.7881004810333252,2.195553779602051,2.6697421073913574
1713358258107206700,5.12220654296875,-0.3300241231918335,3.3493213653564453,2.295741319656372
1713358258117185800,5.132185791015625,-1.720133662223816,4.030000686645508,1.1329673528671265
1713358258127165200,5.142165283203125,-2.8680906295776367,3.8945770263671875,0.13030773401260376
1713358258137113900,5.15211376953125,-2.867446184158325,3.1927928924560547,-1.066325068473816
1713358258147093200,5.16209326171875,-1.9218796491622925,1.9685258865356445,-2.8643834590911865
1713358258157072400,5.172072265625,-1.4309072494506836,-0.3439035415649414,-4.844631195068359
1713358258167021000,5.18202099609375,-1.3922725915908813,-3.406825065612793,-6.22245979309082
1713358258177000400,5.19200048828125,-1.1729793548583984,-6.728706359863281,-7.66738748550415
1713358258186979600,5.2019794921875,-0.740882158279419,-9.939009666442871,-9.315546989440918
1713358258196958700,5.211958740234375,-0.8798024654388428,-11.862358093261719,-8.07168960571289
1713358258206907600,5.22190771484375,-2.794851779937744,-10.067543029785156,-3.9915244579315186
1713358258216886800,5.23188671875,-5.861061096191406,-6.882430076599121,-1.3252501487731934
1713358258226866200,5.2418662109375,-8.597970008850098,-5.091701507568359,-0.39939290285110474
1713358258236814800,5.25181494140625,-9.97688102722168,-3.241598129272461,1.4104077816009521
1713358258246794000,5.2617939453125,-9.339056968688965,-1.3052453994750977,2.9734408855438232
1713358258256773400,5.2717734375,-7.452536582946777,-0.3678474426269531,3.5456795692443848
1713358258266722000,5.28172216796875,-5.239907741546631,0.9555034637451172,3.5049211978912354
1713358258276701200,5.291701171875,-2.8787145614624023,2.4306840896606445,3.7196481227874756
1713358258286680600,5.3016806640625,-1.0165194272994995,2.913846969604492,3.0757853984832764
1713358258296629200,5.311629150390625,0.7747882604598999,3.3828306198120117,2.2632081508636475
1713358258306608400,5.3216083984375,2.132035970687866,3.6914100646972656,2.010542631149292
1713358258316587800,5.331587890625,1.8233087062835693,4.004579544067383,1.417420506477356
1713358258326536400,5.341536376953125,1.567436695098877,4.155019760131836,0.8134388327598572
1713358258336515800,5.351515869140625,1.5051276683807373,4.157369613647461,-0.146951824426651
1713358258346495000,5.361494873046875,1.3328592777252197,4.516090393066406,-0.7377363443374634
1713358258356443600,5.371443603515625,1.1142796277999878,5.018182754516602,-1.4873090982437134
1713358258366423000,5.381423095703125,0.5972825884819031,5.33427619934082,-2.031545877456665
1713358258376371700,5.391371826171875,0.06319555640220642,5.391195297241211,-1.86056649684906
1713358258386350800,5.401350830078125,0.027097225189208984,5.048813819885254,-1.6350091695785522
1713358258396330200,5.411330322265625,0.11575824022293091,4.516196250915527,-1.6277718544006348
1713358258406279000,5.42127880859375,0.17048180103302002,3.8325862884521484,-1.7765605449676514
1713358258416258000,5.431258056640625,0.014377176761627197,2.8628950119018555,-1.945547103881836
1713358258426237400,5.441237548828125,-0.186387836933136,1.7829151153564453,-2.2310681343078613
1713358258436186000,5.45118603515625,-0.24614351987838745,1.0232048034667969,-2.2325439453125
1713358258446165500,5.46116552734375,-0.25427693128585815,0.6520214080810547,-1.6858465671539307
1713358258456144600,5.47114453125,-0.17726635932922363,0.6869525909423828,-0.9612725377082825
1713358258466093300,5.48109326171875,-0.04292541742324829,0.7325763702392578,-0.30390292406082153
1713358258476072700,5.49107275390625,0.13614016771316528,0.5973711013793945,0.8272884488105774
1713358258486051800,5.5010517578125,0.39228957891464233,0.46730995178222656,2.341841220855713
1713358258496031200,5.51103125,0.844897985458374,0.3869924545288086,3.940903902053833
1713358258505980000,5.52097998046875,1.0833821296691895,0.5611982345581055,5.2036919593811035
1713358258515959000,5.530958984375,0.937781035900116,-0.03335857391357422,6.798316478729248
1713358258525938400,5.5409384765625,0.5036669373512268,-1.0895414352416992,7.3880228996276855
1713358258535887000,5.55088720703125,-0.24794894456863403,-2.166667938232422,5.919186115264893
1713358258545866200,5.5608662109375,-1.05619215965271,-3.524120330810547,3.156157970428467
1713358258555845600,5.570845703125,-1.3065067529678345,-4.647193908691406,1.1777803897857666
1713358258565794300,5.580794189453125,0.009182572364807129,-5.013567924499512,-0.7311213612556458
1713358258575773400,5.5907734375,2.328244686126709,-4.985414505004883,-2.815213441848755
1713358258585752800,5.6007529296875,3.501782178878784,-3.751819610595703,-4.9691081047058105
1713358258595701500,5.610701416015625,2.129094362258911,-2.4063854217529297,-3.9131882190704346
1713358258605681000,5.620680908203125,1.5581079721450806,-3.984973907470703,-1.029951810836792
1713358258615660000,5.630659912109375,2.184478521347046,-7.180468559265137,-1.744503140449524
1713358258625608700,5.640608642578125,-0.7615414261817932,-11.48166561126709,-4.806882858276367
1713358258635588000,5.650588134765625,-6.695196151733398,-14.418819427490234,-5.0291337966918945
1713358258645536800,5.660536865234375,-10.18596076965332,-11.268953323364258,-2.859956979751587
1713358258655516000,5.670515869140625,-8.695009231567383,-5.0481367111206055,-2.3121609687805176
1713358258665495300,5.680495361328125,-4.591413497924805,-1.2858686447143555,1.6815842390060425
1713358258675444000,5.69044384765625,-1.7998669147491455,0.6472587585449219,3.094186305999756
1713358258685423000,5.700423095703125,-0.6797997951507568,1.6630792617797852,2.002735137939453
1713358258695402500,5.710402587890625,-0.17743897438049316,2.786670684814453,2.2405552864074707
1713358258705351200,5.72035107421875,-0.10556477308273315,3.9082860946655273,2.5249452590942383
1713358258715330300,5.730330322265625,-0.4460108280181885,5.076336860656738,1.506044626235962
1713358258725309700,5.740309814453125,-0.02255725860595703,5.919919013977051,0.9160182476043701
1713358258735258400,5.75025830078125,1.1901614665985107,5.2561187744140625,0.2992910146713257
1713358258745237800,5.76023779296875,2.6894097328186035,2.9701766967773438,-1.3686773777008057
1713358258755217000,5.770216796875,3.0690925121307373,0.6223382949829102,-5.751224040985107
1713358258765196000,5.780196044921875,2.3994507789611816,-1.3129034042358398,-9.878580093383789
1713358258775145000,5.79014501953125,0.7770709991455078,-2.6194257736206055,-12.731393814086914
1713358258785124000,5.8001240234375,-0.7573132514953613,-2.3321104049682617,-12.367003440856934
1713358258795103500,5.810103515625,-0.8049799203872681,0.1698751449584961,-7.893170356750488
1713358258805052200,5.82005224609375,0.8610323667526245,3.5681447982788086,-5.251528263092041
1713358258815031300,5.83003125,2.4528651237487793,5.79209041595459,-2.9155194759368896
1713358258825010700,5.8400107421875,3.182471513748169,6.583792686462402,-1.0247639417648315
1713358258834959400,5.84995947265625,3.16046142578125,6.272649765014648,-0.5905032157897949
1713358258844938500,5.8599384765625,2.751298189163208,5.317360877990723,0.13426584005355835
1713358258854918000,5.86991796875,2.255575180053711,4.0177202224731445,1.4080891609191895
1713358258864866600,5.879866455078125,0.9806900024414062,2.2911739349365234,2.18149995803833
1713358258874845700,5.889845703125,0.14720940589904785,0.7386713027954102,2.817108631134033
1713358258884825000,5.8998251953125,-0.48404502868652344,-0.3705463409423828,2.8808434009552
1713358258894773800,5.909773681640625,-0.7164967060089111,-0.9952869415283203,2.773651123046875
1713358258904753200,5.919753173828125,-0.9770911931991577,-0.9202632904052734,3.150310516357422
1713358258914701800,5.929701904296875,-1.4953993558883667,-0.49175071716308594,3.0465328693389893
1713358258924681000,5.939680908203125,-1.8507484197616577,0.24858379364013672,3.0184733867645264
1713358258934660400,5.949660400390625,-1.9410748481750488,0.27275943756103516,2.732227325439453
1713358258944609000,5.959609130859375,-1.7218050956726074,-0.15282249450683594,2.225579261779785
1713358258954588200,5.969588134765625,-1.3596196174621582,-0.6959714889526367,1.4500415325164795
1713358258964567600,5.979567626953125,-0.7972462177276611,-1.0872621536254883,0.7374459505081177
1713358258974516200,5.98951611328125,-0.049301743507385254,-0.973689079284668,0.42015451192855835
1713358258984495400,5.999495361328125,0.6106894016265869,-0.6355733871459961,0.5224374532699585
1713358258994474800,6.009474853515625,1.108201026916504,-0.3043546676635742,0.6718454360961914
1713358259004423400,6.01942333984375,1.527635097503662,0.1667165756225586,0.6041115522384644
1713358259014402800,6.02940283203125,2.1741418838500977,0.6519098281860352,-0.10789895057678223
1713358259024382000,6.0393818359375,3.4666364192962646,1.0710458755493164,-0.6100790500640869
1713358259034330600,6.04933056640625,5.218144416809082,1.3403959274291992,-0.7787390351295471
1713358259044310000,6.05931005859375,7.300969123840332,1.6598987579345703,-1.0817763805389404
1713358259054289200,6.0692890625,8.915305137634277,1.5062503814697266,-1.393314242362976
1713358259064268500,6.0792685546875,8.519723892211914,1.5634803771972656,-1.0035063028335571
1713358259074217200,6.08921728515625,6.091068267822266,1.5833253860473633,0.5654178261756897
1713358259084196400,6.0991962890625,3.5747127532958984,0.7300910949707031,2.9701313972473145
1713358259094175700,6.10917578125,1.8527235984802246,-1.007065773010254,4.951231956481934
1713358259104124400,6.11912451171875,1.1204957962036133,-2.825296401977539,5.114450454711914
1713358259114103600,6.129103515625,1.019850492477417,-4.222077369689941,3.85469651222229
1713358259124083000,6.1390830078125,1.0601513385772705,-4.927460670471191,2.612640857696533
1713358259134031600,6.149031494140625,1.9000086784362793,-4.945348739624023,2.514604330062866
1713358259144010800,6.1590107421875,2.3590145111083984,-3.622121810913086,3.5168163776397705
1713358259153990100,6.168990234375,2.114513397216797,-2.1090850830078125,2.8972411155700684
1713358259163938800,6.178938720703125,1.7991406917572021,-1.1834383010864258,2.1540145874023438
1713358259173918000,6.18891796875,1.5902795791625977,-0.2657279968261719,1.7297427654266357
1713358259183867000,6.198866943359375,0.6618365049362183,0.6168632507324219,1.0027319192886353
1713358259193846000,6.208845947265625,-0.06281924247741699,1.077707290649414,-0.1946869194507599
1713358259203825400,6.218825439453125,-0.47419023513793945,1.2886581420898438,-1.387050747871399
1713358259213774000,6.228774169921875,-0.7218948602676392,1.2402267456054688,-2.989431142807007
1713358259223753200,6.238753173828125,-1.7060470581054688,0.7995204925537109,-5.263944625854492
1713358259233732600,6.248732666015625,-2.7015466690063477,-0.6259326934814453,-6.783261775970459
1713358259243681300,6.258681396484375,-3.3645694255828857,-3.184567451477051,-8.445208549499512
1713358259253660400,6.268660400390625,-3.067925214767456,-5.914615631103516,-10.779117584228516
1713358259263639800,6.278639892578125,-2.249354124069214,-8.116964340209961,-10.23294448852539
1713358259273588500,6.28858837890625,-1.795588731765747,-8.952249526977539,-7.352522850036621
1713358259283567600,6.298567626953125,-3.0549261569976807,-7.763101577758789,-2.3803415298461914
1713358259293516500,6.3085166015625,-6.031219005584717,-6.520628929138184,0.4453340768814087
1713358259303495700,6.31849560546875,-9.789769172668457,-5.553110122680664,1.1505550146102905
1713358259313475000,6.32847509765625,-11.439295768737793,-4.652199745178223,2.6381945610046387
1713358259323454200,6.3384541015625,-10.255436897277832,-2.9958276748657227,4.6778130531311035
1713358259333403000,6.34840283203125,-9.181660652160645,-0.4989480972290039,5.528774738311768
1713358259343382300,6.35838232421875,-7.224917888641357,1.507826805114746,6.154414653778076
1713358259353361400,6.368361328125,-4.627957344055176,2.6224050521850586,4.979163646697998
1713358259363310000,6.37831005859375,-1.1041662693023682,3.464968681335449,2.739511489868164
1713358259373289500,6.38828955078125,3.4517838954925537,4.561095237731934,2.0692949295043945
1713358259383268600,6.3982685546875,5.700014591217041,4.654244422912598,1.0915945768356323
1713358259393217300,6.40821728515625,4.809663772583008,4.154411315917969,-0.884266197681427
1713358259403196700,6.41819677734375,4.543717861175537,4.128894805908203,-2.31773042678833
1713358259413175800,6.42817578125,4.191361427307129,4.02531623840332,-3.212179660797119
1713358259423124700,6.438124755859375,3.319121837615967,4.009455680847168,-3.7447729110717773
1713358259433104000,6.448103759765625,1.6169878244400024,4.442137718200684,-2.965456247329712
1713358259443083000,6.4580830078125,0.5328299403190613,4.651169776916504,-2.3355488777160645
1713358259453032000,6.468031982421875,-0.8359710574150085,4.601537704467773,-1.544323444366455
1713358259463011000,6.478010986328125,-2.036775588989258,4.387955665588379,-1.0902351140975952
1713358259472990500,6.487990478515625,-1.9878184795379639,3.947188377380371,-0.9733510613441467
1713358259482939100,6.497939208984375,-1.7240443229675293,3.2802200317382812,-0.8816800713539124
1713358259492918300,6.507918212890625,-1.4259593486785889,2.6268386840820312,-1.2364627122879028
1713358259502897700,6.517897705078125,-0.6149798631668091,2.4166383743286133,-1.5170331001281738
1713358259512846300,6.527846435546875,0.13557201623916626,2.5355710983276367,-1.5071964263916016
1713358259522825500,6.537825439453125,0.5367758870124817,2.5883569717407227,-1.1344490051269531
1713358259532804900,6.547804931640625,0.768384575843811,2.2693567276000977,-0.4177865982055664
1713358259542753500,6.55775341796875,1.0091803073883057,1.758143424987793,0.7992188930511475
1713358259552732700,6.567732666015625,1.4637441635131836,1.3600082397460938,2.798231363296509
1713358259562681600,6.577681640625,2.1544313430786133,1.1116514205932617,5.396139144897461
1713358259572660700,6.58766064453125,2.624910831451416,0.6059446334838867,7.356107711791992
1713358259582639900,6.597639892578125,2.185952663421631,-0.8397140502929688,7.538124084472656
1713358259592619300,6.607619384765625,1.3501222133636475,-3.0868635177612305,6.502282619476318
1713358259602568000,6.61756787109375,-1.5333669185638428,-5.516362190246582,4.94339656829834
1713358259612547300,6.62754736328125,-4.679789066314697,-7.662313461303711,2.9908528327941895
1713358259622526500,6.6375263671875,-3.7551255226135254,-7.931736946105957,0.4636160731315613
1713358259632475100,6.64747509765625,-1.350386381149292,-7.508735656738281,-3.4672982692718506
1713358259642454500,6.65745458984375,2.760369300842285,-6.891027450561523,-6.417154788970947
1713358259652433700,6.66743359375,4.7696943283081055,-5.032136917114258,-6.785605430603027
1713358259662382300,6.67738232421875,3.7450408935546875,-2.6172704696655273,-3.9321722984313965
1713358259672361700,6.68736181640625,3.5974645614624023,-3.551424980163574,0.6307727694511414
1713358259682340900,6.6973408203125,4.669309616088867,-6.302247047424316,1.2933695316314697
1713358259692289500,6.70728955078125,2.3105690479278564,-8.571856498718262,-0.9663148522377014
1713358259702269000,6.71726904296875,-4.542823314666748,-9.216182708740234,-4.464923858642578
1713358259712248000,6.727248046875,-8.835514068603516,-7.801702499389648,-6.249996185302734
1713358259722197000,6.737197021484375,-10.604198455810547,-2.8876028060913086,-5.140408039093018
1713358259732176100,6.747176025390625,-8.46605396270752,0.1080474853515625,-1.9036991596221924
1713358259742155300,6.7571552734375,-3.9868955612182617,1.0755033493041992,0.596659779548645
1713358259752104200,6.767104248046875,-0.31947171688079834,2.275336265563965,1.658605694770813
1713358259762083300,6.777083251953125,1.7573827505111694,3.832813262939453,1.226393461227417
1713358259772062700,6.787062744140625,2.9367728233337402,5.093249320983887,0.876829981803894
1713358259782011400,6.797011474609375,1.6292952299118042,5.888975143432617,-0.15256035327911377
1713358259791990500,6.806990478515625,0.015781760215759277,5.729662895202637,-1.261171579360962
1713358259801970000,6.816969970703125,-0.004618644714355469,4.147941589355469,-1.7341398000717163
1713358259811918600,6.826918701171875,0.9339892864227295,2.1629714965820312,-3.27286434173584
1713358259821897700,6.836897705078125,1.3356279134750366,0.6367855072021484,-5.7950005531311035
1713358259831846700,6.8468466796875,1.169025182723999,-0.4298849105834961,-7.915210723876953
1713358259841825800,6.85682568359375,0.2088944911956787,-1.5316715240478516,-9.420034408569336
1713358259851805000,6.866804931640625,-0.7576947212219238,-2.203502655029297,-9.344941139221191
1713358259861753900,6.87675390625,-1.00771164894104,-1.3808956146240234,-5.8520917892456055
1713358259871733000,6.88673291015625,-0.23743104934692383,0.9442291259765625,-3.025120735168457
1713358259881712400,6.89671240234375,0.9203592538833618,3.7330398559570312,-1.1248998641967773
1713358259891691500,6.90669140625,1.809275507926941,5.551136016845703,-0.5318999886512756
1713358259901640200,6.91664013671875,2.241657257080078,6.075661659240723,-0.8746010065078735
1713358259911619600,6.92661962890625,2.4860944747924805,5.693058967590332,-1.5997912883758545
1713358259921598700,6.9365986328125,2.1442084312438965,4.871269226074219,-1.4507097005844116
1713358259931547400,6.94654736328125,1.0167913436889648,3.4840259552001953,-1.0232330560684204
1713358259941526800,6.95652685546875,-0.019697070121765137,1.6580257415771484,-0.2512859106063843
1713358259951506000,6.966505859375,-0.7557060718536377,-0.20823287963867188,0.5230575799942017
1713358259961454600,6.97645458984375,-0.5260345935821533,-1.7492952346801758,1.4802380800247192
1713358259971434000,6.98643408203125,-0.08285796642303467,-2.714735984802246,2.050717353820801
1713358259981413000,6.9964130859375,-0.13359570503234863,-2.6974687576293945,2.0564115047454834
1713358259991362000,7.006362060546875,-0.6839731931686401,-1.774287223815918,2.0523016452789307
1713358260001341200,7.016341064453125,-1.2812527418136597,-0.3831310272216797,2.038154125213623
1713358260011320300,7.0263203125,-1.2944713830947876,0.8794364929199219,1.937676191329956
1713358260021269200,7.036269287109375,-0.7986775636672974,1.5667448043823242,1.5818202495574951
1713358260031248400,7.046248291015625,-0.11880981922149658,1.8355236053466797,1.3130393028259277
1713358260041227500,7.0562275390625,0.5698564052581787,1.7588443756103516,1.0398592948913574
1713358260051176400,7.066176513671875,1.151159644126892,1.5627880096435547,1.2620307207107544
1713358260061155600,7.076155517578125,1.6442384719848633,1.0332279205322266,1.656376838684082
1713358260071135000,7.086135009765625,1.9389456510543823,0.47258472442626953,2.2562203407287598
1713358260081083600,7.096083740234375,2.9650802612304688,-0.1560497283935547,1.9877264499664307
1713358260091062800,7.106062744140625,4.987238883972168,-0.5419998168945312,1.087814450263977
1713358260101011500,7.116011474609375,6.4729156494140625,-0.6875343322753906,0.36271029710769653
1713358260110990800,7.125990966796875,7.077286720275879,-0.3748617172241211,0.01662379503250122
1713358260120970000,7.135969970703125,6.912319183349609,0.5658760070800781,0.5592097640037537
1713358260130919000,7.1459189453125,5.9678635597229,1.2923173904418945,1.5755245685577393
1713358260140898000,7.15589794921875,5.218356132507324,1.6435813903808594,3.1878011226654053
1713358260150877200,7.165877197265625,4.414460182189941,1.2547712326049805,4.609562397003174
1713358260160826000,7.175826171875,3.6458077430725098,-0.11333274841308594,4.694922924041748
1713358260170805200,7.18580517578125,2.7030599117279053,-1.9743080139160156,3.680680274963379
1713358260180784600,7.19578466796875,1.9611537456512451,-4.191530227661133,2.669869899749756
1713358260190763800,7.205763671875,2.5320982933044434,-5.627206802368164,1.24260675907135
1713358260200712400,7.21571240234375,3.1008033752441406,-5.566363334655762,0.9756931662559509
1713358260210691800,7.22569189453125,2.496316432952881,-4.116220474243164,2.0098626613616943
1713358260220671000,7.2356708984375,1.2005019187927246,-2.646350860595703,3.1166586875915527
1713358260230619600,7.24561962890625,0.5930196046829224,-1.1567573547363281,2.723606824874878
1713358260240599000,7.25559912109375,-0.07963216304779053,0.33750247955322266,2.199890613555908
1713358260250578200,7.265578125,-1.5923395156860352,1.2387189865112305,1.375921368598938
1713358260260526800,7.27552685546875,-2.925433397293091,1.5323505401611328,0.635762095451355
1713358260270506200,7.28550634765625,-2.69033145904541,1.9004802703857422,-0.20342189073562622
1713358260280485400,7.2954853515625,-2.233447551727295,2.0983457565307617,-1.763868808746338
1713358260290434300,7.305434326171875,-2.5720629692077637,1.469207763671875,-4.212582588195801
1713358260300413400,7.315413330078125,-3.7012341022491455,-0.334197998046875,-7.525010585784912
1713358260310392600,7.325392578125,-3.9056859016418457,-3.538041114807129,-8.9782075881958
1713358260320341500,7.335341552734375,-2.7086610794067383,-7.087045669555664,-11.143049240112305
1713358260330320600,7.345320556640625,-1.767459511756897,-9.88705062866211,-12.69816780090332
1713358260340300000,7.355300048828125,-1.958827257156372,-10.921422004699707,-10.776412963867188
1713358260350248700,7.365248779296875,-3.212648391723633,-9.110878944396973,-4.868213653564453
1713358260360227800,7.375227783203125,-5.854817867279053,-6.840333938598633,-0.1654651165008545
1713358260370207200,7.385207275390625,-8.670071601867676,-5.691897392272949,1.5281126499176025
1713358260380156000,7.395156005859375,-10.064167976379395,-4.61994743347168,2.6662404537200928
1713358260390135000,7.405135009765625,-9.423057556152344,-2.9052858352661133,4.175285816192627
1713358260400084000,7.415083984375,-8.676505088806152,-0.7358608245849609,5.520525932312012
1713358260410063000,7.42506298828125,-7.673884391784668,1.3042364120483398,6.873098373413086
1713358260420042200,7.435042236328125,-5.970432281494141,2.62477970123291,6.3788042068481445
1713358260429991200,7.4449912109375,-3.751225233078003,3.9068689346313477,5.681389808654785
1713358260439970300,7.45497021484375,0.7652836441993713,4.90511417388916,5.0831427574157715
1713358260449949700,7.46494970703125,4.509437084197998,4.986525535583496,3.7563910484313965
1713358260459928800,7.4749287109375,5.73378324508667,5.102630615234375,2.3403687477111816
1713358260469877500,7.48487744140625,4.128130912780762,4.522158622741699,0.884426474571228
1713358260479857000,7.49485693359375,2.4516642093658447,4.3706159591674805,-0.008624061942100525
1713358260489836000,7.5048359375,1.6916725635528564,4.514039993286133,-1.2829627990722656
1713358260499784700,7.51478466796875,1.448007583618164,4.462943077087402,-2.1985890865325928
1713358260509764000,7.52476416015625,0.88801509141922,4.65279483795166,-2.106496572494507
1713358260519743200,7.5347431640625,0.1284145712852478,4.78000545501709,-2.25410532951355
1713358260529692000,7.54469189453125,-0.14250904321670532,4.835562705993652,-2.472395896911621
1713358260539671300,7.55467138671875,-0.48835766315460205,4.8748016357421875,-2.0504150390625
1713358260549650400,7.564650390625,-0.6500524878501892,4.618501663208008,-1.4831624031066895
1713358260559599000,7.57459912109375,-0.623340368270874,4.189496040344238,-1.412357211112976
1713358260569578500,7.58457861328125,-0.4977138638496399,3.77719783782959,-1.4433585405349731
1713358260579557600,7.5945576171875,-0.3230257034301758,3.3386850357055664,-1.5100429058074951
1713358260589506600,7.604506591796875,-0.08114194869995117,2.878726005554199,-1.6272485256195068
1713358260599485700,7.614485595703125,0.029238998889923096,2.4425601959228516,-1.346279263496399
1713358260609464800,7.62446484375,0.19122463464736938,1.955735206604004,-0.4204162657260895
1713358260619413800,7.634413818359375,0.5080411434173584,1.4130659103393555,0.997631311416626
1713358260629393000,7.644392822265625,1.1359323263168335,0.9714508056640625,2.8436949253082275
1713358260639372300,7.654372314453125,1.8953557014465332,0.45066356658935547,4.8443450927734375
1713358260649321000,7.664321044921875,2.191112756729126,-0.304962158203125,6.567033767700195
1713358260659300000,7.674300048828125,1.7089405059814453,-1.4336652755737305,6.95838737487793
1713358260669248800,7.684248779296875,0.6344927549362183,-2.7000350952148438,5.9134345054626465
1713358260679228200,7.694228271484375,-1.680497169494629,-4.242860794067383,3.1376194953918457
1713358260689207300,7.704207275390625,-3.1594183444976807,-5.653684616088867,0.9489951133728027
1713358260699156200,7.71415625,-1.5900112390518188,-5.925992965698242,-0.06370276212692261
1713358260709135400,7.72413525390625,0.829046905040741,-5.3737335205078125,-2.578197956085205
1713358260719114500,7.734114501953125,2.81514835357666,-4.35988712310791,-5.32863712310791
1713358260729063400,7.7440634765625,3.176696300506592,-2.0458412170410156,-5.30147647857666
1713358260739042600,7.75404248046875,3.4781367778778076,-0.18172454833984375,-1.7672669887542725
1713358260749022000,7.76402197265625,3.723905563354492,0.0109710693359375,2.1655101776123047
1713358260759001000,7.7740009765625,4.05335807800293,-1.3182697296142578,4.242645263671875
1713358260768949800,7.78394970703125,1.9147579669952393,-5.397076606750488,3.4273390769958496
1713358260778929200,7.79392919921875,-4.515323638916016,-13.379928588867188,-1.0069829225540161
1713358260788908300,7.803908203125,-12.849899291992188,-19.925588607788086,-2.952275514602661
1713358260798857000,7.81385693359375,-19.904830932617188,-17.02220344543457,-6.949126243591309
1713358260808836400,7.82383642578125,-13.135704040527344,-6.28404426574707,-7.4090752601623535
1713358260818815500,7.8338154296875,-0.9709481000900269,0.4297761917114258,-2.815716028213501
1713358260828764200,7.84376416015625,2.8499739170074463,3.412838935852051,0.1360190510749817
1713358260838743600,7.85374365234375,3.378781318664551,4.456354141235352,1.5102216005325317
1713358260848722700,7.86372265625,2.7742979526519775,4.780112266540527,2.240488052368164
1713358260858671600,7.873671630859375,1.9301272630691528,5.26535701751709,1.0222859382629395
1713358260868650800,7.883650634765625,1.4178839921951294,6.234834671020508,-1.4878222942352295
1713358260878630000,7.8936298828125,2.0035898685455322,5.490079879760742,-2.160346508026123
1713358260888578800,7.903578857421875,3.0974631309509277,3.241061210632324,-3.8855814933776855
1713358260898558000,7.913557861328125,2.588785171508789,1.0416955947875977,-7.252131462097168
1713358260908537300,7.923537353515625,1.3992090225219727,-0.4199981689453125,-10.293190002441406
1713358260918486000,7.933486083984375,0.09154796600341797,-1.4299287796020508,-10.399261474609375
1713358260928465200,7.943465087890625,-0.6614223718643188,-1.8978052139282227,-7.7983903884887695
1713358260938413800,7.953413818359375,-0.14329934120178223,-0.8817310333251953,-5.02601957321167
1713358260948393200,7.963393310546875,0.3829822540283203,1.3677005767822266,-3.315673589706421
1713358260958372400,7.973372314453125,1.1342705488204956,3.2748279571533203,-2.028953790664673
1713358260968321000,7.983321044921875,2.4053404331207275,4.243163108825684,-2.177994966506958
1713358260978300400,7.993300537109375,2.8245644569396973,4.853847503662109,-2.3009355068206787
1713358260988279600,8.003279541015624,2.1904516220092773,4.771421432495117,-2.1370580196380615
1713358260998228500,8.013228515625,1.0800310373306274,4.294208526611328,-1.3107980489730835
1713358261008207600,8.02320751953125,0.16611158847808838,3.4917564392089844,-0.7869437336921692
1713358261018186800,8.033186767578124,-0.849058985710144,2.5039291381835938,0.02004295587539673
1713358261028135700,8.0431357421875,-1.2168464660644531,1.1220808029174805,1.204210877418518
1713358261038114800,8.05311474609375,-0.7139241695404053,-0.001003265380859375,1.7412433624267578
1713358261048094200,8.06309423828125,-0.002405881881713867,-0.8105440139770508,2.3355305194854736
1713358261058073300,8.0730732421875,0.18969249725341797,-1.3213233947753906,2.8426716327667236
1713358261068022000,8.08302197265625,-0.03238236904144287,-1.2878837585449219,3.224236011505127
1713358261078001400,8.09300146484375,-0.09872555732727051,-0.5350065231323242,3.506793975830078
1713358261087980500,8.10298046875,0.17655503749847412,0.47675132751464844,3.1871371269226074
1713358261097929200,8.11292919921875,0.3781620264053345,1.0560102462768555,2.7803714275360107
1713358261107908600,8.12290869140625,0.25753486156463623,1.173844337463379,2.1557064056396484
1713358261117887700,8.1328876953125,0.3390190601348877,0.8303251266479492,1.5920424461364746
1713358261127836400,8.14283642578125,0.7606979608535767,0.5980119705200195,1.73708176612854
1713358261137815800,8.15281591796875,1.4045414924621582,0.35070037841796875,2.0148205757141113
1713358261147795000,8.162794921875,2.529951810836792,0.06890487670898438,2.389474868774414
1713358261157743900,8.172743896484375,4.082650184631348,-0.10712718963623047,2.5306406021118164
1713358261167723000,8.182722900390624,5.990649700164795,0.1514291763305664,2.2431507110595703
1713358261177702100,8.1927021484375,7.722369194030762,0.712824821472168,2.172661781311035
1713358261187651000,8.202651123046875,8.291069030761719,1.2581291198730469,2.325294017791748
1713358261197630200,8.212630126953124,8.010153770446777,1.8180980682373047,2.950390577316284
1713358261207609600,8.222609619140625,6.892142295837402,2.290177345275879,4.626338005065918
1713358261217558300,8.232558349609375,5.288997650146484,1.8669261932373047,6.422849655151367
1713358261227537400,8.242537353515624,3.2950351238250732,0.41904354095458984,6.915182113647461
1713358261237486000,8.252486083984374,2.302990198135376,-1.4855680465698242,5.898196220397949
1713358261247465500,8.262465576171875,1.7981979846954346,-3.258962631225586,3.997957229614258
1713358261257444600,8.272444580078124,2.6361136436462402,-4.167971611022949,2.3782706260681152
1713358261267393500,8.2823935546875,4.456820487976074,-3.755093574523926,1.0173290967941284
1713358261277372700,8.29237255859375,5.014856338500977,-2.6760358810424805,0.8454704880714417
1713358261287351800,8.302351806640624,3.7587664127349854,-1.6120195388793945,0.8878883123397827
1713358261297300700,8.31230078125,3.1186282634735107,-0.6682205200195312,0.4277532696723938
1713358261307280000,8.32227978515625,1.8998841047286987,0.22292423248291016,-0.18806606531143188
1713358261317259300,8.33225927734375,-0.49152958393096924,0.6366987228393555,-0.14585179090499878
1713358261327208000,8.3422080078125,-2.682353973388672,0.7662849426269531,-0.1091037392616272
1713358261337187000,8.35218701171875,-3.6058952808380127,0.5657243728637695,-1.0555585622787476
1713358261347166500,8.36216650390625,-4.283019542694092,-0.0234527587890625,-3.3425397872924805
1713358261357145600,8.3721455078125,-5.773730754852295,-1.5570058822631836,-5.899023532867432
1713358261367094300,8.38209423828125,-6.628876686096191,-4.633725166320801,-9.061614990234375
1713358261377073700,8.39207373046875,-5.858247756958008,-8.982138633728027,-12.493569374084473
1713358261387052800,8.402052734375,-3.608917236328125,-13.02361011505127,-13.771231651306152
1713358261397001500,8.41200146484375,-1.7083709239959717,-14.944816589355469,-12.452717781066895
1713358261406980900,8.42198095703125,-3.8973848819732666,-12.717557907104492,-7.6484880447387695
1713358261416960000,8.4319599609375,-7.472986221313477,-9.127533912658691,-1.725675344467163
1713358261426908700,8.44190869140625,-8.723555564880371,-6.775728225708008,1.2563716173171997
1713358261436888000,8.45188818359375,-9.557926177978516,-4.678506851196289,3.2440600395202637
1713358261446867200,8.4618671875,-9.821512222290039,-2.62294864654541,4.695720672607422
1713358261456816000,8.471816162109375,-9.041702270507812,-1.0637578964233398,5.970458984375
1713358261466795300,8.481795166015624,-6.503582954406738,0.08127403259277344,6.469762802124023
1713358261476744000,8.491743896484374,-4.7055888175964355,1.5737638473510742,6.793147087097168
1713358261486723300,8.501723388671875,-1.6490354537963867,2.432744026184082,6.840217113494873
1713358261496702500,8.511702392578124,1.577455997467041,2.572108268737793,6.489931583404541
1713358261506651100,8.521651123046874,2.8253235816955566,2.2479867935180664,3.9861183166503906
1713358261516630500,8.531630615234375,3.3883047103881836,2.450469970703125,1.738207221031189
1713358261526609700,8.541609619140624,3.050173759460449,3.3844003677368164,0.3638454079627991
1713358261536558300,8.551558349609374,2.630979061126709,4.03837776184082,-0.946916937828064
1713358261546537700,8.561537841796875,2.2950663566589355,5.032130241394043,-1.503612756729126
1713358261556486400,8.571486328125,1.0123130083084106,5.639756202697754,-2.060408592224121
1713358261566465800,8.5814658203125,0.10600420832633972,6.304879188537598,-2.1489601135253906
1713358261576445000,8.59144482421875,-0.31277042627334595,6.882571220397949,-2.4866907596588135
1713358261586424000,8.601424072265624,-0.030157864093780518,7.249384880065918,-2.554089069366455
1713358261596373000,8.611373046875,0.5384570956230164,7.2411909103393555,-2.492340087890625
1713358261606352100,8.62135205078125,0.5242092609405518,6.613067626953125,-2.4509387016296387
1713358261616331500,8.63133154296875,0.3397742509841919,5.715664863586426,-2.7696704864501953
1713358261626310700,8.641310546875,0.2042141556739807,4.922786712646484,-3.0710248947143555
1713358261636259300,8.65125927734375,0.23563146591186523,4.200925827026367,-2.8977270126342773
1713358261646238700,8.66123876953125,0.6265147924423218,3.432570457458496,-2.397747755050659
1713358261656217900,8.6712177734375,0.9243448972702026,2.8657379150390625,-1.404402256011963
1713358261666166500,8.68116650390625,1.1489940881729126,2.398988723754883,-0.012108862400054932
1713358261676146000,8.69114599609375,1.3139005899429321,1.821202278137207,1.6114614009857178
1713358261686125000,8.701125,1.6129111051559448,1.0909967422485352,3.6100852489471436
1713358261696073700,8.71107373046875,1.9356070756912231,0.3126516342163086,5.802905559539795
1713358261706053000,8.72105322265625,1.516825795173645,-0.5073099136352539,7.2331132888793945
1713358261716032300,8.7310322265625,-0.10931140184402466,-2.1328554153442383,5.939130783081055
1713358261725981200,8.740981201171875,-1.403757929801941,-3.928234100341797,2.564258098602295
1713358261735960300,8.750960205078124,-1.678462266921997,-5.28817081451416,-0.5584167242050171
1713358261745939500,8.760939453125,0.02511775493621826,-5.740713119506836,-3.318314552307129
1713358261755888400,8.770888427734375,2.8757879734039307,-6.225799560546875,-6.941328048706055
1713358261765867500,8.780867431640624,4.443025588989258,-5.346632957458496,-6.873180866241455
1713358261775816200,8.790816162109374,4.369991302490234,-1.5238399505615234,-2.1389594078063965
1713358261785795600,8.800795654296875,3.885530710220337,1.3196945190429688,1.1411244869232178
1713358261795774700,8.810774658203124,2.381890296936035,1.3805646896362305,3.863831043243408
1713358261805723400,8.820723388671874,0.9217714667320251,-1.8585262298583984,7.013945579528809
1713358261815702800,8.830702880859375,-2.105976104736328,-7.129075050354004,7.127397537231445
1713358261825682000,8.840681884765624,-7.306413650512695,-17.365131378173828,0.4056863784790039
1713358261835630800,8.850630859375,-17.46788215637207,-26.949382781982422,-5.608603477478027
1713358261845610000,8.86060986328125,-16.3261661529541,-15.27439022064209,-6.9866251945495605
1713358261855558700,8.87055859375,-4.470305919647217,-2.595304489135742,-7.568477630615234
1713358261865538000,8.8805380859375,-0.4862290024757385,2.703108787536621,-4.06328821182251
1713358261875517200,8.89051708984375,-0.5317641496658325,5.3138837814331055,-1.0429911613464355
1713358261885496300,8.900496337890624,-0.48949140310287476,4.721814155578613,0.5538172721862793
1713358261895445200,8.9104453125,-1.1541810035705566,2.5553207397460938,0.3316481113433838
1713358261905424400,8.92042431640625,-0.7612651586532593,1.1724472045898438,-0.9570685625076294
1713358261915403800,8.93040380859375,1.3738226890563965,0.9489498138427734,-3.010190486907959
1713358261925352400,8.9403525390625,2.7834956645965576,1.1128559112548828,-5.175826072692871
1713358261935331600,8.95033154296875,3.5124473571777344,1.012467384338379,-7.500275611877441
1713358261945311000,8.96031103515625,3.234236478805542,1.0370101928710938,-8.770393371582031
1713358261955259600,8.970259765625,1.4825479984283447,1.0441932678222656,-7.475720405578613
1713358261965238800,8.98023876953125,-0.36772215366363525,1.3220977783203125,-5.832973957061768
1713358261975218200,8.99021826171875,-0.6071790456771851,1.4235591888427734,-3.973083019256592
1713358261985166800,9.000166748046874,-0.061846375465393066,1.5634918212890625,-1.6301769018173218
1713358261995146000,9.01014599609375,0.6390160322189331,2.3252029418945312,-0.28137433528900146
1713358262005125400,9.02012548828125,1.3910789489746094,2.9348011016845703,-1.1099454164505005
1713358262015074000,9.030073974609374,1.5452319383621216,3.651752471923828,-1.7097212076187134
1713358262025053400,9.040053466796875,2.124115467071533,4.5671586990356445,-1.8056257963180542
1713358262035032600,9.050032470703124,2.5880236625671387,5.051252365112305,-1.6739715337753296
1713358262044981200,9.059981201171874,2.273008346557617,5.013923645019531,-0.9232557415962219
1713358262054960600,9.069960693359375,1.6153916120529175,4.425592422485352,-0.1338021457195282
1713358262064939800,9.079939697265624,0.8851306438446045,3.0873451232910156,-0.2668890655040741
1713358262074888400,9.089888427734374,0.2849416732788086,1.493204116821289,-0.07890236377716064
1713358262084867800,9.099867919921875,0.06672811508178711,0.2587757110595703,0.21650069952011108
1713358262094847000,9.109846923828124,-0.22693300247192383,-0.5146455764770508,0.5886006951332092
1713358262104795600,9.119795654296874,-0.43972015380859375,-0.961848258972168,1.5448226928710938
1713358262114775000,9.129775146484375,-0.38994812965393066,-1.2315616607666016,2.2938051223754883
1713358262124754200,9.139754150390624,-0.1954284906387329,-1.0830755233764648,3.047856569290161
1713358262134703000,9.149703125,0.12101173400878906,-0.6226358413696289,3.8892858028411865
1713358262144682200,9.15968212890625,0.507380485534668,0.1537303924560547,4.062386989593506
1713358262154631000,9.169630859375,0.9519225358963013,0.8942079544067383,3.460846424102783
1713358262164610300,9.1796103515625,1.4788810014724731,1.3077573776245117,3.2187132835388184
1713358262174589400,9.18958935546875,1.9930980205535889,1.491593360900879,3.3556177616119385
1713358262184568800,9.19956884765625,2.235694408416748,1.7295904159545898,3.639803409576416
1713358262194548000,9.2095478515625,2.353591203689575,1.5372705459594727,3.241302251815796
1713358262204496600,9.21949658203125,2.4917821884155273,0.9543867111206055,2.621351957321167
1713358262214476000,9.22947607421875,3.10333251953125,0.45161914825439453,2.114640951156616
1713358262224455200,9.239455078125,4.541087627410889,0.19419002532958984,1.5548282861709595
1713358262234403800,9.24940380859375,6.048681259155273,0.39669132232666016,1.3309576511383057
1713358262244383200,9.25938330078125,6.767370700836182,0.606684684753418,1.4396817684173584
1713358262254362400,9.2693623046875,6.447352409362793,0.6814775466918945,2.6555466651916504
1713358262264311000,9.27931103515625,5.394499778747559,0.6109590530395508,3.991018056869507
1713358262274290400,9.28929052734375,3.93623423576355,0.13594341278076172,4.227640151977539
1713358262284269600,9.29926953125,3.0778989791870117,-1.333688735961914,3.678450107574463
1713358262294218500,9.309218505859375,2.90659236907959,-3.031953811645508,2.53881573677063
1713358262304197600,9.31919775390625,3.2764840126037598,-4.159258842468262,1.7063283920288086
1713358262314176800,9.3291767578125,3.875169515609741,-4.960928916931152,1.1784199476242065
1713358262324125700,9.339125732421875,3.5807244777679443,-4.8588104248046875,1.636468529701233
1713358262334104800,9.349104736328124,2.3105390071868896,-3.7589216232299805,2.0514848232269287
1713358262344053500,9.359053466796874,0.46604323387145996,-2.2904977798461914,1.891478419303894
1713358262354033000,9.369032958984375,-0.8913513422012329,-1.2818565368652344,1.2816638946533203
1713358262364012000,9.379011962890624,-2.2015838623046875,-0.31322383880615234,1.0137418508529663
1713358262373960700,9.388960693359374,-3.153740882873535,0.5463132858276367,0.7884325981140137
1713358262383940000,9.398940185546875,-3.6641664505004883,1.040700912475586,-1.118167757987976
1713358262393919200,9.408919189453124,-4.217591285705566,0.8428773880004883,-4.027300834655762
1713358262403868000,9.418867919921874,-5.048671722412109,-0.22381305694580078,-6.424267768859863
1713358262413847300,9.428847412109375,-4.982364177703857,-2.497884750366211,-8.300185203552246
1713358262423826400,9.438826416015624,-3.8946311473846436,-5.647826194763184,-10.180272102355957
1713358262433775400,9.448775390625,-1.8376706838607788,-8.84874439239502,-10.819028854370117
1713358262443754500,9.45875439453125,-0.25261569023132324,-11.164783477783203,-9.951276779174805
1713358262453733600,9.468733642578124,-1.2283246517181396,-11.131208419799805,-6.836849689483643
1713358262463682600,9.4786826171875,-4.4895219802856445,-8.49820613861084,-1.6616826057434082
1713358262473661700,9.48866162109375,-7.4962239265441895,-6.311609268188477,0.5356439352035522
1713358262483641000,9.49864111328125,-9.57316780090332,-4.792018890380859,1.9251718521118164
1713358262493620200,9.5086201171875,-10.483833312988281,-3.285806655883789,2.8711252212524414
1713358262503569000,9.51856884765625,-10.253860473632812,-2.016716957092285,3.6916844844818115
1713358262513548300,9.52854833984375,-9.083098411560059,-0.5556488037109375,5.234183311462402
1713358262523527400,9.53852734375,-7.106962203979492,0.39004039764404297,5.393110752105713
1713358262533476000,9.54847607421875,-5.297165870666504,1.514521598815918,5.042550086975098
1713358262543455500,9.55845556640625,-1.2424118518829346,2.616382598876953,5.8511247634887695
1713358262553434600,9.5684345703125,2.234501838684082,3.5159902572631836,5.239506721496582
1713358262563383300,9.57838330078125,5.286890983581543,3.746826171875,3.5905356407165527
1713358262573362700,9.58836279296875,5.102714538574219,4.051730155944824,1.7052801847457886
1713358262583341800,9.598341796875,3.579838991165161,4.892660140991211,0.9947395324707031
1713358262593290800,9.608290771484375,1.8616271018981934,5.483462333679199,0.7602051496505737
1713358262603270000,9.618269775390624,1.0506904125213623,5.479060173034668,-0.16123762726783752
1713358262613218600,9.628218505859374,0.16891023516654968,5.76286506652832,-0.7674604654312134
1713358262623198000,9.638197998046875,-0.5554202795028687,6.127073287963867,-1.3320612907409668
1713358262633177000,9.648177001953124,-0.42832842469215393,6.430973052978516,-2.015467405319214
1713358262643125800,9.658125732421874,-0.40676945447921753,6.467294692993164,-2.0877318382263184
1713358262653105200,9.668105224609375,-0.04432058334350586,5.9692792892456055,-1.9921607971191406
1713358262663084300,9.678084228515624,0.3963634967803955,5.415838241577148,-2.0774548053741455
1713358262673033000,9.688032958984374,0.5822632312774658,4.962423324584961,-2.18707537651062
1713358262683012400,9.698012451171875,0.7140783667564392,4.499127388000488,-2.1186208724975586
1713358262692991500,9.707991455078124,0.9906672835350037,3.832585334777832,-1.8108841180801392
1713358262702940400,9.7179404296875,1.330348253250122,3.0015687942504883,-1.4074294567108154
1713358262712919600,9.72791943359375,1.224574327468872,2.450624465942383,-0.5152060985565186
1713358262722868200,9.7378681640625,0.956774890422821,2.013768196105957,0.949897289276123
1713358262732847600,9.74784765625,1.172904372215271,1.4392156600952148,2.7487711906433105
1713358262742826800,9.75782666015625,1.8922995328903198,0.8793926239013672,5.133494853973389
1713358262752806000,9.767805908203124,2.921602487564087,0.20723628997802734,7.331616401672363
1713358262762754800,9.7777548828125,2.4296674728393555,-1.1621809005737305,7.363507270812988
1713358262772734000,9.78773388671875,0.8895246982574463,-2.3866167068481445,5.873970031738281
1713358262782713300,9.79771337890625,-1.0050113201141357,-3.977536201477051,1.8898799419403076
1713358262792662000,9.807662109375,-2.844233989715576,-5.171171188354492,-1.1228163242340088
1713358262802641200,9.81764111328125,-0.8290145397186279,-6.008955955505371,-3.240633249282837
1713358262812620500,9.82762060546875,0.9685239791870117,-7.615655899047852,-8.151054382324219
1713358262822569200,9.8375693359375,2.7446279525756836,-7.602339744567871,-8.363607406616211
1713358262832548400,9.84754833984375,3.0305514335632324,-3.521921157836914,-2.1476948261260986
1713358262842527700,9.85752783203125,2.8816988468170166,-0.4016742706298828,1.8671875
1713358262852476400,9.867476318359374,2.69368839263916,-3.0508861541748047,2.804701805114746
1713358262862455600,9.87745556640625,0.7145329117774963,-10.046995162963867,1.927430510520935
1713358262872435000,9.88743505859375,-3.9258017539978027,-16.759510040283203,-2.3976757526397705
1713358262882383600,9.897383544921874,-8.177773475646973,-15.234328269958496,-4.353021621704102
1713358262892363000,9.907363037109375,-10.296063423156738,-3.451641082763672,-3.150730848312378
1713358262902342100,9.917342041015624,-4.490795135498047,1.3342437744140625,-2.4385266304016113
1713358262912290800,9.927290771484374,-2.7205374240875244,3.637502670288086,-0.1181907057762146
1713358262922270200,9.937270263671875,-3.20754075050354,3.7778701782226562,1.6848247051239014
1713358262932249300,9.947249267578124,-2.1512391567230225,1.2292442321777344,2.644237518310547
1713358262942198000,9.957197998046874,-2.116079330444336,-2.401613235473633,2.5197267532348633
1713358262952177400,9.967177490234375,-2.666821241378784,-2.973123550415039,0.9372527599334717
1713358262962156500,9.977156494140624,-2.132469892501831,-1.2722053527832031,-0.1649835705757141
1713358262972105200,9.987105224609374,-0.9669414758682251,0.1898794174194336,-1.981764793395996
1713358262982084600,9.997084716796875,0.5746564865112305,1.0658092498779297,-4.294445514678955
1713358262992033300,10.007033203125,2.00656795501709,1.3768739700317383,-6.431056499481201
1713358263002012700,10.0170126953125,2.5939931869506836,1.225407600402832,-7.346683025360107
1713358263011991800,10.02699169921875,2.0330662727355957,1.383671760559082,-7.606395721435547
1713358263021940500,10.0369404296875,0.6968371868133545,1.7830696105957031,-7.564192295074463
1713358263031919900,10.046919921875,0.1397716999053955,2.5025691986083984,-6.53584623336792
1713358263041899000,10.05689892578125,0.807293176651001,3.1514816284179688,-4.746230125427246
1713358263051878400,10.06687841796875,1.9348573684692383,3.8928117752075195,-3.232572555541992
1713358263061857500,10.076857421875,2.5202765464782715,4.464564323425293,-2.3623428344726562
1713358263071806200,10.08680615234375,2.3876819610595703,4.779651641845703,-2.044459581375122
1713358263081785600,10.09678564453125,2.4312868118286133,4.805699348449707,-1.6685545444488525
1713358263091764700,10.1067646484375,2.482398271560669,4.496370315551758,-1.2484873533248901
1713358263101713400,10.11671337890625,1.8339632749557495,3.859983444213867,-0.6659358739852905
1713358263111692800,10.12669287109375,0.8455442190170288,2.8753910064697266,0.039064884185791016
1713358263121641500,10.136641357421874,0.27156615257263184,1.7236394882202148,0.47529834508895874
1713358263131620600,10.14662060546875,-0.23945260047912598,0.5636215209960938,0.5537704229354858
1713358263141600000,10.15660009765625,-0.6919956207275391,-0.1185617446899414,0.448994517326355
1713358263151548700,10.166548583984374,-0.8081426620483398,-0.4414377212524414,1.023585319519043
1713358263161528000,10.176528076171875,-1.028977632522583,-0.7427492141723633,1.8084826469421387
1713358263171507200,10.186507080078124,-1.0332789421081543,-1.0011720657348633,2.344123363494873
1713358263181456000,10.196455810546874,-1.0188149213790894,-1.2504262924194336,3.0173397064208984
1713358263191435300,10.206435302734375,-0.9217933416366577,-1.4605865478515625,3.258516311645508
1713358263201414400,10.216414306640624,-0.6679528951644897,-1.4754657745361328,2.819425344467163
1713358263211363000,10.226363037109374,-0.16167426109313965,-1.3514699935913086,2.1800074577331543
1713358263221342500,10.236342529296875,0.7756412029266357,-0.9452352523803711,1.8026008605957031
1713358263231321600,10.246321533203124,2.1584689617156982,-0.3167915344238281,1.7764650583267212
1713358263241270300,10.256270263671874,3.6706013679504395,0.32269954681396484,1.7551383972167969
1713358263251249700,10.266249755859375,5.078978538513184,1.0633811950683594,1.5925469398498535
1713358263261198300,10.2761982421875,6.507002830505371,1.8618888854980469,1.3867104053497314
1713358263271177500,10.286177490234374,7.829426288604736,2.4034852981567383,1.3638322353363037
1713358263281156900,10.296156982421875,9.407252311706543,2.9791927337646484,1.3782265186309814
1713358263291105500,10.30610546875,8.996691703796387,3.430548667907715,2.179025888442993
1713358263301085000,10.3160849609375,6.623096942901611,3.588484764099121,3.689908742904663
1713358263311064000,10.32606396484375,4.4313154220581055,3.023261070251465,5.4878082275390625
1713358263321043200,10.336043212890624,3.008507490158081,1.1805915832519531,6.73560905456543
1713358263330992000,10.3459921875,1.9883458614349365,-1.5283241271972656,6.051236629486084
1713358263340971300,10.35597119140625,0.9894466400146484,-4.048226356506348,4.268392562866211
1713358263350950700,10.36595068359375,1.586402416229248,-6.161706924438477,2.009004592895508
1713358263360899300,10.3758994140625,3.534181833267212,-7.4331464767456055,0.6387345194816589
1713358263370878500,10.38587841796875,3.994070291519165,-6.6552276611328125,1.0753028392791748
1713358263380857900,10.39585791015625,2.54418683052063,-4.3918304443359375,2.090386152267456
1713358263390806500,10.405806640625,1.7206802368164062,-1.7264118194580078,2.0500974655151367
1713358263400785700,10.41578564453125,0.9836616516113281,0.6631631851196289,1.4818613529205322
1713358263410765000,10.42576513671875,-0.8386666774749756,2.38968563079834,1.0342687368392944
1713358263420713700,10.435713623046874,-2.73012638092041,3.4951601028442383,0.6606073975563049
1713358263430692900,10.44569287109375,-2.780435085296631,4.197971343994141,-0.7778332233428955
1713358263440672300,10.45567236328125,-2.7067670822143555,4.267461776733398,-3.27378511428833
1713358263450621000,10.465620849609374,-3.8584306240081787,2.9362592697143555,-5.617039203643799
1713358263460600300,10.475600341796875,-4.3203125,0.07811927795410156,-7.481967926025391
1713358263470579500,10.485579345703124,-3.1826114654541016,-4.683215141296387,-10.069356918334961
1713358263480528100,10.495528076171874,-0.7059614658355713,-10.158596992492676,-13.14423942565918
1713358263490507500,10.505507568359375,1.0842145681381226,-14.967156410217285,-14.259596824645996
1713358263500486700,10.515486572265624,-0.44512566924095154,-16.593273162841797,-10.346482276916504
1713358263510435300,10.525435302734374,-4.728899002075195,-12.80673599243164,-3.3224353790283203
1713358263520414700,10.535414794921875,-9.256976127624512,-8.908068656921387,-0.0836557149887085
1713358263530393900,10.545393798828124,-12.218484878540039,-6.008886337280273,2.171896457672119
1713358263540342500,10.555342529296874,-12.597299575805664,-3.718968391418457,3.8603250980377197
1713358263550322000,10.565322021484375,-11.550880432128906,-1.9484949111938477,4.729812145233154
1713358263560270600,10.5752705078125,-9.53966999053955,-0.2485065460205078,6.4504899978637695
1713358263570250000,10.58525,-7.0308122634887695,0.8107814788818359,6.257488250732422
1713358263580229000,10.59522900390625,-4.319528579711914,1.89166259765625,5.632195472717285
1713358263590177800,10.605177734375,0.24407818913459778,2.737513542175293,6.080853462219238
1713358263600157200,10.6151572265625,3.698946952819824,3.1993541717529297,5.773102760314941
1713358263610136300,10.62513623046875,5.905081272125244,3.1188812255859375,3.061912775039673
1713358263620115700,10.63511572265625,5.230246067047119,3.2466554641723633,0.8766500949859619
1713358263630064400,10.645064453125,2.7637991905212402,3.9125661849975586,-0.28769129514694214
1713358263640043500,10.65504345703125,1.359374761581421,4.542279243469238,-1.3202157020568848
1713358263650023000,10.66502294921875,1.6461459398269653,5.04779052734375,-2.176348924636841
1713358263659971600,10.6749716796875,0.9155380725860596,5.620858192443848,-2.5830397605895996
1713358263669950700,10.68495068359375,0.19878073036670685,6.261588096618652,-2.751058340072632
1713358263679930000,10.69493017578125,0.41291406750679016,6.626206398010254,-3.047001600265503
1713358263689878800,10.704878662109374,0.18234887719154358,6.839689254760742,-2.386754035949707
1713358263699858000,10.71485791015625,0.06353916227817535,6.6374664306640625,-2.0415046215057373
1713358263709837300,10.72483740234375,0.2924193739891052,6.249995231628418,-1.8929002285003662
1713358263719786000,10.734785888671874,0.49491798877716064,5.677827835083008,-1.9341676235198975
1713358263729765000,10.74476513671875,0.4740442633628845,4.986032485961914,-1.964177131652832
1713358263739744500,10.75474462890625,0.5731838941574097,4.354083061218262,-1.729998230934143
1713358263749693200,10.764693115234374,1.0225472450256348,3.755247116088867,-0.9849925637245178
1713358263759672600,10.774672607421875,1.4825278520584106,3.067190170288086,0.2815442681312561
1713358263769651700,10.784651611328124,1.915797233581543,2.098560333251953,2.0976312160491943
1713358263779600400,10.794600341796874,2.335118532180786,0.8068456649780273,4.472930908203125
1713358263789579800,10.804579833984375,2.8600640296936035,-0.5277271270751953,6.960080623626709
1713358263799559000,10.814558837890624,2.4268200397491455,-2.0509138107299805,7.701287746429443
1713358263809507600,10.824507568359374,0.2772202789783478,-3.1349573135375977,6.038207530975342
1713358263819487000,10.834487060546875,-1.695949912071228,-4.039267539978027,2.453889846801758
1713358263829435600,10.844435546875,-3.1809659004211426,-5.391984939575195,1.6151089668273926
1713358263839414800,10.854414794921874,-2.529452323913574,-5.500486373901367,-1.1355934143066406
1713358263849394200,10.864394287109375,-1.198538064956665,-5.640935897827148,-5.796180248260498
1713358263859342800,10.8743427734375,0.4986444115638733,-5.706046104431152,-7.106821060180664
1713358263869322200,10.884322265625,4.890064716339111,-3.6719398498535156,-3.1937973499298096
1713358263879301400,10.89430126953125,7.155823707580566,-1.0806550979614258,0.9010632038116455
1713358263889280500,10.904280517578124,4.366694450378418,0.4551372528076172,2.7258355617523193
1713358263899229400,10.9142294921875,1.7890936136245728,-2.103177070617676,4.982224464416504
1713358263909208600,10.92420849609375,-1.2302916049957275,-7.942998886108398,4.5003252029418945
1713358263919188000,10.93418798828125,-3.8554582595825195,-13.754651069641113,0.2979976534843445
1713358263929136600,10.94413671875,-8.470440864562988,-17.278671264648438,-6.367349624633789
1713358263939115800,10.95411572265625,-10.583897590637207,-8.753572463989258,-7.628687381744385
1713358263949095200,10.96409521484375,-5.4035749435424805,0.6809787750244141,-5.696435451507568
1713358263959043800,10.9740439453125,-1.925266981124878,4.0205583572387695,-1.9899471998214722
1713358263969023000,10.98402294921875,-1.0179615020751953,5.395406723022461,-0.7465490102767944
1713358263979002400,10.99400244140625,-1.682785987854004,4.216189384460449,0.8243824243545532
1713358263988951000,11.003950927734374,-1.9634640216827393,0.72613525390625,2.319321632385254
1713358263998930200,11.01393017578125,-1.2292137145996094,-2.3804712295532227,2.220853328704834
1713358264008909600,11.02390966796875,-1.4505592584609985,-2.717312812805176,1.4148889780044556
1713358264018858200,11.033858154296874,-1.0857834815979004,-1.5671720504760742,-0.5945084095001221
1713358264028837600,11.043837646484375,0.5803735852241516,-0.3558034896850586,-3.8713974952697754
1713358264038816800,11.053816650390624,2.4610867500305176,0.5957231521606445,-6.546763896942139
1713358264048765400,11.063765380859374,2.9111969470977783,0.4359769821166992,-8.601678848266602
1713358264058744800,11.073744873046875,2.2507262229919434,-0.08558177947998047,-8.921204566955566
1713358264068724000,11.083723876953124,1.157873511314392,0.1974163055419922,-8.585949897766113
1713358264078672600,11.093672607421874,0.29392802715301514,1.0968818664550781,-7.304400444030762
1713358264088652000,11.103652099609375,0.41244351863861084,1.7866945266723633,-4.8339924812316895
1713358264098600700,11.1136005859375,0.8642944097518921,2.338397979736328,-2.1511809825897217
1713358264108579800,11.123579833984374,0.6706012487411499,2.5588912963867188,-0.4328196346759796
1713358264118559200,11.133559326171875,0.7495366334915161,2.6097917556762695,-0.20104891061782837
1713358264128508000,11.1435078125,1.2005057334899902,2.6451845169067383,-0.30921968817710876
1713358264138487000,11.153487060546874,1.4989262819290161,2.6136417388916016,-0.32242679595947266
1713358264148466400,11.163466552734375,1.0221635103225708,2.399020195007324,-0.3392448425292969
1713358264158415000,11.1734150390625,0.4790520668029785,2.032543182373047,-0.33860909938812256
1713358264168394500,11.18339453125,0.24182164669036865,1.6258296966552734,-0.23593632876873016
1713358264178373600,11.19337353515625,0.2548867464065552,1.1902494430541992,-0.16167956590652466
1713358264188352800,11.203352783203124,0.10722160339355469,0.8472061157226562,-0.26031920313835144
1713358264198301700,11.2133017578125,-0.45548009872436523,0.49787235260009766,-0.21603000164031982
1713358264208280800,11.22328076171875,-0.8198649883270264,0.029184341430664062,-0.47033369541168213
1713358264218260200,11.23326025390625,-0.3775968551635742,-0.2410430908203125,-0.6137951612472534
1713358264228209000,11.243208984375,0.11309754848480225,-0.5710430145263672,0.10411620140075684
1713358264238188000,11.25318798828125,0.4121459722518921,-0.6455459594726562,1.0256428718566895
1713358264248167400,11.26316748046875,0.5568093061447144,-0.28174304962158203,1.6177340745925903
1713358264258116000,11.2731162109375,0.8256027698516846,0.3591442108154297,2.177487373352051
1713358264268095200,11.28309521484375,1.1661540269851685,0.8444328308105469,2.6225051879882812
1713358264278074600,11.29307470703125,1.7785375118255615,1.2022333145141602,2.635502338409424
1713358264288023300,11.303023193359374,2.1795225143432617,1.4777116775512695,2.380980968475342
1713358264298002400,11.31300244140625,2.744293451309204,2.0504684448242188,2.3737359046936035
1713358264307981800,11.32298193359375,3.757598876953125,2.702469825744629,2.0066792964935303
1713358264317930500,11.332930419921874,5.509478569030762,3.482090950012207,1.7990083694458008
1713358264327910000,11.342909912109375,7.465680122375488,3.818600654602051,1.3661996126174927
1713358264337889000,11.352888916015624,8.345195770263672,4.074359893798828,1.6210873126983643
1713358264347837700,11.362837646484374,7.843591690063477,4.034109115600586,2.109395742416382
1713358264357817000,11.372817138671875,5.684900283813477,2.7716283798217773,3.3304107189178467
1713358264367796200,11.382796142578124,3.4189887046813965,0.6867246627807617,4.860254287719727
1713358264377745000,11.392744873046874,2.4901082515716553,-1.8692989349365234,5.5822601318359375
1713358264387724300,11.402724365234375,1.9018523693084717,-3.9489574432373047,5.575554370880127
1713358264397673000,11.4126728515625,1.6183032989501953,-5.81956672668457,4.496767997741699
1713358264407652000,11.422652099609374,2.2511327266693115,-6.7967023849487305,2.414034366607666
1713358264417631500,11.432631591796875,2.9771339893341064,-6.198453903198242,2.1480093002319336
1713358264427580200,11.442580078125,3.033298969268799,-4.201642036437988,2.8935959339141846
1713358264437559600,11.4525595703125,2.201127290725708,-2.325324058532715,3.301578998565674
1713358264447538700,11.46253857421875,1.5267305374145508,-0.6421651840209961,2.77441143989563
1713358264457517800,11.472517822265624,0.9391214847564697,0.9293479919433594,2.0989930629730225
1713358264467466800,11.482466796875,-0.6173804998397827,2.236189842224121,1.0896368026733398
1713358264477446000,11.49244580078125,-2.154632806777954,2.799221992492676,0.08787268400192261
1713358264487425300,11.50242529296875,-2.591042995452881,3.0258092880249023,-1.0996415615081787
1713358264497374000,11.5123740234375,-2.5644993782043457,2.7240352630615234,-3.5011773109436035
1713358264507353000,11.52235302734375,-3.0845518112182617,1.3348674774169922,-6.572107315063477
1713358264517332500,11.53233251953125,-3.7188210487365723,-1.198333740234375,-9.03593921661377
1713358264527281200,11.54228125,-3.7345945835113525,-4.970025062561035,-11.35010814666748
1713358264537260300,11.55226025390625,-2.312589168548584,-9.077482223510742,-14.030939102172852
1713358264547239700,11.56223974609375,-1.3772332668304443,-12.659001350402832,-13.6932954788208
1713358264557188400,11.572188232421874,-1.0452706813812256,-13.557483673095703,-10.65121841430664
1713358264567167500,11.58216748046875,-2.147174596786499,-10.548257827758789,-4.798832893371582
1713358264577147000,11.59214697265625,-5.231910228729248,-7.608006477355957,-0.7399488687515259
1713358264587095600,11.602095458984374,-8.732177734375,-6.189201354980469,1.1052463054656982
1713358264597074700,11.61207470703125,-10.60003662109375,-4.848480224609375,2.813325881958008
1713358264607054000,11.62205419921875,-10.705768585205078,-3.205129623413086,4.337070941925049
1713358264617002800,11.632002685546874,-9.325186729431152,-1.816493034362793,5.919448375701904
1713358264626982100,11.641982177734375,-8.16627311706543,-0.48723506927490234,6.242815017700195
1713358264636961300,11.651961181640624,-6.822538375854492,0.8758392333984375,5.912600040435791
1713358264646910000,11.661909912109374,-3.8566184043884277,1.8587188720703125,5.681271076202393
1713358264656889300,11.671889404296875,-0.39316606521606445,3.2079715728759766,6.580261707305908
1713358264666838000,11.681838134765625,3.081087589263916,4.08848762512207,5.33344030380249
1713358264676817200,11.691817138671874,4.604340553283691,4.257286071777344,2.6789443492889404
1713358264686796500,11.701796630859375,3.7470526695251465,4.692021369934082,1.1498613357543945
1713358264696745200,11.7117451171875,2.8089940547943115,5.345332145690918,0.41736677289009094
1713358264706724400,11.721724365234374,2.0541226863861084,5.436179161071777,-0.8411366939544678
1713358264716703700,11.731703857421875,1.582228183746338,5.468108177185059,-2.30592942237854
1713358264726652400,11.74165234375,0.7560166120529175,5.914777755737305,-2.8586056232452393
1713358264736631800,11.7516318359375,0.14847612380981445,6.221555709838867,-3.346871852874756
1713358264746611000,11.76161083984375,0.030261754989624023,6.267254829406738,-3.591982364654541
1713358264756559600,11.7715595703125,0.03823661804199219,5.940557479858398,-3.4125797748565674
1713358264766539000,11.7815390625,0.21103861927986145,5.373682975769043,-2.9122982025146484
1713358264776518100,11.79151806640625,0.026474356651306152,4.712896347045898,-2.4828696250915527
1713358264786497500,11.80149755859375,-0.06907492876052856,4.125922203063965,-2.4108541011810303
1713358264796446200,11.8114462890625,-0.18521326780319214,3.677422523498535,-2.222665548324585
1713358264806425300,11.82142529296875,-0.44002771377563477,3.2145328521728516,-1.8276835680007935
1713358264816404700,11.83140478515625,-0.42904865741729736,2.4247350692749023,-1.5019283294677734
1713358264826353400,11.841353515625,-0.06326526403427124,1.5283317565917969,-0.5036224722862244
1713358264836332500,11.85133251953125,0.7129284739494324,0.4460611343383789,1.1324357986450195
1713358264846312000,11.86131201171875,1.7533115148544312,-0.23052597045898438,3.8629772663116455
1713358264856260600,11.871260498046874,2.7137606143951416,-0.9092178344726562,6.55242395401001
1713358264866239700,11.88123974609375,2.6704089641571045,-2.158480644226074,7.711167335510254
1713358264876219100,11.89121923828125,1.5049601793289185,-3.675762176513672,8.131587982177734
1713358264886167800,11.901167724609374,0.630578875541687,-5.1954345703125,7.5992751121521
1713358264896147200,11.911147216796875,-1.0276885032653809,-6.344659805297852,5.633368015289307
1713358264906126300,11.921126220703124,-4.7724409103393555,-6.696841239929199,2.841965675354004
1713358264916075000,11.931074951171874,-4.1865949630737305,-6.532186508178711,-0.4143166244029999
1713358264926054400,11.941054443359375,-0.6787003874778748,-6.593794822692871,-3.331604242324829
1713358264936003000,11.951003173828125,3.687255382537842,-5.369720458984375,-5.880423069000244
1713358264945982200,11.960982177734374,5.132267475128174,-2.515631675720215,-6.794946193695068
1713358264955961600,11.970961669921875,4.53504753112793,-0.7470932006835938,-3.7017977237701416
1713358264965910300,11.98091015625,4.349387168884277,-1.474736213684082,1.2994214296340942
1713358264975889400,11.990889404296874,4.67842435836792,-2.9911842346191406,3.9291858673095703
1713358264985868800,12.000868896484375,2.5702123641967773,-5.4288434982299805,2.0769011974334717
1713358264995817500,12.0108173828125,-4.238674163818359,-8.916013717651367,-2.751260280609131
1713358265005796900,12.020796875,-10.876482009887695,-11.694089889526367,-4.454125881195068
1713358265015776000,12.03077587890625,-15.239688873291016,-7.7967071533203125,-5.670376777648926
1713358265025724700,12.040724609375,-11.605259895324707,-2.548917770385742,-4.248470783233643
1713358265035704000,12.0507041015625,-5.542834281921387,0.3223285675048828,0.08658063411712646
1713358265045683200,12.06068310546875,-0.2075650691986084,2.779818534851074,0.907486081123352
1713358265055662300,12.070662353515624,2.426474094390869,4.402729034423828,0.45797109603881836
1713358265065611300,12.080611328125,2.415717840194702,5.1040239334106445,0.768108606338501
1713358265075590400,12.09059033203125,1.113206148147583,5.120356559753418,-0.5091325044631958
1713358265085569800,12.10056982421875,0.6283092498779297,5.45069694519043,-0.7938729524612427
1713358265095518500,12.1105185546875,1.4288651943206787,4.416815757751465,-0.5729248523712158
1713358265105497600,12.12049755859375,2.339193820953369,2.367340087890625,-2.32003116607666
1713358265115477000,12.13047705078125,1.9859951734542847,0.3796806335449219,-4.329509735107422
1713358265125425700,12.14042578125,0.2637559175491333,-1.1420783996582031,-6.279134750366211
1713358265135404800,12.15040478515625,-1.6232331991195679,-2.029637336730957,-7.316132068634033
1713358265145384200,12.16038427734375,-2.014108657836914,-2.3519535064697266,-5.811844348907471
1713358265155332900,12.170332763671874,-1.1586194038391113,-1.5336332321166992,-2.9616827964782715
1713358265165312000,12.18031201171875,0.5392931699752808,0.7727775573730469,-1.84927499294281
1713358265175291400,12.19029150390625,2.2835617065429688,2.789043426513672,-2.211198091506958
1713358265185240000,12.200239990234374,3.0140676498413086,3.927234649658203,-2.443239688873291
1713358265195219500,12.210219482421875,2.8260135650634766,4.748067855834961,-2.3387935161590576
1713358265205198600,12.220198486328124,2.7188496589660645,4.974920272827148,-2.3657073974609375
1713358265215147300,12.230147216796874,2.087697982788086,4.533191680908203,-1.7620230913162231
1713358265225126700,12.240126708984375,0.9971365928649902,3.455514907836914,-0.6800732612609863
1713358265235075300,12.250075439453125,0.11234378814697266,1.8329076766967773,0.8270553350448608
1713358265245054500,12.260054443359374,-0.2516554594039917,0.016826629638671875,2.0793697834014893
1713358265255033900,12.270033935546875,0.238256573677063,-1.270395278930664,2.905937433242798
1713358265264982500,12.279982421875,0.33882784843444824,-1.487661361694336,3.4095301628112793
1713358265274961700,12.289961669921874,0.0665590763092041,-1.0151481628417969,3.608215570449829
1713358265284941000,12.299941162109375,-0.32480597496032715,-0.2588071823120117,3.374028444290161
1713358265294889700,12.3098896484375,-0.6388684511184692,0.5747718811035156,3.019881010055542
1713358265304869000,12.319869140625,-0.7930053472518921,1.038325309753418,2.386000394821167
1713358265314848300,12.32984814453125,-0.9620954990386963,0.9937477111816406,1.6484652757644653
1713358265324797000,12.339796875,-0.9262537956237793,0.5084724426269531,1.0224891901016235
1713358265334776300,12.3497763671875,-0.6273092031478882,0.029770851135253906,0.8780801892280579
1713358265344755500,12.35975537109375,-0.13121163845062256,-0.43038368225097656,1.0927965641021729
1713358265354734800,12.36973486328125,0.38548362255096436,-0.8094339370727539,1.396968126296997
1713358265364683500,12.37968359375,0.9541268348693848,-0.8628664016723633,1.9458577632904053
1713358265374662700,12.38966259765625,2.5780112743377686,-0.5757408142089844,1.6331431865692139
1713358265384642000,12.39964208984375,5.213440418243408,0.17714405059814453,1.2315504550933838
1713358265394590700,12.4095908203125,7.550493240356445,1.2899255752563477,1.1837676763534546
1713358265404569900,12.41956982421875,8.840275764465332,2.421976089477539,1.30527663230896
1713358265414549200,12.42954931640625,8.865279197692871,3.667208671569824,1.2321596145629883
1713358265424498000,12.439497802734374,6.444289684295654,4.390556335449219,1.690746784210205
1713358265434477000,12.44947705078125,4.199069023132324,3.875333786010742,2.3976857662200928
1713358265444456400,12.45945654296875,2.6440138816833496,1.5044450759887695,3.1613404750823975
1713358265454405000,12.469405029296874,1.4366912841796875,-1.545670509338379,3.0191681385040283
1713358265464384500,12.479384521484375,1.4696810245513916,-4.157343864440918,2.1014909744262695
1713358265474333200,12.489333251953125,2.164414882659912,-5.788712501525879,0.482191264629364
1713358265484312300,12.499312255859374,2.86883544921875,-6.255029678344727,-0.017643630504608154
1713358265494291700,12.509291748046875,3.1924338340759277,-5.393618583679199,1.18886399269104
1713358265504240400,12.519240478515625,2.2994346618652344,-3.6888999938964844,2.9193272590637207
1713358265514219500,12.529219482421874,1.2459015846252441,-1.671121597290039,3.2149128913879395
1713358265524199000,12.539198974609375,0.47309041023254395,0.2472705841064453,3.126748561859131
1713358265534147600,12.549147705078125,-1.0221452713012695,1.476212501525879,2.990746021270752
1713358265544126700,12.559126708984374,-2.4995648860931396,1.939340591430664,2.696624279022217
1713358265554106000,12.569106201171875,-2.9245481491088867,2.300482749938965,1.336241602897644
1713358265564054800,12.5790546875,-2.582479476928711,2.4048328399658203,-1.385857343673706
1713358265574034000,12.589033935546874,-3.0900864601135254,1.7601509094238281,-4.659955024719238
1713358265584013300,12.599013427734375,-3.980116367340088,0.18610191345214844,-7.48300313949585
1713358265593962000,12.6089619140625,-4.53985071182251,-3.028286933898926,-11.307814598083496
1713358265603941400,12.61894140625,-3.5994112491607666,-6.671725273132324,-14.047248840332031
1713358265613920500,12.62892041015625,-2.1230764389038086,-9.793758392333984,-14.907975196838379
1713358265623899600,12.638899658203124,-1.9187703132629395,-11.366893768310547,-12.878458976745605
1713358265633848600,12.6488486328125,-2.539778232574463,-9.841017723083496,-6.993539810180664
1713358265643827700,12.65882763671875,-3.9984116554260254,-7.226858139038086,-1.2215428352355957
1713358265653807000,12.66880712890625,-6.953110218048096,-6.128595352172852,1.9077317714691162
1713358265663755800,12.678755859375,-9.220829010009766,-5.545109748840332,4.146007537841797
1713358265673735000,12.68873486328125,-9.810985565185547,-4.428632736206055,5.872128009796143
1713358265683714300,12.69871435546875,-9.207972526550293,-3.0334949493408203,7.075918197631836
1713358265693663000,12.7086630859375,-8.648322105407715,-1.2627134323120117,7.090935707092285
1713358265703642000,12.71864208984375,-7.707817554473877,0.4121971130371094,7.668151378631592
1713358265713591000,12.728591064453125,-5.7374043464660645,1.5999336242675781,6.437560081481934
1713358265723570200,12.738570068359374,-2.9001126289367676,2.9763145446777344,5.139760971069336
1713358265733549300,12.74854931640625,1.682431697845459,3.6109771728515625,3.712806463241577
1713358265743498200,12.758498291015625,4.923267841339111,3.9393444061279297,1.7106709480285645
1713358265753477400,12.768477294921874,5.440373420715332,4.124046325683594,0.1338074505329132
1713358265763456800,12.778456787109375,4.123310565948486,4.29810905456543,-1.1005662679672241
1713358265773405400,12.788405517578125,2.300532102584839,4.431582450866699,-1.5224560499191284
1713358265783384600,12.798384521484374,1.3832123279571533,4.594473838806152,-1.7190874814987183
1713358265793364000,12.808364013671875,0.706212043762207,4.8421735763549805,-1.679287075996399
