time,seconds_elapsed,z,y,x
1715093559150122500,0.11612255859375,8.5247802734375,4.42230224609375,-0.0701904296875
1715093559160101600,0.1261015625,8.261428833007812,4.120635986328125,0.1524658203125
1715093559170111500,0.136111572265625,8.3643798828125,4.0703582763671875,-0.0510406494140625
1715093559180091000,0.1460908203125,8.589431762695312,4.3385009765625,-0.0103302001953125
1715093559190100500,0.1561005859375,8.72589111328125,4.7431182861328125,0.4014739990234375
1715093559200080000,0.166079833984375,8.771392822265625,5.1860504150390625,0.7773590087890625
1715093559210059000,0.17605908203125,8.855178833007812,5.03521728515625,0.8874969482421875
1715093559220038400,0.186038330078125,9.04193115234375,4.4629974365234375,0.4349822998046875
1715093559230017500,0.196017578125,9.183197021484375,4.07513427734375,-0.04864501953125
1715093559239996700,0.20599658203125,9.101791381835938,4.22119140625,0.0423431396484375
1715093559249976000,0.21597607421875,9.087417602539062,4.4366607666015625,0.336822509765625
1715093559259955200,0.225955078125,9.173614501953125,4.3768157958984375,0.430206298828125
1715093559269934600,0.2359345703125,9.171218872070312,4.22119140625,0.432586669921875
1715093559279913700,0.245913818359375,8.938980102539062,4.0392303466796875,0.420623779296875
1715093559289862400,0.2558623046875,8.290145874023438,4.37921142578125,0.705535888671875
1715093559299841800,0.265841796875,7.8352508544921875,4.7096099853515625,0.83721923828125
1715093559309821000,0.275821044921875,8.072280883789062,4.59228515625,0.691162109375
1715093559319800300,0.28580029296875,8.579849243164062,4.3720245361328125,0.44696044921875
1715093559329779500,0.295779541015625,8.857574462890625,4.2978057861328125,0.4230194091796875
1715093559339728100,0.30572802734375,9.274169921875,4.0871124267578125,0.4996337890625
1715093559349707500,0.31570751953125,9.721878051757812,3.8285369873046875,0.358367919921875
1715093559359686700,0.325686767578125,9.78173828125,3.67291259765625,0.1428985595703125
1715093559369635300,0.33563525390625,9.628509521484375,4.06317138671875,0.5451202392578125
1715093559379614700,0.34561474609375,9.204742431640625,4.2403411865234375,0.6600494384765625
1715093559389593900,0.35559375,8.711532592773438,4.1828765869140625,0.537933349609375
1715093559399573200,0.3655732421875,8.479293823242188,4.2140045166015625,0.399078369140625
1715093559409522000,0.37552197265625,8.440994262695312,3.9338836669921875,-0.11328125
1715093559419501000,0.3855009765625,8.268600463867188,3.857269287109375,-0.4436798095703125
1715093559429480400,0.39548046875,8.213531494140625,4.005706787109375,-0.4412841796875
1715093559439429000,0.40542919921875,8.357192993164062,3.9386749267578125,-0.4436798095703125
1715093559449408500,0.415408447265625,8.46014404296875,3.9961395263671875,-0.2521514892578125
1715093559459387600,0.4253876953125,8.49127197265625,4.2187957763671875,0.1285247802734375
1715093559469336300,0.43533642578125,8.50323486328125,4.27386474609375,0.1859893798828125
1715093559479315700,0.445315673828125,8.60858154296875,4.142181396484375,-0.0414581298828125
1715093559489294800,0.455294921875,8.737869262695312,3.9698028564453125,-0.2641143798828125
1715093559499243500,0.465243408203125,8.934188842773438,3.6537628173828125,-0.51312255859375
1715093559509223000,0.475222900390625,8.697174072265625,3.77825927734375,-0.49395751953125
1715093559519171600,0.485171630859375,8.481689453125,3.9171295166015625,-0.276092529296875
1715093559529150700,0.495150634765625,8.548721313476562,3.88360595703125,-0.0941314697265625
1715093559539130000,0.505130126953125,8.6923828125,4.0559844970703125,0.188385009765625
1715093559549109200,0.515109130859375,8.6612548828125,4.158935546875,0.3823089599609375
1715093559559088600,0.525088623046875,8.838424682617188,3.972198486328125,0.26739501953125
1715093559569037300,0.535037353515625,9.001235961914062,3.9075469970703125,0.0854339599609375
1715093559579016400,0.545016357421875,9.082626342773438,3.931488037109375,0.061492919921875
1715093559588995800,0.554995849609375,9.262191772460938,3.835723876953125,0.0279693603515625
1715093559598975000,0.56497509765625,9.542327880859375,3.6920623779296875,-0.233001708984375
1715093559608923600,0.574923583984375,9.652450561523438,3.5699615478515625,-0.2425689697265625
1715093559618903000,0.584903076171875,9.460922241210938,3.7160186767578125,-0.213836669921875
1715093559628882200,0.594882080078125,9.152069091796875,3.7160186767578125,-0.180328369140625
1715093559638831000,0.6048310546875,9.003631591796875,3.74713134765625,-0.1372222900390625
1715093559648810200,0.614810302734375,8.8839111328125,3.888397216796875,-0.06060791015625
1715093559658789400,0.624789306640625,8.895889282226562,3.9338836669921875,0.09979248046875
1715093559668738300,0.63473828125,9.07305908203125,3.7447357177734375,0.0638885498046875
1715093559678717400,0.644717529296875,9.106582641601562,3.8165740966796875,-0.022308349609375
1715093559688696800,0.65469677734375,8.962921142578125,3.8596649169921875,-0.0773773193359375
1715093559698645500,0.6646455078125,9.111358642578125,3.7279815673828125,-0.101318359375
1715093559708624600,0.674624755859375,9.28375244140625,3.720794677734375,-0.0677947998046875
1715093559718604000,0.68460400390625,9.171218872070312,3.804595947265625,0.0902252197265625
1715093559728552700,0.694552734375,9.152069091796875,3.6920623779296875,0.166839599609375
1715093559738531800,0.70453173828125,9.003631591796875,3.8117828369140625,-0.01751708984375
1715093559748511200,0.71451123046875,8.649276733398438,3.761505126953125,0.0207977294921875
1715093559758460000,0.7244599609375,8.721115112304688,3.7591094970703125,0.2697906494140625
1715093559768439000,0.73443896484375,8.960525512695312,3.6537628173828125,0.4397735595703125
1715093559778418400,0.74441845703125,8.89349365234375,3.7279815673828125,0.58343505859375
1715093559788367000,0.7543671875,8.642105102539062,3.76629638671875,0.664825439453125
1715093559798346500,0.764346435546875,8.654067993164062,3.7495269775390625,0.4756927490234375
1715093559808325600,0.77432568359375,8.867156982421875,3.6274261474609375,0.4278106689453125
1715093559818304800,0.7843046875,8.9581298828125,3.4837799072265625,0.2386627197265625
1715093559828253700,0.794253662109375,8.934188842773438,3.445465087890625,0.3080902099609375
1715093559838232800,0.80423291015625,8.910247802734375,3.414337158203125,0.4493560791015625
1715093559848212200,0.814212158203125,8.74505615234375,3.5340576171875,0.5666656494140625
1715093559858191400,0.82419140625,8.711532592773438,3.4718017578125,0.6815948486328125
1715093559868140000,0.83414013671875,8.680404663085938,3.5172882080078125,0.6025848388671875
1715093559878119400,0.844119384765625,8.508026123046875,3.4167327880859375,0.559478759765625
1715093559888098600,0.8540986328125,8.481689453125,3.0767669677734375,-0.053436279296875
1715093559898047200,0.864047119140625,8.49365234375,2.715240478515625,-0.2641143798828125
1715093559908026600,0.874026611328125,8.498443603515625,2.473419189453125,0.1333160400390625
1715093559918005800,0.884005859375,8.469711303710938,2.32977294921875,0.430206298828125
1715093559927954400,0.893954345703125,8.522384643554688,1.7838897705078125,0.1811981201171875
1715093559937933800,0.903933837890625,8.572662353515625,1.7048797607421875,0.3344268798828125
1715093559947913000,0.913912841796875,8.776168823242188,1.522918701171875,0.7246856689453125
1715093559957862000,0.92386181640625,8.522384643554688,1.0967559814453125,1.0814208984375
1715093559967841000,0.933841064453125,7.60540771484375,0.8166351318359375,1.3639373779296875
1715093559977820200,0.943820068359375,6.2502899169921875,0.170196533203125,0.8731231689453125
1715093559987769000,0.95376904296875,4.9598236083984375,-0.6294708251953125,0.7773590087890625
1715093559997748200,0.963748291015625,4.8760223388671875,-1.467437744140625,0.6408843994140625
1715093560007727400,0.973727294921875,4.6916656494140625,-2.398773193359375,0.616943359375
1715093560017676300,0.98367626953125,4.471405029296875,-3.0715484619140625,0.7893218994140625
1715093560027655400,0.993655517578125,5.4099273681640625,-4.0531768798828125,0.468505859375
1715093560037634800,1.003634765625,7.3420562744140625,-4.36920166015625,-0.9919586181640625
1715093560047582700,1.013582763671875,6.1162109375,-6.593414306640625,-1.34869384765625
1715093560057561900,1.023561767578125,2.5201263427734375,-8.673980712890625,-1.190673828125
1715093560067541200,1.033541259765625,0.5999755859375,-9.346755981445312,-1.2936248779296875
1715093560077490000,1.043489990234375,-0.144622802734375,-9.5670166015625,0.643280029296875
1715093560087469000,1.053468994140625,-0.314605712890625,-9.868682861328125,3.0757904052734375
1715093560097448400,1.063448486328125,-0.355316162109375,-9.969253540039062,4.1148681640625
1715093560107427600,1.073427490234375,-0.2787017822265625,-10.036285400390625,5.51788330078125
1715093560117376300,1.083376220703125,-0.2116546630859375,-10.409774780273438,8.410079956054688
1715093560127355600,1.093355712890625,0.0157928466796875,-10.503158569335938,11.041305541992188
1715093560137334800,1.103334716796875,0.489837646484375,-10.450485229492188,12.288681030273438
1715093560147314200,1.113314208984375,1.050079345703125,-10.574981689453125,13.291854858398438
1715093560157293300,1.123293212890625,2.6254730224609375,-9.610122680664062,14.644577026367188
1715093560167242000,1.133241943359375,6.827301025390625,-8.374710083007812,15.877593994140625
1715093560177221400,1.143221435546875,8.948562622070312,-7.5606842041015625,18.4417724609375
1715093560187200500,1.153200439453125,8.11297607421875,-6.9549407958984375,19.547897338867188
1715093560197149200,1.163149169921875,6.437042236328125,-7.158447265625,19.385101318359375
1715093560207128600,1.173128662109375,5.4458465576171875,-7.5295562744140625,18.235885620117188
1715093560217107700,1.183107666015625,5.306976318359375,-7.4409637451171875,17.239883422851562
1715093560227056600,1.193056640625,5.0460052490234375,-6.923828125,17.783370971679688
1715093560237057000,1.20305712890625,4.2678985595703125,-6.3851318359375,18.9254150390625
1715093560247036400,1.213036376953125,4.57196044921875,-4.8097381591796875,20.69232177734375
1715093560256985000,1.222985107421875,2.5105438232421875,-3.3181610107421875,21.544662475585938
1715093560266964500,1.232964599609375,-6.8029022216796875,-1.2495574951171875,22.653182983398438
1715093560276943600,1.242943603515625,-26.478439331054688,2.3082275390625,30.211669921875
1715093560286892300,1.252892333984375,-36.78070068359375,3.668121337890625,31.128646850585938
1715093560296871700,1.26287158203125,-9.8387451171875,-1.84332275390625,15.384384155273438
1715093560306850800,1.272850830078125,0.7388458251953125,-6.5048370361328125,14.242355346679688
1715093560316799500,1.282799560546875,-0.86767578125,-7.2661895751953125,8.706954956054688
1715093560326779000,1.29277880859375,1.406829833984375,-7.505615234375,7.763641357421875
1715093560336758000,1.302758056640625,1.9814300537109375,-5.7650299072265625,5.62322998046875
1715093560346706700,1.312706787109375,2.242401123046875,-5.5926513671875,3.346343994140625
1715093560356686000,1.32268603515625,-2.3185577392578125,-7.7522125244140625,2.206695556640625
1715093560366665200,1.332665283203125,-0.5324859619140625,-5.350830078125,0.569061279296875
1715093560376614100,1.3426142578125,5.1776885986328125,-1.5919342041015625,6.6455535888671875
1715093560386593300,1.35259326171875,11.452896118164062,-3.411529541015625,4.91693115234375
1715093560396572400,1.362572509765625,-2.9266815185546875,-2.1473846435546875,-3.340667724609375
1715093560406521300,1.372521240234375,-1.50213623046875,0.625091552734375,2.175567626953125
1715093560416500500,1.38250048828125,-0.90118408203125,-1.091552734375,5.175506591796875
1715093560426479600,1.392479736328125,-1.011322021484375,-6.2893524169921875,1.9481201171875
1715093560436459000,1.402458984375,1.3900604248046875,-10.18951416015625,4.15557861328125
1715093560446438100,1.412438232421875,0.6502532958984375,-12.906936645507812,3.93292236328125
1715093560456387000,1.422386962890625,1.2440185546875,-15.923629760742188,4.2704925537109375
1715093560466366200,1.4323662109375,0.1666259765625,-20.008132934570312,4.7038421630859375
1715093560476345300,1.442345458984375,-2.088714599609375,-23.869979858398438,5.6112518310546875
1715093560486294300,1.452294189453125,-1.1573638916015625,-21.5045166015625,10.658233642578125
1715093560496273400,1.4622734375,2.37408447265625,-19.637039184570312,12.836959838867188
1715093560506252800,1.472252685546875,1.7851104736328125,-15.140716552734375,12.135452270507812
1715093560516201500,1.482201416015625,-0.2427825927734375,-11.245361328125,12.324600219726562
1715093560526180600,1.4921806640625,0.6909637451171875,-12.147964477539062,8.515411376953125
1715093560536160000,1.502159912109375,0.5137786865234375,-11.185501098632812,6.15234375
1715093560546108700,1.512108642578125,-1.5045318603515625,-10.191909790039062,8.666259765625
1715093560556087800,1.522087890625,-1.995330810546875,-6.27020263671875,-5.3661651611328125
1715093560566067200,1.532067138671875,-4.4206695556640625,-3.485748291015625,-3.58966064453125
1715093560576016000,1.542015869140625,-1.4470672607421875,-4.7139739990234375,3.43731689453125
1715093560585995000,1.5519951171875,-0.86767578125,-6.0882415771484375,3.897003173828125
1715093560595974400,1.561974365234375,-1.073577880859375,-6.971710205078125,4.193878173828125
1715093560605923000,1.571923095703125,-0.113494873046875,-6.3970947265625,5.3838043212890625
1715093560615902500,1.58190234375,-0.3600921630859375,-7.922210693359375,6.559356689453125
1715093560625881600,1.591881591796875,-1.0615997314453125,-8.099380493164062,5.2880401611328125
1715093560635830300,1.601830322265625,-1.370452880859375,-6.7586212158203125,4.5171051025390625
1715093560645809700,1.6118095703125,1.07403564453125,-6.751434326171875,3.30084228515625
1715093560655788800,1.621788818359375,1.7970733642578125,-8.54229736328125,3.62884521484375
1715093560665737500,1.631737548828125,-1.11187744140625,-8.073043823242188,3.051849365234375
1715093560675716900,1.641716796875,-2.8907623291015625,-7.9317779541015625,1.9553070068359375
1715093560685696000,1.651696044921875,-3.38397216796875,-6.306121826171875,2.22344970703125
1715093560695675400,1.66167529296875,-1.9498443603515625,-8.142471313476562,1.5123748779296875
1715093560705654500,1.671654541015625,-2.4981231689453125,-7.0291595458984375,0.683990478515625
1715093560715603200,1.681603271484375,-7.5546722412109375,2.451873779296875,0.3392181396484375
1715093560725582600,1.69158251953125,1.7659454345703125,4.4007568359375,2.89862060546875
1715093560735561700,1.701561767578125,9.097000122070312,6.550750732421875,2.276123046875
1715093560745541000,1.711541015625,8.378738403320312,4.55877685546875,1.689544677734375
1715093560755489800,1.72148974609375,2.876861572265625,1.7743072509765625,2.18035888671875
1715093560765450000,1.731449951171875,1.2152862548828125,-0.9311370849609375,2.1612091064453125
1715093560775429400,1.741429443359375,-0.716827392578125,-5.4130859375,-0.1898956298828125
1715093560785378000,1.7513779296875,-11.569747924804688,-21.035247802734375,-2.7564849853515625
1715093560795357200,1.761357177734375,-15.29034423828125,-24.296142578125,-9.730789184570312
1715093560805307000,1.771306884765625,-1.66015625,-16.474288940429688,-7.4682769775390625
1715093560815286300,1.781286376953125,4.1362152099609375,-8.010787963867188,-3.7285308837890625
1715093560825265400,1.791265380859375,2.6925048828125,-3.2822418212890625,-4.62396240234375
1715093560835214000,1.801214111328125,2.9965667724609375,-3.9741668701171875,-5.3182830810546875
1715093560845193500,1.811193359375,-0.3002471923828125,-10.5390625,-1.7916259765625
1715093560855172600,1.821172607421875,3.2551422119140625,-13.481536865234375,-5.8306427001953125
1715093560865121300,1.831121337890625,0.8106689453125,-9.7777099609375,-2.801971435546875
1715093560875100700,1.8411005859375,-0.35052490234375,-20.743148803710938,2.3144378662109375
1715093560885079800,1.851079833984375,-4.68402099609375,-25.67999267578125,4.3686676025390625
1715093560895028700,1.86102880859375,-4.56671142578125,-32.29997253417969,11.007781982421875
1715093560905028400,1.8710283203125,0.2408447265625,-27.439743041992188,24.108856201171875
1715093560915007500,1.881007568359375,6.8201141357421875,-17.513381958007812,23.598892211914062
1715093560924956400,1.890956298828125,6.3125457763671875,-13.503082275390625,10.794692993164062
1715093560934935600,1.900935546875,-0.2523651123046875,-15.236495971679688,-3.1204071044921875
1715093560944914700,1.910914794921875,-5.8332366943359375,-15.8948974609375,-13.822479248046875
1715093560954863600,1.920863525390625,-5.4717254638671875,-14.834259033203125,-15.567855834960938
1715093560964842800,1.9308427734375,-2.4334716796875,-12.183883666992188,-9.263931274414062
1715093560974822100,1.940822265625,-0.735992431640625,-12.16473388671875,-4.5066375732421875
1715093560984801300,1.95080126953125,1.0453033447265625,-12.219802856445312,-2.7684478759765625
1715093560994780400,1.960780517578125,2.6470184326171875,-11.800811767578125,-1.659942626953125
1715093561004729300,1.970729248046875,2.718841552734375,-10.910171508789062,-0.721405029296875
1715093561014708500,1.98070849609375,1.65582275390625,-6.940582275390625,0.1907806396484375
1715093561024687900,1.99068798828125,1.0261383056640625,-3.1984405517578125,1.09100341796875
1715093561034667000,2.0006669921875,0.5712432861328125,0.2204742431640625,-1.564178466796875
1715093561044615700,2.01061572265625,-1.6912689208984375,-0.4882049560546875,-6.996612548828125
1715093561054595000,2.020594970703125,-3.63775634765625,-2.5831298828125,-3.50347900390625
1715093561064574200,2.03057421875,-0.0320892333984375,-6.31329345703125,1.1005706787109375
1715093561074523000,2.04052294921875,-0.4223480224609375,-9.385055541992188,-1.2672882080078125
1715093561084502300,2.050502197265625,-0.503753662109375,-10.36907958984375,-2.189056396484375
1715093561094481400,2.0604814453125,-0.2116546630859375,-10.601318359375,-1.6096649169921875
1715093561104430000,2.07043017578125,-0.3577117919921875,-11.18310546875,-1.2984161376953125
1715093561114409500,2.080409423828125,-0.894012451171875,-11.47760009765625,-1.6000823974609375
1715093561124388600,2.090388671875,1.1506500244140625,-11.961227416992188,-0.0079345703125
1715093561134337300,2.100337158203125,2.328582763671875,-12.215011596679688,1.4333648681640625
1715093561144312000,2.11031201171875,2.860107421875,-12.835098266601562,2.0391082763671875
1715093561154291500,2.12029150390625,2.07958984375,-12.691452026367188,1.445343017578125
1715093561164240100,2.130240234375,0.36773681640625,-11.611663818359375,0.3823089599609375
1715093561174219300,2.14021923828125,-0.6881103515625,-11.094528198242188,-1.18109130859375
1715093561184198700,2.15019873046875,-0.9706268310546875,-10.2733154296875,-1.6623382568359375
1715093561194147300,2.160147216796875,-1.5524139404296875,-9.887847900390625,-1.36065673828125
1715093561204126500,2.17012646484375,-0.716827392578125,-10.108108520507812,-0.7285919189453125
1715093561214105900,2.18010595703125,1.270355224609375,-9.796859741210938,-0.9608306884765625
1715093561224054500,2.190054443359375,2.711669921875,-8.88946533203125,-1.6216278076171875
1715093561234033700,2.20003369140625,2.3214111328125,-8.4345703125,-2.2800445556640625
1715093561244013000,2.210012939453125,1.830596923828125,-8.38189697265625,-2.356658935546875
1715093561253992200,2.2199921875,1.842559814453125,-8.72186279296875,-1.55938720703125
1715093561263941000,2.229941162109375,2.180145263671875,-9.076202392578125,0.4924468994140625
1715093561273920300,2.239920166015625,2.0963592529296875,-9.837570190429688,2.999176025390625
1715093561283899400,2.2498994140625,1.7491912841796875,-10.371475219726562,4.33514404296875
1715093561293878800,2.259878662109375,0.9519195556640625,-10.56060791015625,4.4811859130859375
1715093561303827500,2.269827392578125,0.21929931640625,-10.256546020507812,3.4133758544921875
1715093561313806800,2.279806884765625,0.5401153564453125,-9.521530151367188,1.8332061767578125
1715093561323786000,2.289785888671875,-0.4798126220703125,-9.183944702148438,-0.180328369140625
1715093561333734700,2.299734619140625,-0.7599334716796875,-9.296478271484375,-2.2560882568359375
1715093561343714000,2.309714111328125,-0.695281982421875,-9.44012451171875,-3.2161712646484375
1715093561353693200,2.319693115234375,-1.401580810546875,-9.535888671875,-3.383758544921875
1715093561363641900,2.329641845703125,-1.169342041015625,-9.717849731445312,-2.6678924560546875
1715093561373621200,2.339621337890625,-0.7647247314453125,-10.258941650390625,-1.99273681640625
1715093561383600400,2.349600341796875,-0.070404052734375,-10.361892700195312,-1.6431732177734375
1715093561393549000,2.359549072265625,-0.4534759521484375,-10.30682373046875,-1.1667327880859375
1715093561403528400,2.369528564453125,0.1259307861328125,-10.048248291015625,-0.745361328125
1715093561413507600,2.379507568359375,0.8082733154296875,-9.7777099609375,-0.2306060791015625
1715093561423456300,2.389456298828125,1.1266937255859375,-9.626876831054688,0.1692352294921875
1715093561433435600,2.399435546875,0.8992462158203125,-9.528717041015625,0.609771728515625
1715093561443414800,2.409414794921875,0.4060516357421875,-9.540679931640625,0.9832611083984375
1715093561453363700,2.41936376953125,0.214508056640625,-9.66278076171875,1.138885498046875
1715093561463342800,2.4293427734375,0.5880126953125,-10.02191162109375,1.0670623779296875
1715093561473322000,2.439322021484375,0.9782562255859375,-10.586944580078125,0.739044189453125
1715093561483271000,2.44927099609375,1.44512939453125,-10.8551025390625,-0.101318359375
1715093561493250000,2.45925,1.4427337646484375,-10.823974609375,-1.0398406982421875
1715093561503229400,2.4692294921875,0.6861724853515625,-11.029876708984375,-1.5904998779296875
1715093561513178000,2.47917822265625,0.1378936767578125,-11.336334228515625,-1.545013427734375
1715093561523157200,2.4891572265625,-0.017730712890625,-11.831939697265625,-0.7166290283203125
1715093561533136600,2.49913671875,0.245635986328125,-11.815170288085938,0.1596527099609375
1715093561543115800,2.50911572265625,-0.0632171630859375,-11.45843505859375,1.107757568359375
1715093561553064400,2.519064453125,-0.556427001953125,-11.408157348632812,1.349578857421875
1715093561563043800,2.5290439453125,-1.0137176513671875,-11.788833618164062,0.7845458984375
1715093561573023000,2.53902294921875,-1.21722412109375,-12.32275390625,-0.3167877197265625
1715093561583002400,2.54900244140625,-1.746337890625,-12.705825805664062,-0.5586090087890625
1715093561592981500,2.5589814453125,-1.7367706298828125,-12.904541015625,-0.07977294921875
1715093561602930200,2.56893017578125,-0.8772430419921875,-12.985946655273438,1.129302978515625
1715093561612909600,2.57890966796875,0.1331024169921875,-12.7369384765625,2.67596435546875
1715093561622888700,2.588888671875,0.32464599609375,-12.035446166992188,3.00396728515625
1715093561632837400,2.59883740234375,1.1985321044921875,-11.451263427734375,3.5785675048828125
1715093561642816800,2.608816650390625,2.307037353515625,-11.180709838867188,4.0406494140625
1715093561652796000,2.6187958984375,1.7755279541015625,-11.47998046875,3.559417724609375
1715093561662744800,2.628744873046875,0.868133544921875,-11.812774658203125,2.68792724609375
1715093561672724000,2.638723876953125,0.4395599365234375,-12.193466186523438,1.1460723876953125
1715093561682703000,2.648703125,-0.43670654296875,-12.976364135742188,-1.0087127685546875
1715093561692652000,2.658652099609375,-0.9466705322265625,-12.780044555664062,-3.922454833984375
1715093561702631200,2.668631103515625,-0.5851593017578125,-12.100082397460938,-5.84979248046875
1715093561712610300,2.6786103515625,-0.2858734130859375,-12.116851806640625,-6.1993408203125
1715093561722559200,2.688559326171875,-0.051239013671875,-12.880599975585938,-6.5297393798828125
1715093561732538400,2.698538330078125,0.86334228515625,-13.809539794921875,-6.9415435791015625
1715093561742517800,2.708517822265625,0.995025634765625,-14.597244262695312,-6.7715606689453125
1715093561752466400,2.718466552734375,0.2001495361328125,-15.406478881835938,-6.3645477294921875
1715093561762445600,2.728445556640625,-0.9035797119140625,-16.239654541015625,-5.9694976806640625
1715093561772425000,2.738425048828125,-1.286651611328125,-17.127914428710938,-5.7372589111328125
1715093561782373600,2.74837353515625,-1.274688720703125,-17.305084228515625,-6.742828369140625
1715093561792352800,2.758352783203125,-0.0368804931640625,-16.866943359375,-7.76275634765625
1715093561802332200,2.768332275390625,1.715667724609375,-15.382537841796875,-6.5081939697265625
1715093561812280800,2.77828076171875,2.855316162109375,-13.249298095703125,-2.062164306640625
1715093561822260000,2.788260009765625,0.7867279052734375,-11.518295288085938,4.804412841796875
1715093561832239400,2.7982392578125,-0.1637725830078125,-11.47760009765625,5.0629730224609375
1715093561842218500,2.808218505859375,0.5185699462890625,-11.925308227539062,0.980865478515625
1715093561852167400,2.81816748046875,0.25042724609375,-11.611663818359375,-1.207427978515625
1715093561862146600,2.828146484375,0.4323883056640625,-10.529495239257812,-1.4947357177734375
1715093561872125700,2.838125732421875,0.8441925048828125,-8.693130493164062,-0.19708251953125
1715093561882105000,2.84810498046875,1.1051483154296875,-7.2063446044921875,-0.455657958984375
1715093561892053800,2.8580537109375,0.6406707763671875,-6.0619049072265625,-0.9392852783203125
1715093561902033200,2.868033203125,0.5329437255859375,-5.166473388671875,-1.5210723876953125
1715093561912012300,2.87801220703125,1.8904571533203125,-3.8903656005859375,-1.9376678466796875
1715093561921961000,2.8879609375,2.740386962890625,-2.6525726318359375,-1.8011932373046875
1715093561931940400,2.8979404296875,2.2136688232421875,-2.219207763671875,-2.4979095458984375
1715093561941919500,2.90791943359375,1.471466064453125,-1.8505096435546875,-2.5074920654296875
1715093561951868200,2.9178681640625,1.7372283935546875,-1.8553009033203125,-2.5027008056640625
1715093561961847600,2.92784765625,1.3206329345703125,-1.57757568359375,-2.8307037353515625
1715093561971826700,2.93782666015625,1.282318115234375,-1.2160491943359375,-2.404541015625
1715093561981775400,2.947775390625,1.138671875,-0.907196044921875,-2.1914520263671875
1715093561991754800,2.957754638671875,0.5066070556640625,-0.761138916015625,-2.1124420166015625
1715093562001734000,2.96773388671875,-0.0009613037109375,-0.6270751953125,-1.760498046875
1715093562011682800,2.977682861328125,-0.980194091796875,-1.177734375,-0.968017578125
1715093562021662000,2.987661865234375,-3.182861328125,-1.869659423828125,-0.9871673583984375
1715093562031641000,2.99764111328125,-4.1525115966796875,-2.5089111328125,-0.235382080078125
1715093562041590000,3.007590087890625,-4.815704345703125,-3.1529541015625,0.1285247802734375
1715093562051569200,3.017569091796875,-5.5291748046875,-4.194427490234375,0.2745819091796875
1715093562061548500,3.027548583984375,-6.2666015625,-5.9565582275390625,0.9569244384765625
1715093562071497200,3.037497314453125,-8.794876098632812,-8.18316650390625,1.2897186279296875
1715093562081476400,3.047476318359375,-11.500320434570312,-11.30999755859375,1.9409332275390625
1715093562091455700,3.057455810546875,-13.403717041015625,-15.84222412109375,3.6408233642578125
1715093562101404400,3.067404296875,-16.228866577148438,-22.682464599609375,3.5354766845703125
1715093562111383600,3.077383544921875,-13.2193603515625,-28.1292724609375,6.940032958984375
1715093562121363000,3.087363037109375,-6.6927642822265625,-25.830825805664062,7.14593505859375
1715093562131342000,3.097342041015625,-6.6257171630859375,-16.711318969726562,3.9257354736328125
1715093562141321500,3.107321533203125,-7.43017578125,-7.4074554443359375,3.2290191650390625
1715093562151270100,3.117270263671875,-8.521926879882812,-0.6510162353515625,1.9122161865234375
1715093562161249300,3.127249267578125,-7.1835784912109375,2.662567138671875,0.621734619140625
1715093562171228700,3.137228759765625,-4.0663299560546875,0.634674072265625,-1.03265380859375
1715093562181207800,3.147207763671875,-0.324188232421875,-3.2511138916015625,-3.29278564453125
1715093562191156500,3.157156494140625,4.741943359375,-7.39068603515625,-3.910491943359375
1715093562201135900,3.167135986328125,6.1233978271484375,-11.798416137695312,-4.767608642578125
1715093562211115000,3.177114990234375,5.062774658203125,-16.203750610351562,-7.6167144775390625
1715093562221063700,3.187063720703125,-3.8388671875,-19.998550415039062,-9.371658325195312
1715093562231043000,3.19704296875,-11.701431274414062,-29.012725830078125,-4.4994659423828125
1715093562241022200,3.207022216796875,-1.7702789306640625,-28.359115600585938,1.23944091796875
1715093562250971100,3.21697119140625,-1.14300537109375,-13.92926025390625,1.392669677734375
1715093562260950300,3.2269501953125,-1.3058013916015625,-6.7945404052734375,-1.0709686279296875
1715093562270929400,3.236929443359375,2.8888397216796875,-3.4258880615234375,-2.2608795166015625
1715093562280878300,3.24687841796875,6.7626495361328125,-1.3333587646484375,-3.6710662841796875
1715093562290857500,3.256857421875,7.5814666748046875,-0.3230133056640625,-4.4108734130859375
1715093562300836900,3.2668369140625,5.117828369140625,-1.0101470947265625,-4.8681640625
1715093562310785500,3.27678564453125,1.514556884765625,-2.947052001953125,-4.544952392578125
1715093562320764700,3.2867646484375,0.54730224609375,-5.535186767578125,-4.54974365234375
1715093562330744000,3.296744140625,0.762786865234375,-8.3292236328125,-4.916046142578125
1715093562340692700,3.306692626953125,1.2679595947265625,-11.62603759765625,-3.51544189453125
1715093562350672000,3.316671875,0.9974212646484375,-15.157485961914062,-0.625640869140625
1715093562360620800,3.326620849609375,0.087615966796875,-16.495834350585938,1.12451171875
1715093562370600000,3.336599853515625,0.499420166015625,-16.309097290039062,0.643280029296875
1715093562380579000,3.3465791015625,-0.17095947265625,-14.8175048828125,1.3040771484375
1715093562390528000,3.356528076171875,-1.4781951904296875,-12.255706787109375,3.188323974609375
1715093562400507100,3.366507080078125,-2.25390625,-9.86151123046875,3.8108062744140625
1715093562410486500,3.376486572265625,-1.2100372314453125,-7.986846923828125,1.86431884765625
1715093562420465700,3.386465576171875,0.04931640625,-6.5455322265625,-1.099700927734375
1715093562430444800,3.39644482421875,-0.1063079833984375,-5.5016632080078125,-2.517059326171875
1715093562440393700,3.406393798828125,-0.4654388427734375,-5.2263336181640625,-3.297576904296875
1715093562450372900,3.416372802734375,-0.324188232421875,-5.1952056884765625,-2.9480133056640625
1715093562460352300,3.426352294921875,0.097198486328125,-5.55194091796875,-2.38299560546875
1715093562470331400,3.436331298828125,1.4044342041015625,-6.5335693359375,-0.941680908203125
1715093562480280000,3.446280029296875,1.799468994140625,-7.6612396240234375,0.241058349609375
1715093562490259500,3.456259521484375,1.794677734375,-8.8056640625,0.6289215087890625
1715093562500238600,3.466238525390625,1.6270904541015625,-9.964462280273438,0.928192138671875
1715093562510187300,3.476187255859375,0.3773193359375,-10.7066650390625,1.5171661376953125
1715093562520166700,3.486166748046875,-1.2698974609375,-10.7186279296875,1.3232421875
1715093562530145800,3.496145751953125,-2.2491302490234375,-10.658782958984375,0.92340087890625
1715093562540094500,3.506094482421875,-2.2084197998046875,-9.902206420898438,0.1907806396484375
1715093562550073900,3.516073974609375,-1.961822509765625,-9.863906860351562,0.051910400390625
1715093562560053000,3.526052978515625,-1.4255218505859375,-10.409774780273438,0.1692352294921875
1715093562570001700,3.536001708984375,-0.568389892578125,-11.470413208007812,0.272186279296875
1715093562579981000,3.54598095703125,-0.6138763427734375,-12.085723876953125,-0.4891815185546875
1715093562589960200,3.555960205078125,-1.147796630859375,-11.556594848632812,-0.2856597900390625
1715093562599909000,3.5659091796875,-1.66015625,-10.649200439453125,0.4804840087890625
1715093562609888300,3.57588818359375,-1.1190643310546875,-10.12725830078125,1.5961761474609375
1715093562619867400,3.585867431640625,-0.1494140625,-10.182327270507812,2.7860870361328125
1715093562629816300,3.59581640625,0.44195556640625,-10.574981689453125,3.8515167236328125
1715093562639795500,3.60579541015625,0.8848876953125,-10.721023559570312,4.435699462890625
1715093562649774800,3.61577490234375,1.6366729736328125,-10.4217529296875,4.54583740234375
1715093562659723500,3.6257236328125,1.6031494140625,-10.191909790039062,4.7038421630859375
1715093562669688600,3.6356884765625,1.2104949951171875,-10.287673950195312,5.5322418212890625
1715093562679668000,3.64566796875,-0.3577117919921875,-10.388229370117188,5.70941162109375
1715093562689647000,3.655647216796875,-2.395172119140625,-10.256546020507812,4.7469482421875
1715093562699626200,3.665626220703125,-3.35284423828125,-11.269302368164062,2.35992431640625
1715093562709575200,3.6755751953125,-3.3648223876953125,-13.1583251953125,0.8827056884765625
1715093562719554300,3.68555419921875,-2.241943359375,-14.503860473632812,1.8715057373046875
1715093562729533400,3.695533447265625,-0.8916168212890625,-14.506256103515625,3.267333984375
1715093562739512800,3.705512939453125,-0.4008026123046875,-13.019454956054688,3.2864837646484375
1715093562749461500,3.71546142578125,0.5018157958984375,-11.207046508789062,2.321624755859375
1715093562759441000,3.72544091796875,0.4323883056640625,-8.973251342773438,2.491607666015625
1715093562769420000,3.735419921875,0.5066070556640625,-7.8264312744140625,3.008758544921875
1715093562779368700,3.74536865234375,0.60955810546875,-8.408233642578125,3.401397705078125
1715093562789348000,3.75534814453125,-0.0943450927734375,-10.869461059570312,1.6871490478515625
1715093562799327200,3.7653271484375,0.3533782958984375,-13.524642944335938,-1.6216278076171875
1715093562809276000,3.77527587890625,0.8513641357421875,-16.661041259765625,-4.7628173828125
1715093562819255300,3.78525537109375,1.112335205078125,-20.76708984375,-7.271942138671875
1715093562829234400,3.795234375,0.26239013671875,-23.419876098632812,-9.37884521484375
1715093562839183000,3.80518310546875,-1.1980743408203125,-23.348052978515625,-9.177734375
1715093562849162500,3.81516259765625,-1.3584747314453125,-21.794204711914062,-8.873672485351562
1715093562859141600,3.8251416015625,-1.9809722900390625,-19.632247924804688,-8.284698486328125
1715093562869090600,3.835090576171875,-1.9378814697265625,-17.585205078125,-8.014144897460938
1715093562879069700,3.845069580078125,-0.7288055419921875,-15.655471801757812,-7.006195068359375
1715093562889048800,3.855048828125,1.409210205078125,-14.166275024414062,-4.4515838623046875
1715093562898997800,3.864997802734375,1.9072113037109375,-12.837493896484375,-0.0630035400390625
1715093562908977000,3.874976806640625,2.0125579833984375,-11.460830688476562,5.6375885009765625
1715093562918956300,3.884956298828125,0.4658966064453125,-10.36907958984375,8.692596435546875
1715093562928905000,3.894905029296875,-0.1589813232421875,-10.651596069335938,5.8698272705078125
1715093562938884000,3.904884033203125,-1.1262359619140625,-10.749755859375,0.6935577392578125
1715093562948832800,3.914832763671875,0.0469207763671875,-9.86151123046875,-0.5777587890625
1715093562958812200,3.924812255859375,-0.355316162109375,-8.094589233398438,-0.1898956298828125
1715093562968791300,3.934791259765625,-0.2595367431640625,-6.5144195556640625,-1.384613037109375
1715093562978770700,3.944770751953125,1.418792724609375,-5.3005523681640625,-2.2608795166015625
1715093562988749800,3.954749755859375,2.661376953125,-3.8640289306640625,-2.517059326171875
1715093562998698500,3.964698486328125,3.2910614013671875,-2.6262359619140625,-3.1371612548828125
1715093563008678000,3.974677978515625,3.7100372314453125,-1.37884521484375,-3.419677734375
1715093563018657000,3.984656982421875,4.023681640625,-0.7898712158203125,-3.83148193359375
1715093563028636400,3.994636474609375,3.93988037109375,-0.8904266357421875,-3.716552734375
1715093563038585000,4.004585205078125,3.3988037109375,-0.5720062255859375,-3.1539154052734375
1715093563048564200,4.014564208984375,2.939117431640625,-0.179351806640625,-4.1187896728515625
1715093563058543600,4.024543701171875,2.5153350830078125,0.4263763427734375,-4.4683380126953125
1715093563068492300,4.0344921875,1.840179443359375,1.3242034912109375,-4.5856475830078125
1715093563078471700,4.0444716796875,1.2631683349609375,2.2339935302734375,-4.228912353515625
1715093563088450800,4.054450927734375,0.0205841064453125,1.9586639404296875,-3.7285308837890625
1715093563098399500,4.0643994140625,-0.5324859619140625,0.5125732421875,-3.5968475341796875
1715093563108379000,4.07437890625,-2.0073089599609375,-1.26153564453125,-2.6080474853515625
1715093563118358000,4.08435791015625,-5.10540771484375,-3.813751220703125,-1.41094970703125
1715093563128306700,4.094306640625,-9.144424438476562,-7.3499908447265625,0.2386627197265625
1715093563138286000,4.1042861328125,-11.323150634765625,-10.747360229492188,3.0015716552734375
1715093563148265200,4.11426513671875,-14.090850830078125,-14.075302124023438,7.4069061279296875
1715093563158214000,4.1242138671875,-13.650314331054688,-18.214874267578125,7.2584686279296875
1715093563168193300,4.134193359375,-14.363784790039062,-23.659286499023438,5.4747772216796875
1715093563178172400,4.14417236328125,-11.30877685546875,-26.41741943359375,6.078125
1715093563188121000,4.15412109375,-5.608184814453125,-20.539642333984375,6.865814208984375
1715093563198100500,4.1641005859375,-5.215545654296875,-13.785598754882812,3.415771484375
1715093563208079600,4.17407958984375,-8.129287719726562,-7.45294189453125,2.0917816162109375
1715093563218028500,4.184028564453125,-7.626495361328125,-3.0188751220703125,2.470062255859375
1715093563228007700,4.194007568359375,-6.601776123046875,-2.3101959228515625,1.4644927978515625
1715093563237986800,4.20398681640625,-5.395111083984375,-4.089080810546875,0.8994598388671875
1715093563247935700,4.213935791015625,-1.5524139404296875,-8.092193603515625,-1.3774261474609375
1715093563257915000,4.223914794921875,0.42041015625,-12.368240356445312,-2.1483612060546875
1715093563267894300,4.233894287109375,1.9024200439453125,-17.604354858398438,-4.0254058837890625
1715093563277873400,4.243873291015625,-1.8397216796875,-20.98736572265625,-9.271102905273438
1715093563287852500,4.2538525390625,-5.0144195556640625,-24.324874877929688,-6.0963897705078125
1715093563297801500,4.263801513671875,1.9646759033203125,-22.581893920898438,-1.2361602783203125
1715093563307780600,4.273780517578125,-0.355316162109375,-15.169448852539062,-0.4795989990234375
1715093563317760000,4.283760009765625,0.89447021484375,-10.340347290039062,0.3823089599609375
1715093563327708700,4.293708740234375,5.539215087890625,-8.017974853515625,0.0231781005859375
1715093563337687800,4.303687744140625,7.1529083251953125,-5.87994384765625,-1.10687255859375
1715093563347667200,4.313667236328125,5.3572540283203125,-4.520050048828125,-1.7437286376953125
1715093563357646300,4.323646240234375,2.6829376220703125,-4.8193206787109375,-3.149139404296875
1715093563367595000,4.333594970703125,2.1346588134765625,-6.1768341064453125,-5.0692901611328125
1715093563377574400,4.343574462890625,0.7819366455078125,-7.6516571044921875,-5.885711669921875
1715093563387553500,4.353553466796875,-0.2667236328125,-8.427383422851562,-5.66064453125
1715093563397502200,4.363502197265625,0.4443511962890625,-9.327606201171875,-5.1027984619140625
1715093563407481600,4.373481689453125,1.6175079345703125,-10.275711059570312,-3.5250244140625
1715093563417460700,4.383460693359375,0.4850616455078125,-11.238174438476562,-1.612060546875
1715093563427409700,4.39340966796875,-0.5013580322265625,-12.495132446289062,-0.70465087890625
1715093563437388800,4.403388916015625,0.3222503662109375,-12.906936645507812,2.017547607421875
1715093563447368000,4.413367919921875,0.2695770263671875,-12.753707885742188,3.87066650390625
1715093563457316900,4.42331689453125,-0.534881591796875,-11.400985717773438,5.7333526611328125
1715093563467296000,4.4332958984375,0.2336578369140625,-9.674758911132812,6.238525390625
1715093563477244700,4.44324462890625,-0.1182861328125,-8.3292236328125,3.7581329345703125
1715093563487224000,4.45322412109375,-0.5659942626953125,-7.278167724609375,0.2266845703125
1715093563497203200,4.463203125,-0.3720703125,-6.2199249267578125,-1.0613861083984375
1715093563507152000,4.47315185546875,-0.472625732421875,-5.5950469970703125,-0.7716827392578125
1715093563517131300,4.48313134765625,-0.324188232421875,-5.6956024169921875,-1.2289886474609375
1715093563527110400,4.4931103515625,0.4132232666015625,-6.5455322265625,-0.97998046875
1715093563537089800,4.50308984375,1.038116455078125,-7.5774383544921875,-0.323974609375
1715093563547038500,4.51303857421875,1.2895050048828125,-8.64764404296875,0.09979248046875
1715093563557017600,4.523017578125,1.4379425048828125,-9.363510131835938,0.5355377197265625
1715093563566997000,4.5329970703125,-0.4917755126953125,-9.29168701171875,1.409423828125
1715093563576976100,4.54297607421875,-2.6824798583984375,-9.902206420898438,2.364715576171875
1715093563586955500,4.55295556640625,-3.0056915283203125,-10.057830810546875,2.56103515625
1715093563596904200,4.562904296875,-2.14617919921875,-10.088958740234375,2.75018310546875
1715093563606883300,4.57288330078125,-1.720001220703125,-10.22064208984375,3.21466064453125
1715093563616862700,4.58286279296875,-2.2395477294921875,-10.80242919921875,3.6839141845703125
1715093563626811400,4.592811279296875,-2.184478759765625,-10.721023559570312,3.822784423828125
1715093563636790500,4.60279052734375,-1.3991851806640625,-9.665176391601562,4.1891021728515625
1715093563646770000,4.61277001953125,-1.0137176513671875,-9.239013671875,3.760528564453125
1715093563656718600,4.622718505859375,-0.1422271728515625,-9.277328491210938,3.30084228515625
1715093563666698000,4.632697998046875,0.5401153564453125,-9.531112670898438,2.9967803955078125
1715093563676677000,4.642677001953125,1.090789794921875,-9.878265380859375,3.39422607421875
1715093563686625800,4.652625732421875,1.090789794921875,-9.974029541015625,4.720611572265625
1715093563696605200,4.662605224609375,0.44195556640625,-10.196701049804688,6.60723876953125
1715093563706584300,4.672584228515625,-0.2116546630859375,-10.330764770507812,8.726104736328125
1715093563716533000,4.682532958984375,-0.166168212890625,-9.87347412109375,9.726882934570312
1715093563726512400,4.692512451171875,-1.7271881103515625,-9.5670166015625,8.412460327148438
1715093563736491500,4.702491455078125,-2.8787994384765625,-11.051422119140625,3.9568634033203125
1715093563746440200,4.712440185546875,-2.237152099609375,-12.519073486328125,2.2042999267578125
1715093563756419600,4.722419677734375,-0.3792572021484375,-12.569351196289062,4.320770263671875
1715093563766398700,4.732398681640625,1.081207275390625,-11.9444580078125,4.6559600830078125
1715093563776347600,4.74234765625,-0.029693603515625,-11.52069091796875,3.1284637451171875
1715093563786326800,4.752326904296875,-1.4734039306640625,-11.518295288085938,2.395843505859375
1715093563796306000,4.762305908203125,-1.4255218505859375,-12.444854736328125,2.048675537109375
1715093563806254800,4.7722548828125,-1.1621551513671875,-13.922073364257812,-0.74774169921875
1715093563816234000,4.78223388671875,0.5137786865234375,-15.159881591796875,-4.15948486328125
1715093563826213400,4.79221337890625,1.2104949951171875,-17.973068237304688,-5.792327880859375
1715093563836192500,4.802192626953125,1.29669189453125,-21.0400390625,-7.7555694580078125
1715093563846171600,4.812171630859375,0.425201416015625,-22.629791259765625,-9.62066650390625
1715093563856120600,4.82212060546875,-0.5755767822265625,-22.670486450195312,-9.8529052734375
1715093563866099700,4.832099609375,-0.884429931640625,-22.036026000976562,-9.206466674804688
1715093563876079000,4.8420791015625,-1.734375,-20.652175903320312,-8.145828247070312
1715093563886058200,4.852058349609375,-1.9761810302734375,-18.231643676757812,-6.5297393798828125
1715093563896007000,4.8620068359375,-0.82696533203125,-16.419219970703125,-5.10040283203125
1715093563905986300,4.871986328125,1.509765625,-14.865386962890625,-3.8769683837890625
1715093563915965400,4.88196533203125,3.453857421875,-12.420913696289062,4.1891021728515625
1715093563925914000,4.8919140625,-0.2667236328125,-10.95086669921875,12.4921875
1715093563935893500,4.9018935546875,-0.8078155517578125,-11.230987548828125,11.307052612304688
1715093563945872600,4.91187255859375,-3.1900482177734375,-11.539840698242188,3.22662353515625
1715093563955821300,4.9218212890625,-3.4366455078125,-10.879043579101562,-1.133209228515625
1715093563965800700,4.93180078125,-2.32574462890625,-8.990020751953125,-0.5849456787109375
1715093563975779800,4.94177978515625,-1.3201751708984375,-7.311676025390625,-0.25933837890625
1715093563985728500,4.951728515625,-0.3720703125,-5.5615234375,-1.870635986328125
1715093563995708000,4.9617080078125,0.6119537353515625,-3.48095703125,-2.430877685546875
1715093564005687000,4.97168701171875,1.895233154296875,-2.207244873046875,-2.3734130859375
1715093564015636000,4.981635986328125,1.9718475341796875,-1.4219512939453125,-2.7421112060546875
1715093564025615000,4.991614990234375,2.5560455322265625,-0.3708953857421875,-2.35186767578125
1715093564035594200,5.00159423828125,2.7260284423828125,0.021759033203125,-2.4667816162109375
1715093564045543200,5.011543212890625,2.8888397216796875,-0.2056884765625,-2.610443115234375
1715093564055522300,5.021522216796875,3.109100341796875,-0.0811920166015625,-2.9528045654296875
1715093564065501700,5.031501708984375,3.1857147216796875,0.2276611328125,-4.01104736328125
1715093564075450400,5.041450439453125,3.0971221923828125,0.718475341796875,-4.6766357421875
1715093564085429500,5.051429443359375,2.1394500732421875,1.0800018310546875,-4.501861572265625
1715093564095409000,5.061408935546875,1.2990875244140625,1.8198089599609375,-3.9080963134765625
1715093564105357600,5.071357666015625,0.6909637451171875,0.5149688720703125,-3.953582763671875
1715093564115336700,5.081336669921875,-0.7982330322265625,-1.326171875,-2.986328125
1715093564125316000,5.091316162109375,-4.097442626953125,-3.3780059814453125,-0.88421630859375
1715093564135295200,5.101295166015625,-8.251388549804688,-6.1241607666015625,1.34478759765625
1715093564145244000,5.111243896484375,-11.119644165039062,-9.35394287109375,3.93292236328125
1715093564155223300,5.121223388671875,-13.207382202148438,-12.547805786132812,9.3533935546875
1715093564165202400,5.131202392578125,-13.894515991210938,-16.512603759765625,11.407608032226562
1715093564175181800,5.141181884765625,-13.63116455078125,-23.273818969726562,10.809066772460938
1715093564185130500,5.151130615234375,-11.473983764648438,-27.841964721679688,10.308670043945312
1715093564195109600,5.161109619140625,-5.9050750732421875,-22.493316650390625,8.450775146484375
1715093564205089000,5.171089111328125,-3.7814178466796875,-14.688217163085938,5.0414276123046875
1715093564215037700,5.18103759765625,-6.9992218017578125,-6.8328399658203125,1.68475341796875
1715093564225017000,5.19101708984375,-7.7773284912109375,-2.915924072265625,-0.1108856201171875
1715093564234996200,5.200996337890625,-5.71832275390625,-4.19921875,-1.080535888671875
1715093564244945000,5.21094482421875,-2.352081298828125,-6.95733642578125,-2.071746826171875
1715093564254924300,5.22092431640625,2.6063232421875,-9.456893920898438,-4.6143798828125
1715093564264903400,5.2309033203125,0.1690216064453125,-13.94122314453125,-6.4962310791015625
1715093564274852000,5.24085205078125,-3.01287841796875,-18.873275756835938,-9.144210815429688
1715093564284831500,5.25083154296875,-4.6864166259765625,-23.362411499023438,-7.2647705078125
1715093564294810600,5.260810546875,5.043609619140625,-26.189956665039062,0.6720123291015625
1715093564304759300,5.27075927734375,3.839324951171875,-19.091156005859375,2.6855316162109375
1715093564314738700,5.28073876953125,1.80426025390625,-11.254928588867188,3.341552734375
1715093564324717800,5.2907177734375,2.8696746826171875,-7.553497314453125,1.6703948974609375
1715093564334666800,5.300666748046875,5.0651702880859375,-5.276611328125,0.2697906494140625
1715093564344646000,5.31064599609375,5.433868408203125,-4.05078125,-1.10687255859375
1715093564354625000,5.320625,2.9750213623046875,-4.61102294921875,-2.330322265625
1715093564364574000,5.330573974609375,1.65582275390625,-5.3819580078125,-3.69500732421875
1715093564374553000,5.340552978515625,1.2200775146484375,-6.0283966064453125,-4.4420013427734375
1715093564384532200,5.3505322265625,0.774749755859375,-7.7043304443359375,-5.6367034912109375
1715093564394481200,5.360481201171875,0.0852203369140625,-9.794464111328125,-6.584808349609375
1715093564404460300,5.370460205078125,1.1075439453125,-12.284439086914062,-6.1993408203125
1715093564414439700,5.380439697265625,1.0453033447265625,-14.254867553710938,-2.675079345703125
1715093564424418800,5.390418701171875,0.1426849365234375,-15.78955078125,-0.551422119140625
1715093564434398000,5.40039794921875,-0.24517822265625,-16.251632690429688,1.076629638671875
1715093564444347000,5.410346923828125,0.17620849609375,-15.047348022460938,4.8642578125
1715093564454326000,5.420325927734375,1.239227294921875,-12.918899536132812,7.605621337890625
1715093564464305400,5.430305419921875,0.753204345703125,-10.498367309570312,6.8586273193359375
1715093564474284500,5.440284423828125,0.0373382568359375,-7.8264312744140625,4.8714447021484375
1715093564484233200,5.450233154296875,0.4850616455078125,-5.6046142578125,2.14923095703125
1715093564494212600,5.460212646484375,-0.070404052734375,-4.5080718994140625,0.1333160400390625
1715093564504191700,5.470191650390625,-0.656982421875,-3.6796722412109375,0.38470458984375
1715093564514140400,5.480140380859375,-0.896392822265625,-3.7634735107421875,-0.53466796875
1715093564524119800,5.490119873046875,0.415618896484375,-5.07550048828125,-1.30560302734375
1715093564534099000,5.500098876953125,1.7851104736328125,-6.51202392578125,-0.994354248046875
1715093564544047600,5.510047607421875,1.914398193359375,-7.9006500244140625,-0.30242919921875
1715093564554027000,5.520027099609375,1.555267333984375,-9.519134521484375,0.430206298828125
1715093564564006100,5.530006103515625,0.0301513671875,-11.324371337890625,0.0758514404296875
1715093564573955000,5.539955078125,-1.6577606201171875,-11.652374267578125,-0.1156768798828125
1715093564583934200,5.549934326171875,-4.0471649169921875,-10.333160400390625,1.1724090576171875
1715093564593913300,5.559913330078125,-4.8444366455078125,-9.22943115234375,2.4987945556640625
1715093564603862300,5.5698623046875,-4.391937255859375,-8.942138671875,3.51153564453125
1715093564613841400,5.57984130859375,-2.4717864990234375,-9.631668090820312,4.1795196533203125
1715093564623820800,5.58982080078125,0.7938995361328125,-10.258941650390625,4.2321929931640625
1715093564633769500,5.59976953125,1.787506103515625,-9.938125610351562,5.5202789306640625
1715093564643748600,5.60974853515625,0.6622314453125,-10.086563110351562,4.72540283203125
1715093564653728000,5.61972802734375,0.1211395263671875,-10.476821899414062,4.6128692626953125
1715093564663676700,5.6296767578125,-0.1470184326171875,-10.527099609375,4.794830322265625
1715093564673655800,5.63965576171875,-0.7982330322265625,-10.572586059570312,5.3622589111328125
1715093564683635200,5.64963525390625,-1.2818603515625,-10.079376220703125,5.51788330078125
1715093564693614300,5.6596142578125,-0.4534759521484375,-9.66278076171875,5.862640380859375
1715093564703593700,5.66959375,0.6023712158203125,-9.241409301757812,7.7564544677734375
1715093564713542400,5.67954248046875,-1.1214599609375,-8.863128662109375,8.9942626953125
1715093564723521500,5.689521484375,-3.4989013671875,-9.7777099609375,7.308746337890625
1715093564733501000,5.6995009765625,-2.6154327392578125,-12.119232177734375,5.5897064208984375
1715093564743480000,5.70947998046875,-1.0352630615234375,-13.498306274414062,6.770050048828125
1715093564753428700,5.7194287109375,0.62152099609375,-12.892562866210938,6.887359619140625
1715093564763408100,5.729408203125,-0.9993438720703125,-12.219802856445312,4.1699371337890625
1715093564773387300,5.73938720703125,-2.2227935791015625,-11.389007568359375,1.857147216796875
1715093564783336000,5.7493359375,-1.475799560546875,-10.869461059570312,1.10296630859375
1715093564793315300,5.7593154296875,-0.7982330322265625,-11.803207397460938,0.231475830078125
1715093564803294500,5.76929443359375,0.202545166015625,-13.98193359375,-1.97119140625
1715093564813243400,5.779243408203125,1.83538818359375,-17.314651489257812,-4.04217529296875
1715093564823222500,5.789222412109375,2.867279052734375,-21.277053833007812,-5.770782470703125
1715093564833201700,5.79920166015625,2.7643280029296875,-23.355224609375,-7.2839202880859375
1715093564843150600,5.809150634765625,1.2104949951171875,-23.49169921875,-7.0085906982421875
1715093564853129700,5.819129638671875,-0.1853179931640625,-22.914688110351562,-6.479461669921875
1715093564863078400,5.829078369140625,-1.5045318603515625,-22.340087890625,-6.319061279296875
1715093564873057800,5.839057861328125,-1.449462890625,-20.89398193359375,-5.3087005615234375
1715093564883037000,5.849036865234375,-0.07757568359375,-19.088760375976562,-2.89056396484375
1715093564892985600,5.858985595703125,1.68695068359375,-17.010589599609375,-0.381439208984375
1715093564902965000,5.868965087890625,1.8976287841796875,-14.029815673828125,7.89532470703125
1715093564912944000,5.878944091796875,-0.726409912109375,-12.739334106445312,14.68048095703125
1715093564922893000,5.88889306640625,-1.9594268798828125,-12.679489135742188,10.117141723632812
1715093564932872200,5.8988720703125,-2.6106414794921875,-12.047409057617188,0.442169189453125
1715093564942851300,5.908851318359375,-0.621063232421875,-10.163177490234375,-1.36065673828125
1715093564952800300,5.91880029296875,-0.2954559326171875,-8.128097534179688,-1.2241973876953125
1715093564962779400,5.928779296875,0.214508056640625,-6.43780517578125,-2.2297515869140625
1715093564972758800,5.9387587890625,1.112335205078125,-4.9102935791015625,-3.0174560546875
1715093564982738000,5.948738037109375,1.5792083740234375,-3.0236663818359375,-3.563323974609375
1715093564992717000,5.958717041015625,2.623077392578125,-1.785858154296875,-2.9743499755859375
1715093565002666000,5.968666015625,2.6781463623046875,-1.30462646484375,-3.41009521484375
1715093565012645000,5.97864501953125,2.232818603515625,-0.442718505859375,-3.1946258544921875
1715093565022624500,5.98862451171875,2.3884429931640625,0.05767822265625,-2.959991455078125
1715093565032603600,5.998603759765625,2.338165283203125,-0.284698486328125,-2.9935150146484375
1715093565042552300,6.00855224609375,2.6422271728515625,-0.433135986328125,-3.8985137939453125
1715093565052531700,6.01853173828125,3.183319091796875,-0.0189361572265625,-4.9064788818359375
1715093565062510800,6.0285107421875,3.0636138916015625,0.7208709716796875,-5.7516326904296875
1715093565072459500,6.03845947265625,2.295074462890625,1.362518310546875,-5.2033538818359375
1715093565082439000,6.04843896484375,1.509765625,1.278717041015625,-4.8873291015625
1715093565092418000,6.05841796875,0.1953582763671875,0.000213623046875,-5.0812530517578125
1715093565102366700,6.06836669921875,-1.9259033203125,-1.742767333984375,-3.18743896484375
1715093565112346000,6.07834619140625,-5.881134033203125,-4.3811798095703125,-0.647186279296875
1715093565122325200,6.0883251953125,-10.322372436523438,-7.903045654296875,2.8267974853515625
1715093565132274000,6.09827392578125,-10.8419189453125,-10.603713989257812,6.96636962890625
1715093565142253300,6.10825341796875,-13.023025512695312,-12.803985595703125,11.251983642578125
1715093565152232400,6.118232421875,-12.7237548828125,-16.289932250976562,11.352554321289062
1715093565162181400,6.128181396484375,-13.676651000976562,-22.10784912109375,11.00299072265625
1715093565172160500,6.138160400390625,-11.366241455078125,-27.62408447265625,10.0093994140625
1715093565182139600,6.1481396484375,-4.5140380859375,-23.541976928710938,8.189804077148438
1715093565192088600,6.158088623046875,-4.41827392578125,-14.587661743164062,4.500335693359375
1715093565202067700,6.168067626953125,-6.8100738525390625,-6.940582275390625,2.14923095703125
1715093565212047000,6.178047119140625,-5.809295654296875,-2.9135284423828125,-0.1108856201171875
1715093565221995800,6.187995849609375,-7.308074951171875,-3.2726593017578125,0.1548614501953125
1715093565231975000,6.197974853515625,-9.32159423828125,-8.7003173828125,-0.149200439453125
1715093565241954300,6.207954345703125,-3.5395965576171875,-16.38092041015625,-1.935272216796875
1715093565251903000,6.217903076171875,4.006927490234375,-20.920318603515625,-1.54022216796875
1715093565261882000,6.227882080078125,3.0947418212890625,-20.44866943359375,-6.0963897705078125
1715093565271861500,6.237861572265625,-0.4654388427734375,-16.833419799804688,-5.600799560546875
1715093565281840600,6.247840576171875,3.4849853515625,-12.104873657226562,0.209930419921875
1715093565291820000,6.257820068359375,0.394073486328125,-8.492019653320312,-0.984771728515625
1715093565301768700,6.267768798828125,1.56005859375,-5.798553466796875,1.222686767578125
1715093565311747800,6.277747802734375,5.8935546875,-4.6253814697265625,2.0462799072265625
1715093565321727200,6.287727294921875,7.313323974609375,-4.0579681396484375,0.6408843994140625
1715093565331706400,6.297706298828125,4.3756256103515625,-4.699615478515625,-0.994354248046875
1715093565341655000,6.307655029296875,1.4427337646484375,-5.7171478271484375,-2.124420166015625
1715093565351634400,6.317634521484375,0.741241455078125,-7.1129608154296875,-3.0318145751953125
1715093565361613600,6.327613525390625,1.2727508544921875,-9.33477783203125,-4.360595703125
1715093565371562500,6.3375625,1.275146484375,-11.45843505859375,-5.3206787109375
1715093565381541600,6.347541748046875,0.446746826171875,-13.608428955078125,-4.6742401123046875
1715093565391520800,6.357520751953125,-0.4486846923828125,-14.918060302734375,-2.5290374755859375
1715093565401469700,6.3674697265625,-0.630645751953125,-15.2508544921875,-1.20025634765625
1715093565411448800,6.37744873046875,0.2288818359375,-15.083267211914062,0.3272552490234375
1715093565421428200,6.38742822265625,0.3126678466796875,-14.115997314453125,2.522735595703125
1715093565431377000,6.397376953125,0.183380126953125,-12.023468017578125,5.565765380859375
1715093565441356000,6.40735595703125,0.276763916015625,-10.098526000976562,6.3869781494140625
1715093565451335400,6.41733544921875,0.889678955078125,-8.25738525390625,5.5537872314453125
1715093565461284000,6.4272841796875,1.0716400146484375,-6.9214324951171875,2.4676666259765625
1715093565471263200,6.43726318359375,0.075653076171875,-6.265411376953125,-1.0709686279296875
1715093565481242600,6.44724267578125,-0.6450042724609375,-5.439422607421875,-2.2225799560546875
1715093565491191300,6.45719140625,-1.0615997314453125,-4.9150848388671875,-2.6726837158203125
1715093565501170400,6.46717041015625,-0.54205322265625,-5.2790069580078125,-3.065338134765625
1715093565511149800,6.47714990234375,-0.3481292724609375,-6.411468505859375,-2.7564849853515625
1715093565521098500,6.487098388671875,2.062835693359375,-7.364349365234375,-2.325531005859375
1715093565531077600,6.49707763671875,2.6063232421875,-8.1185302734375,-1.2505340576171875
1715093565541057000,6.50705712890625,1.19134521484375,-9.559844970703125,-0.6855010986328125
1715093565551005700,6.517005615234375,-0.6378326416015625,-10.529495239257812,-0.101318359375
1715093565560985000,6.526985107421875,-2.3568572998046875,-11.611663818359375,1.0000152587890625
1715093565570964200,6.536964111328125,-3.16131591796875,-11.470413208007812,2.503570556640625
1715093565580943400,6.546943359375,-2.9410552978515625,-10.333160400390625,3.5187225341796875
1715093565590922800,6.5569228515625,-2.660919189453125,-9.906997680664062,5.30718994140625
1715093565600871400,6.566871337890625,-1.741546630859375,-10.857498168945312,5.618438720703125
1715093565610850800,6.576850830078125,0.509002685546875,-11.199859619140625,5.7333526611328125
1715093565620830000,6.586829833984375,0.5257568359375,-10.914962768554688,5.101287841796875
1715093565630778600,6.596778564453125,-0.757537841796875,-10.428939819335938,4.553009033203125
1715093565640758000,6.606758056640625,-1.360870361328125,-10.151199340820312,4.002349853515625
1715093565650737200,6.616737060546875,-2.0025177001953125,-10.268524169921875,3.6312408447265625
1715093565660685800,6.626685791015625,-1.5045318603515625,-10.416961669921875,3.58575439453125
1715093565670665200,6.636665283203125,-0.2667236328125,-10.141632080078125,4.6224517822265625
1715093565680644400,6.646644287109375,0.4587249755859375,-9.239013671875,7.088470458984375
1715093565690593000,6.656593017578125,0.4515380859375,-8.990020751953125,9.911239624023438
1715093565700572400,6.666572509765625,-1.8061981201171875,-9.459274291992188,10.059677124023438
1715093565710551600,6.676551513671875,-3.8029632568359375,-10.9293212890625,8.345428466796875
1715093565720500500,6.68650048828125,-2.162933349609375,-12.959609985351562,5.956024169921875
1715093565730479600,6.696479736328125,1.0979766845703125,-13.019454956054688,5.8746185302734375
1715093565740458800,6.706458740234375,1.301483154296875,-11.733779907226562,4.2896575927734375
1715093565750407700,6.71640771484375,-0.6881103515625,-10.503158569335938,1.2418365478515625
1715093565760386800,6.72638671875,-1.561981201171875,-9.5550537109375,0.0160064697265625
1715093565770366200,6.7363662109375,-1.255523681640625,-9.478439331054688,0.485260009765625
1715093565780315000,6.74631494140625,0.93756103515625,-11.11846923828125,1.9648895263671875
1715093565790294000,6.7562939453125,1.703704833984375,-14.175857543945312,0.49005126953125
1715093565800273400,6.7662734375,1.440338134765625,-17.707305908203125,-1.913726806640625
1715093565810222000,6.77622216796875,-0.029693603515625,-22.016876220703125,-3.8218994140625
1715093565820201200,6.786201171875,-1.782257080078125,-24.197982788085938,-5.6941680908203125
1715093565830180600,6.7961806640625,-1.8014068603515625,-23.589859008789062,-5.981475830078125
1715093565840159700,6.80615966796875,-1.15496826171875,-22.756683349609375,-6.7978973388671875
1715093565850139100,6.81613916015625,-0.800628662109375,-21.708023071289062,-7.1402740478515625
1715093565860087800,6.826087890625,0.36773681640625,-20.515701293945312,-6.213714599609375
1715093565870067000,6.83606689453125,2.7523651123046875,-17.982635498046875,-2.1124420166015625
1715093565880046300,6.84604638671875,2.8744659423828125,-15.327468872070312,2.9058074951171875
1715093565890025500,6.856025390625,-0.87005615234375,-13.361831665039062,6.770050048828125
1715093565899974100,6.86597412109375,-1.9713897705078125,-11.671524047851562,10.974258422851562
1715093565909953500,6.87595361328125,-2.912322998046875,-11.29803466796875,6.89215087890625
1715093565919932700,6.8859326171875,-2.6776885986328125,-11.104095458984375,1.05987548828125
1715093565929881300,6.89588134765625,-0.5588226318359375,-9.811233520507812,-0.33355712890625
1715093565939860700,6.90586083984375,0.3653411865234375,-7.7881317138671875,-0.000762939453125
1715093565949840000,6.91583984375,-0.00335693359375,-6.3563995361328125,-0.9991455078125
1715093565959788800,6.925788818359375,0.1426849365234375,-5.0563507080078125,-2.0693511962890625
1715093565969768000,6.935767822265625,1.2416229248046875,-3.5264434814453125,-2.3063812255859375
1715093565979747000,6.9457470703125,1.95269775390625,-2.4849700927734375,-2.368621826171875
1715093565989696000,6.955696044921875,2.0771942138671875,-1.910369873046875,-2.43804931640625
1715093565999675100,6.965675048828125,2.37408447265625,-1.2208251953125,-2.610443115234375
1715093566009654500,6.975654541015625,3.1689605712890625,-0.7156524658203125,-2.8618316650390625
1715093566019603200,6.985603271484375,3.4969635009765625,-0.4235687255859375,-3.32391357421875
1715093566029582300,6.995582275390625,3.801025390625,-0.31103515625,-4.058929443359375
1715093566039561700,7.005561767578125,3.9159393310546875,0.5939788818359375,-4.7005767822265625
1715093566049510400,7.015510498046875,3.1857147216796875,1.53729248046875,-5.380523681640625
1715093566059489500,7.025489501953125,2.041290283203125,2.284271240234375,-5.653472900390625
1715093566069469000,7.035468994140625,0.9255828857421875,1.7360076904296875,-5.7468414306640625
1715093566079417600,7.04541748046875,-1.03765869140625,-0.1913299560546875,-4.65509033203125
1715093566089396700,7.055396728515625,-4.6648712158203125,-2.4155426025390625,-2.0741424560546875
1715093566099376000,7.065376220703125,-9.400604248046875,-5.3388671875,0.9449462890625
1715093566109324800,7.07532470703125,-11.830718994140625,-8.9852294921875,4.933685302734375
1715093566119304200,7.08530419921875,-10.1044921875,-12.305984497070312,9.853775024414062
1715093566129283300,7.095283447265625,-13.078094482421875,-15.660263061523438,13.9287109375
1715093566139262500,7.105262451171875,-12.529830932617188,-21.279449462890625,11.659011840820312
1715093566149241900,7.115241943359375,-12.814743041992188,-27.248199462890625,9.16424560546875
1715093566159190500,7.1251904296875,-6.3432159423828125,-24.717529296875,8.776382446289062
1715093566169170000,7.135169921875,-3.8556365966796875,-16.596389770507812,6.659912109375
1715093566179149000,7.145149169921875,-6.769378662109375,-9.33477783203125,3.3391571044921875
1715093566189097700,7.15509765625,-6.9656982421875,-4.28302001953125,-1.0925140380859375
1715093566199077000,7.1650771484375,-7.36553955078125,-2.7076263427734375,-2.4141082763671875
1715093566209056300,7.17505615234375,-9.381454467773438,-6.909454345703125,-1.6431732177734375
1715093566219005000,7.1850048828125,-4.9593658447265625,-12.712997436523438,-2.019073486328125
1715093566228984300,7.194984375,0.8346099853515625,-15.1024169921875,-2.071746826171875
1715093566238963500,7.20496337890625,1.3924560546875,-16.67779541015625,-3.8123321533203125
1715093566248912100,7.214912109375,-1.4590301513671875,-16.840606689453125,-6.5824127197265625
1715093566258891500,7.2248916015625,2.793060302734375,-15.478302001953125,-1.966400146484375
1715093566268870700,7.23487060546875,5.1681060791015625,-13.04339599609375,-1.7485198974609375
1715093566278819300,7.2448193359375,4.6270294189453125,-10.586944580078125,-1.808380126953125
1715093566288798700,7.254798828125,5.0579833984375,-8.585403442382812,-0.13482666015625
1715093566298777900,7.26477783203125,5.117828369140625,-7.1177520751953125,-0.2569427490234375
1715093566308726800,7.274726806640625,4.935882568359375,-6.40667724609375,-0.6447906494140625
1715093566318706000,7.284705810546875,2.728424072265625,-6.729888916015625,-0.498748779296875
1715093566328685000,7.29468505859375,1.93115234375,-8.211898803710938,-1.5091094970703125
1715093566338634000,7.304634033203125,2.067626953125,-9.854324340820312,-2.8618316650390625
1715093566348613000,7.314613037109375,1.8186187744140625,-10.577377319335938,-3.1850433349609375
1715093566358592500,7.324592529296875,0.4180145263671875,-10.912567138671875,-3.086883544921875
1715093566368541200,7.334541259765625,-0.8365478515625,-11.867843627929688,-2.5098876953125
1715093566378520300,7.344520263671875,-0.7335968017578125,-12.741729736328125,-1.1284332275390625
1715093566388499700,7.354499755859375,-0.209259033203125,-12.82073974609375,0.4493560791015625
1715093566398478800,7.364478759765625,0.4180145263671875,-12.157546997070312,2.810028076171875
1715093566408427500,7.374427490234375,0.2001495361328125,-10.934112548828125,3.7413787841796875
1715093566418407000,7.384406982421875,0.5018157958984375,-9.602935791015625,5.091705322265625
1715093566428386000,7.394385986328125,0.753204345703125,-8.20233154296875,4.878631591796875
1715093566438365400,7.404365478515625,0.087615966796875,-7.5032196044921875,3.473236083984375
1715093566448344600,7.414344482421875,-0.757537841796875,-7.1800079345703125,1.043121337890625
1715093566458293200,7.424293212890625,-0.6928863525390625,-6.5263824462890625,-0.8698577880859375
1715093566468272600,7.434272705078125,-0.0680084228515625,-6.1289520263671875,-1.5737457275390625
1715093566478251800,7.444251708984375,0.9567108154296875,-6.3085174560546875,-1.46600341796875
1715093566488200400,7.454200439453125,2.12030029296875,-6.7227020263671875,-1.75091552734375
1715093566498179800,7.464179931640625,1.76116943359375,-6.6484832763671875,-0.3167877197265625
1715093566508159000,7.474158935546875,1.41400146484375,-7.5151824951171875,-0.086944580078125
1715093566518108000,7.48410791015625,0.7603912353515625,-8.547088623046875,0.05670166015625
1715093566528087000,7.494087158203125,-0.7383880615234375,-9.825592041015625,1.0670623779296875
1715093566538066200,7.504066162109375,-3.314544677734375,-10.179931640625,2.39105224609375
1715093566548015000,7.51401513671875,-4.509246826171875,-10.258941650390625,3.712646484375
1715093566557994200,7.523994140625,-4.25067138671875,-10.472030639648438,4.816375732421875
1715093566567973600,7.5339736328125,-2.9530181884765625,-11.195083618164062,6.03741455078125
1715093566577922300,7.54392236328125,-0.88922119140625,-12.373031616210938,6.1188201904296875
1715093566587901400,7.5539013671875,0.688568115234375,-12.368240356445312,5.17071533203125
1715093566597880800,7.563880859375,0.9184112548828125,-11.702651977539062,3.9903717041015625
1715093566607829500,7.57382958984375,-0.4702301025390625,-11.084945678710938,3.43731689453125
1715093566617808600,7.58380859375,-1.2076416015625,-10.709060668945312,2.97283935546875
1715093566627788000,7.5937880859375,-0.731201171875,-10.428939819335938,3.0757904052734375
1715093566637736700,7.60373681640625,0.044525146484375,-9.995574951171875,3.875457763671875
1715093566647715800,7.6137158203125,0.3701324462890625,-9.954879760742188,6.21697998046875
1715093566657695200,7.6236953125,0.6861724853515625,-10.69708251953125,8.4986572265625
1715093566667644000,7.633643798828125,-0.0943450927734375,-10.891006469726562,9.3653564453125
1715093566677623000,7.643623046875,-2.299407958984375,-11.503936767578125,7.488311767578125
1715093566687602400,7.6536025390625,-3.144561767578125,-12.753707885742188,3.55462646484375
1715093566697581600,7.66358154296875,-2.885986328125,-13.543792724609375,2.9225616455078125
1715093566707561000,7.67356103515625,-1.2770843505859375,-13.627578735351562,5.27606201171875
1715093566717509600,7.683509521484375,-0.5229034423828125,-12.595687866210938,4.995941162109375
1715093566727488800,7.69348876953125,-1.042449951171875,-10.6875,3.7581329345703125
1715093566737468200,7.70346826171875,-1.8109893798828125,-9.377883911132812,2.946502685546875
1715093566747416800,7.713416748046875,-1.3441162109375,-8.846359252929688,3.296051025390625
1715093566757396200,7.723396240234375,-0.1110992431640625,-9.219863891601562,3.367889404296875
1715093566767375400,7.733375244140625,1.44512939453125,-10.498367309570312,0.451751708984375
1715093566777354500,7.7433544921875,2.7212371826171875,-13.167892456054688,-2.78521728515625
1715093566787303400,7.753303466796875,1.979034423828125,-17.319442749023438,-4.0445709228515625
1715093566797282600,7.763282470703125,1.768341064453125,-21.257904052734375,-4.33905029296875
1715093566807262000,7.773261962890625,1.138671875,-22.979339599609375,-4.6526947021484375
1715093566817210600,7.783210693359375,-0.4151611328125,-24.52838134765625,-6.120330810546875
1715093566827189800,7.793189697265625,-0.9658355712890625,-25.35198974609375,-7.8154296875
1715093566837169200,7.803169189453125,-1.825347900390625,-22.905120849609375,-7.03253173828125
1715093566847117800,7.813117919921875,-1.0568084716796875,-18.246002197265625,-4.2145538330078125
1715093566857097000,7.823096923828125,1.5169525146484375,-14.9970703125,-1.913726806640625
1715093566867076400,7.833076416015625,1.0883941650390625,-12.815948486328125,1.5171661376953125
1715093566877025000,7.84302490234375,-1.075958251953125,-10.646804809570312,7.7133636474609375
1715093566887004200,7.853004150390625,-1.518890380859375,-8.860733032226562,10.5169677734375
1715093566896983600,7.862983642578125,-1.5955047607421875,-9.064239501953125,4.742156982421875
1715093566906932200,7.87293212890625,-2.02166748046875,-8.75299072265625,-0.15399169921875
1715093566916911600,7.88291162109375,-0.5755767822265625,-7.5606842041015625,-0.3479156494140625
1715093566926890800,7.892890869140625,-0.8078155517578125,-5.8967132568359375,0.02557373046875
1715093566936839400,7.90283935546875,-0.4271392822265625,-4.4242706298828125,-1.4157257080078125
1715093566946818800,7.91281884765625,1.2320404052734375,-2.9302978515625,-1.06378173828125
1715093566956798000,7.9227978515625,2.5847625732421875,-2.09710693359375,-1.396575927734375
1715093566966746600,7.93274658203125,2.8361663818359375,-1.5225067138671875,-2.5098876953125
1715093566976726000,7.94272607421875,2.7978515625,-1.11309814453125,-2.430877685546875
1715093566986705200,7.952705078125,2.7882843017578125,-1.3166046142578125,-2.986328125
1715093566996684500,7.9626845703125,2.9271392822265625,-1.7284088134765625,-2.89056396484375
1715093567006633200,7.97263330078125,3.2000732421875,-1.884033203125,-2.4093170166015625
1715093567016612400,7.9826123046875,3.585540771484375,-1.91754150390625,-2.885772705078125
1715093567026591700,7.992591796875,3.5496368408203125,-1.8289642333984375,-3.86260986328125
1715093567036571000,8.00257080078125,2.10113525390625,-0.8377532958984375,-3.9344329833984375
1715093567046519600,8.01251953125,1.059661865234375,-0.61749267578125,-4.3941192626953125
1715093567056499000,8.0224990234375,-0.6330413818359375,-1.4339141845703125,-3.9511871337890625
1715093567066478000,8.03247802734375,-3.1852569580078125,-3.02606201171875,-3.134765625
1715093567076426800,8.0424267578125,-6.240264892578125,-5.14971923828125,-0.8291473388671875
1715093567086406100,8.05240625,-10.245758056640625,-8.43695068359375,1.9193878173828125
1715093567096385300,8.06238525390625,-12.618408203125,-11.767288208007812,5.7548980712890625
1715093567106334200,8.072334228515626,-14.5936279296875,-14.3961181640625,11.4578857421875
1715093567116313300,8.082313232421875,-12.024642944335938,-16.905242919921875,14.982162475585938
1715093567126292500,8.09229248046875,-11.114852905273438,-18.451904296875,11.414794921875
1715093567136241400,8.102241455078126,-9.580169677734375,-19.69927978515625,7.2129669189453125
1715093567146220500,8.112220458984375,-6.273773193359375,-18.353744506835938,4.3710479736328125
1715093567156200000,8.122199951171876,-6.3120880126953125,-14.266845703125,1.541107177734375
1715093567166148600,8.132148681640626,-7.4636993408203125,-8.049102783203125,0.26739501953125
1715093567176127700,8.142127685546875,-7.4445343017578125,-2.4322967529296875,-1.0973052978515625
1715093567186107100,8.152107177734376,-5.8691558837890625,0.3473663330078125,-1.91851806640625
1715093567196055800,8.162055908203126,-4.549957275390625,-1.383636474609375,-0.424530029296875
1715093567206035000,8.172034912109375,-3.91070556640625,-5.547149658203125,-0.6519775390625
1715093567216014300,8.182014404296876,-3.27862548828125,-11.20465087890625,-2.205810546875
1715093567225963000,8.191962890625,-1.4039764404296875,-18.107131958007812,-2.3662261962890625
1715093567235942100,8.201942138671875,1.1075439453125,-23.738296508789062,-1.4253082275390625
1715093567245921500,8.211921630859376,-1.57635498046875,-25.914627075195312,-2.801971435546875
1715093567255870200,8.2218701171875,6.1233978271484375,-25.162857055664062,2.4054107666015625
1715093567265849600,8.231849609375,4.46661376953125,-18.51654052734375,3.2553558349609375
1715093567275828700,8.241828857421876,-1.95703125,-9.96685791015625,2.027130126953125
1715093567285807900,8.251807861328125,1.3589324951171875,-6.19598388671875,0.411041259765625
1715093567295787300,8.261787353515626,4.4594268798828125,-4.17767333984375,-0.541839599609375
1715093567305736000,8.27173583984375,6.1976165771484375,-2.640594482421875,-0.40777587890625
1715093567315715300,8.28171533203125,4.7874298095703125,-3.0763397216796875,-1.4013671875
1715093567325694500,8.291694580078126,2.793060302734375,-3.394775390625,-1.913726806640625
1715093567335673600,8.301673583984375,2.0604400634765625,-4.82171630859375,-3.47235107421875
1715093567345622500,8.31162255859375,0.626312255859375,-6.0307769775390625,-3.9248504638671875
1715093567355601700,8.3216015625,0.245635986328125,-7.330841064453125,-4.1187896728515625
1715093567365581000,8.3315810546875,-0.355316162109375,-10.235000610351562,-3.5609283447265625
1715093567375529700,8.34152978515625,-2.1988525390625,-13.4552001953125,-2.517059326171875
1715093567385508900,8.3515087890625,-0.9394989013671875,-14.91326904296875,-1.2194061279296875
1715093567395488300,8.36148828125,0.561676025390625,-14.740890502929688,0.4924468994140625
1715093567405437000,8.37143701171875,1.98382568359375,-13.984329223632812,3.39422607421875
1715093567415416000,8.381416015625,2.041290283203125,-11.769683837890625,6.238525390625
1715093567425395500,8.3913955078125,0.36773681640625,-9.399429321289062,5.9392547607421875
1715093567435344100,8.40134423828125,-0.2739105224609375,-7.543914794921875,2.015167236328125
1715093567445323300,8.4113232421875,-1.18609619140625,-6.51202392578125,-1.6551513671875
1715093567455302700,8.421302734375,-0.652191162109375,-5.674041748046875,-1.375030517578125
1715093567465251300,8.431251220703125,1.0309295654296875,-5.3891448974609375,-1.05419921875
1715093567475230500,8.44123046875,2.35491943359375,-6.0499420166015625,-1.4324951171875
1715093567485209900,8.4512099609375,3.07318115234375,-6.7538299560546875,-0.4053802490234375
1715093567495158500,8.461158447265625,3.130645751953125,-7.2230987548828125,1.402252197265625
1715093567505138000,8.471137939453126,2.1705780029296875,-8.39385986328125,1.96966552734375
1715093567515117000,8.481116943359375,0.2264862060546875,-9.602935791015625,2.0079803466796875
1715093567525065700,8.491065673828125,-1.4781951904296875,-10.74017333984375,2.3719024658203125
1715093567535045000,8.501045166015626,-1.8373260498046875,-11.11846923828125,2.0199432373046875
1715093567545024300,8.511024169921875,-2.352081298828125,-11.147186279296875,2.04150390625
1715093567555003600,8.521003662109376,-3.6449432373046875,-11.302810668945312,3.1452178955078125
1715093567564952300,8.530952392578126,-4.9857025146484375,-11.728988647460938,4.5673828125
1715093567574931500,8.540931396484375,-4.1573028564453125,-11.930099487304688,5.6471710205078125
1715093567584910800,8.550910888671876,-1.1837005615234375,-11.9444580078125,6.9759521484375
1715093567594890000,8.560889892578125,-0.012939453125,-11.432098388671875,6.8514556884765625
1715093567604869400,8.570869384765626,-1.14300537109375,-11.286056518554688,4.7756805419921875
1715093567614818000,8.580818115234376,-0.9251251220703125,-11.17352294921875,2.8172149658203125
1715093567624797200,8.590797119140625,0.3581695556640625,-10.642013549804688,2.50836181640625
1715093567634745900,8.600745849609375,0.805877685546875,-9.61968994140625,4.287261962890625
1715093567644725200,8.610725341796876,0.07086181640625,-8.925369262695312,6.442047119140625
1715093567654704400,8.620704345703125,-0.4271392822265625,-9.236618041992188,9.16424560546875
1715093567664653300,8.6306533203125,-1.1238555908203125,-9.83038330078125,9.83941650390625
1715093567674632400,8.640632568359376,-1.90435791015625,-10.958053588867188,7.9264373779296875
1715093567684611600,8.650611572265625,-0.642608642578125,-12.792007446289062,3.6240692138671875
1715093567694560500,8.660560546875,-0.21405029296875,-14.008270263671875,2.920166015625
1715093567704539600,8.67053955078125,-0.2116546630859375,-13.67547607421875,3.9568634033203125
1715093567714519000,8.68051904296875,-1.5548095703125,-12.13360595703125,3.8515167236328125
1715093567724467700,8.6904677734375,-1.454254150390625,-10.541458129882812,3.537872314453125
1715093567734446800,8.70044677734375,-2.2299652099609375,-9.59814453125,3.0590362548828125
1715093567744426200,8.71042626953125,-2.3305206298828125,-9.794464111328125,3.940093994140625
1715093567754375000,8.720375,-0.7814788818359375,-11.951644897460938,5.1180419921875
1715093567764354000,8.73035400390625,0.4587249755859375,-15.15509033203125,1.2011260986328125
1715093567774333400,8.74033349609375,1.497802734375,-17.920394897460938,-5.4715118408203125
1715093567784282000,8.7502822265625,0.4970245361328125,-20.211639404296875,-6.0580902099609375
1715093567794261200,8.76026123046875,0.161834716796875,-21.461410522460938,-5.928802490234375
1715093567804240600,8.77024072265625,-1.1046905517578125,-20.429519653320312,-5.2392730712890625
1715093567814189300,8.780189208984375,-2.10546875,-19.69927978515625,-5.095611572265625
1715093567824168700,8.790168701171876,-1.9115447998046875,-19.505355834960938,-5.739654541015625
1715093567834147800,8.80014794921875,-1.06878662109375,-18.971450805664062,-6.3549652099609375
1715093567844127000,8.810126953125,0.9184112548828125,-17.230865478515625,-4.789154052734375
1715093567854106400,8.8201064453125,2.4770355224609375,-14.822296142578125,-2.763671875
1715093567864055000,8.830054931640625,3.4706268310546875,-12.911712646484375,0.1596527099609375
1715093567874034200,8.8400341796875,1.5648345947265625,-11.283660888671875,5.38140869140625
1715093567884013600,8.850013671875,-3.0583648681640625,-9.358718872070312,7.382965087890625
1715093567893992700,8.85999267578125,-2.6681060791015625,-9.413787841796875,4.045440673828125
1715093567903941600,8.869941650390626,-1.5476226806640625,-9.191131591796875,0.9138336181640625
1715093567913920800,8.879920654296875,-1.6050872802734375,-7.871917724609375,0.8946685791015625
1715093567923900000,8.88989990234375,-1.50213623046875,-6.581451416015625,0.8946685791015625
1715093567933848800,8.899848876953126,-0.7766876220703125,-5.2382965087890625,0.305694580078125
1715093567943828000,8.909827880859375,0.51617431640625,-4.18963623046875,-0.9344940185546875
1715093567953807400,8.919807373046876,1.3421783447265625,-3.03802490234375,-1.9400634765625
1715093567963756000,8.929756103515626,2.3501434326171875,-1.553619384765625,-2.052581787109375
1715093567973735200,8.939735107421875,2.6829376220703125,-0.53369140625,-2.4236907958984375
1715093567983714600,8.949714599609376,2.6158905029296875,-0.928741455078125,-2.330322265625
1715093567993663200,8.959663330078126,2.465057373046875,-1.62066650390625,-2.019073486328125
1715093568003642400,8.969642333984375,2.7260284423828125,-1.996551513671875,-2.205810546875
1715093568013621800,8.979621826171876,3.10430908203125,-1.7930450439453125,-2.8354949951171875
1715093568023570400,8.9895703125,3.14501953125,-1.4123687744140625,-3.5250244140625
1715093568033549600,8.999549560546875,2.2495880126953125,-1.0269012451171875,-3.83148193359375
1715093568043529000,9.009529052734376,1.1937408447265625,-0.4163818359375,-3.345458984375
1715093568053477600,9.0194775390625,0.4228057861328125,-0.026123046875,-3.3023681640625
1715093568063457000,9.02945703125,-1.31298828125,-0.727630615234375,-3.266448974609375
1715093568073436200,9.039436279296876,-4.138153076171875,-2.06597900390625,-2.7349395751953125
1715093568083384800,9.049384765625,-8.304061889648438,-4.3237152099609375,-1.3103790283203125
1715093568093364200,9.0593642578125,-10.51629638671875,-7.6205291748046875,0.8731231689453125
1715093568103343400,9.06934326171875,-12.362228393554688,-11.338729858398438,5.2042388916015625
1715093568113292000,9.0792919921875,-15.244857788085938,-16.026580810546875,11.364517211914062
1715093568123271400,9.089271484375,-14.9647216796875,-22.194046020507812,12.255157470703125
1715093568133250600,9.09925048828125,-12.6495361328125,-28.284896850585938,11.417190551757812
1715093568143230000,9.10922998046875,-5.2993316650390625,-27.334396362304688,9.578445434570312
1715093568153209000,9.119208984375,-3.0535736083984375,-19.100738525390625,4.926513671875
1715093568163157800,9.12915771484375,-7.1524505615234375,-10.462448120117188,1.8930511474609375
1715093568173137200,9.13913720703125,-8.071823120117188,-3.2271728515625,0.219512939453125
1715093568183116300,9.1491162109375,-6.64727783203125,0.2946929931640625,-1.8490753173828125
1715093568193095700,9.159095703125,-7.645660400390625,-1.1154937744140625,-0.620849609375
1715093568203044400,9.16904443359375,-7.7462158203125,-6.0762786865234375,-0.0055389404296875
1715093568213023500,9.1790234375,-1.497344970703125,-10.452880859375,-1.5522003173828125
1715093568223003000,9.1890029296875,1.2320404052734375,-13.917282104492188,-1.892181396484375
1715093568232951600,9.19895166015625,-0.525299072265625,-18.360916137695312,-3.5872650146484375
1715093568242930700,9.2089306640625,-2.51727294921875,-19.512527465820312,-4.02301025390625
1715093568252910000,9.21891015625,4.8496856689453125,-18.169387817382812,0.990447998046875
1715093568262858800,9.228858642578125,4.1840972900390625,-14.75286865234375,0.1764068603515625
1715093568272838000,9.238837890625,2.4051971435546875,-11.125640869140625,-0.3359527587890625
1715093568282817300,9.2488173828125,3.34613037109375,-8.42498779296875,0.2913360595703125
1715093568292766000,9.258765869140625,4.1290283203125,-6.7538299560546875,-0.0941314697265625
1715093568302745300,9.268745361328126,4.598297119140625,-5.494476318359375,-0.101318359375
1715093568312724500,9.278724365234375,3.2072601318359375,-5.9517822265625,-0.9249267578125
1715093568322673200,9.288673095703125,1.9862213134765625,-7.2278900146484375,-2.0262451171875
1715093568332652500,9.298652587890626,1.5408935546875,-8.891860961914062,-3.7189483642578125
1715093568342631700,9.308631591796875,1.1841583251953125,-9.67236328125,-3.69500732421875
1715093568352580400,9.318580322265625,0.013397216796875,-10.165573120117188,-2.9552001953125
1715093568362559700,9.328559814453126,-0.546844482421875,-11.312393188476562,-2.2345428466796875
1715093568372539000,9.338538818359375,-0.6761322021484375,-12.406539916992188,-0.774078369140625
1715093568382487600,9.348487548828125,-0.4774169921875,-12.416122436523438,1.1843719482421875
1715093568392467000,9.358467041015626,0.15704345703125,-11.939666748046875,2.089385986328125
1715093568402446000,9.368446044921875,0.6717987060546875,-11.434494018554688,2.915374755859375
1715093568412425500,9.378425537109376,1.1841583251953125,-10.235000610351562,4.4739990234375
1715093568422374100,9.3883740234375,0.8178558349609375,-8.70989990234375,4.96002197265625
1715093568432353300,9.398353271484375,0.149871826171875,-8.085006713867188,4.0214996337890625
1715093568442332700,9.408332763671876,0.27197265625,-7.5032196044921875,2.0845947265625
1715093568452311800,9.418311767578125,0.161834716796875,-6.8950958251953125,0.315277099609375
1715093568462260700,9.4282607421875,-0.398406982421875,-6.3252716064453125,-0.0366668701171875
1715093568472239900,9.438239990234376,0.4060516357421875,-6.1672515869140625,0.4230194091796875
1715093568482219000,9.448218994140625,1.5792083740234375,-6.3420257568359375,0.736663818359375
1715093568492168000,9.45816796875,2.34295654296875,-7.282958984375,0.928192138671875
1715093568502147000,9.46814697265625,2.6350555419921875,-8.513565063476562,0.59539794921875
1715093568512126500,9.47812646484375,2.867279052734375,-9.1336669921875,0.5020294189453125
1715093568522075100,9.4880751953125,1.4475250244140625,-9.763351440429688,1.1101531982421875
1715093568532054300,9.49805419921875,-0.949066162109375,-10.515121459960938,1.5004119873046875
1715093568542033700,9.50803369140625,-3.1230010986328125,-10.584548950195312,1.71588134765625
1715093568551982300,9.517982421875,-4.3201141357421875,-10.558212280273438,2.127685546875
1715093568561961500,9.52796142578125,-4.60980224609375,-10.290069580078125,3.28887939453125
1715093568571940900,9.53794091796875,-4.202789306640625,-10.179931640625,4.023895263671875
1715093568581889500,9.5478896484375,-2.241943359375,-10.972412109375,4.4955596923828125
1715093568591868700,9.55786865234375,-0.17095947265625,-11.55181884765625,5.80279541015625
1715093568601848000,9.56784814453125,0.9471282958984375,-11.628433227539062,5.936859130859375
1715093568611796700,9.577796630859375,1.3517608642578125,-11.142410278320312,6.0924835205078125
1715093568621776000,9.58777587890625,-0.2164459228515625,-10.77130126953125,6.4085235595703125
1715093568631755300,9.59775537109375,-0.97540283203125,-10.457656860351562,5.7812347412109375
1715093568641704000,9.607703857421875,-1.8325347900390625,-10.361892700195312,5.2473297119140625
1715093568651683300,9.617683349609376,-1.9594268798828125,-10.268524169921875,4.282470703125
1715093568661662500,9.627662353515625,-1.3201751708984375,-10.20147705078125,4.3854217529296875
1715093568671611100,9.637611083984375,-0.03448486328125,-9.9261474609375,5.8794097900390625
1715093568681590500,9.647590576171876,-1.4039764404296875,-10.323593139648438,6.2145843505859375
1715093568691569700,9.657569580078125,-3.2283477783203125,-11.736160278320312,3.590545654296875
1715093568701549000,9.667549072265626,-2.8572540283203125,-13.826309204101562,1.68475341796875
1715093568711528200,9.677528076171875,-1.073577880859375,-14.956375122070312,3.2194366455078125
1715093568721476900,9.687476806640625,-1.028076171875,-13.943618774414062,4.689483642578125
1715093568731456300,9.697456298828126,-1.2794647216796875,-11.860671997070312,3.8586883544921875
1715093568741435400,9.707435302734375,-0.8772430419921875,-9.969253540039062,3.07818603515625
1715093568751384000,9.717384033203125,-0.4271392822265625,-8.578216552734375,2.587371826171875
1715093568761363500,9.727363525390626,-0.3337554931640625,-7.7139129638671875,2.829193115234375
1715093568771342600,9.737342529296875,0.0684661865234375,-8.123321533203125,4.7086334228515625
1715093568781322000,9.747322021484376,1.6534271240234375,-10.428939819335938,6.8107452392578125
1715093568791270700,9.757270751953126,2.2783050537109375,-14.092056274414062,2.7262420654296875
1715093568801249800,9.767249755859375,3.3126068115234375,-17.3314208984375,-2.157928466796875
1715093568811229200,9.777229248046876,2.5201263427734375,-19.569992065429688,-3.0749053955078125
1715093568821177900,9.787177734375,2.2304229736328125,-20.472610473632812,-3.23052978515625
1715093568831157000,9.797156982421875,1.8282012939453125,-21.86602783203125,-4.4156646728515625
1715093568841136400,9.807136474609376,0.415618896484375,-23.400711059570312,-6.0963897705078125
1715093568851085000,9.8170849609375,-1.181304931640625,-23.151718139648438,-6.5656585693359375
1715093568861064400,9.827064453125,-1.3560791015625,-19.684921264648438,-4.2504730224609375
1715093568871043600,9.837043701171876,1.006988525390625,-16.148681640625,-0.2569427490234375
1715093568880992300,9.8469921875,1.165008544921875,-13.902923583984375,1.7589874267578125
1715093568890971600,9.8569716796875,1.12908935546875,-12.61962890625,6.5928802490234375
1715093568900950800,9.86695068359375,-1.6697235107421875,-10.354705810546875,8.850601196289062
1715093568910899500,9.8768994140625,-0.091949462890625,-9.17437744140625,6.659912109375
1715093568920878800,9.88687890625,0.8777008056640625,-8.87030029296875,2.78131103515625
1715093568930858000,9.89685791015625,-0.69049072265625,-8.56146240234375,-1.34869384765625
1715093568940806700,9.906806640625,-1.2818603515625,-7.3092803955078125,-1.576141357421875
1715093568950786000,9.9167861328125,-0.384033203125,-6.1145782470703125,-1.2960205078125
1715093568960765200,9.92676513671875,0.9830474853515625,-4.31414794921875,-1.16912841796875
1715093568970714000,9.936714111328126,1.682159423828125,-3.0021209716796875,-1.870635986328125
1715093568980693200,9.946693359375,1.9646759033203125,-2.19287109375,-2.179473876953125
1715093568990672400,9.95667236328125,2.074798583984375,-2.04443359375,-2.495513916015625
1715093569000651800,9.96665185546875,1.926361083984375,-2.59271240234375,-3.204193115234375
1715093569010631000,9.976630859375,2.8577117919921875,-1.891204833984375,-2.6870574951171875
1715093569020579600,9.98657958984375,3.79144287109375,-1.73797607421875,-3.4268646240234375
1715093569030559000,9.99655908203125,3.7100372314453125,-1.91754150390625,-4.66705322265625
1715093569040538000,10.0065380859375,3.2623291015625,-1.97021484375,-5.959930419921875
1715093569050487000,10.016487060546876,2.053253173828125,-1.625457763671875,-5.845001220703125
1715093569060466200,10.026466064453125,1.3421783447265625,-0.6988983154296875,-5.442779541015625
1715093569070445300,10.0364453125,0.403656005859375,-1.0316925048828125,-5.5720672607421875
1715093569080394200,10.046394287109376,-1.794219970703125,-1.9726104736328125,-5.6941680908203125
1715093569090373400,10.056373291015625,-3.8771820068359375,-3.2199859619140625,-4.4156646728515625
1715093569100352800,10.066352783203126,-6.2594146728515625,-5.2119598388671875,-1.4683990478515625
1715093569110301400,10.076301513671876,-8.22265625,-7.6684112548828125,2.5778045654296875
1715093569120280600,10.086280517578125,-9.244979858398438,-10.62286376953125,6.6263885498046875
1715093569130260000,10.096260009765626,-12.5010986328125,-13.65631103515625,10.605560302734375
1715093569140208600,10.106208740234376,-13.384552001953125,-16.749618530273438,14.441070556640625
1715093569150187800,10.116187744140625,-12.074920654296875,-21.308181762695312,13.143417358398438
1715093569160167200,10.126167236328126,-10.248153686523438,-26.340805053710938,12.628662109375
1715093569170115800,10.13611572265625,-3.8939361572265625,-22.69921875,11.070037841796875
1715093569180095000,10.146094970703125,-3.70001220703125,-15.133544921875,7.0118560791015625
1715093569190074400,10.156074462890626,-6.5443267822265625,-9.219863891601562,3.652801513671875
1715093569200023000,10.16602294921875,-5.9385833740234375,-5.0635223388671875,3.4085845947265625
1715093569210002400,10.17600244140625,-6.855560302734375,-4.881561279296875,1.1795806884765625
1715093569219981600,10.185981689453126,-9.915359497070312,-8.38189697265625,0.2075347900390625
1715093569229930200,10.19593017578125,-5.8787384033203125,-13.25408935546875,-0.6543731689453125
1715093569239909600,10.20590966796875,4.229583740234375,-16.407257080078125,-0.3167877197265625
1715093569249888800,10.215888671875,5.960601806640625,-16.610763549804688,-2.71099853515625
1715093569259868200,10.2258681640625,-0.367279052734375,-15.667449951171875,-5.8785247802734375
1715093569269816800,10.23581689453125,2.443511962890625,-13.0098876953125,-2.3398895263671875
1715093569279796000,10.2457958984375,0.848968505859375,-9.753768920898438,-2.6152191162109375
1715093569289775400,10.255775390625,2.000579833984375,-6.95733642578125,-1.861053466796875
1715093569299754500,10.26575439453125,6.638153076171875,-5.377166748046875,-0.4365081787109375
1715093569309734000,10.27573388671875,8.282974243164062,-4.3500518798828125,-0.065399169921875
1715093569319682600,10.2856826171875,5.0938873291015625,-4.680450439453125,-0.45086669921875
1715093569329661700,10.29566162109375,1.41400146484375,-6.222320556640625,-1.1092681884765625
1715093569339641000,10.30564111328125,0.15704345703125,-9.1025390625,-3.3813629150390625
1715093569349589800,10.31558984375,-0.283477783203125,-10.840728759765625,-3.774017333984375
1715093569359569000,10.32556884765625,-0.9730072021484375,-11.707443237304688,-3.2377166748046875
1715093569369548300,10.33554833984375,-0.4917755126953125,-12.973968505859375,-2.1651153564453125
1715093569379497000,10.3454970703125,-1.0256805419921875,-13.996292114257812,-0.699859619140625
1715093569389476000,10.35547607421875,-1.7056427001953125,-13.778427124023438,0.241058349609375
1715093569399455500,10.36545556640625,-1.2052459716796875,-12.782440185546875,1.9193878173828125
1715093569409404200,10.375404052734375,-0.4438934326171875,-11.264511108398438,3.887420654296875
1715093569419383300,10.38538330078125,-0.101531982421875,-9.938125610351562,5.3909912109375
1715093569429362700,10.39536279296875,1.260772705078125,-8.559066772460938,5.77166748046875
1715093569439311400,10.405311279296875,1.9024200439453125,-7.754608154296875,4.44049072265625
1715093569449290800,10.415290771484376,0.8777008056640625,-6.95733642578125,2.395843505859375
1715093569459270000,10.425269775390625,-0.2595367431640625,-6.3348541259765625,0.5666656494140625
1715093569469218600,10.435218505859375,-0.8772430419921875,-5.8512115478515625,-0.307220458984375
1715093569479198000,10.445197998046876,0.118743896484375,-5.9350128173828125,-0.546630859375
1715093569489177000,10.455177001953125,1.1626129150390625,-6.5479278564453125,-0.4748077392578125
1715093569499125800,10.465125732421875,3.171356201171875,-7.4625091552734375,-1.06378173828125
1715093569509105200,10.475105224609376,3.3556976318359375,-8.515960693359375,-1.46600341796875
1715093569519084300,10.485084228515625,1.6773681640625,-9.095367431640625,-0.424530029296875
1715093569529033000,10.495032958984375,0.34619140625,-9.928543090820312,-0.6400146484375
1715093569539012400,10.505012451171876,-1.3249664306640625,-10.618072509765625,-0.2952423095703125
1715093569548991500,10.514991455078125,-2.0168914794921875,-11.022689819335938,0.358367919921875
1715093569558971000,10.524970947265626,-2.8213348388671875,-10.448089599609375,1.79010009765625
1715093569568950000,10.534949951171875,-3.4342498779296875,-9.868682861328125,2.982421875
1715093569578898700,10.544898681640625,-3.901123046875,-9.844741821289062,4.27288818359375
1715093569588878000,10.554878173828126,-1.380035400390625,-10.2421875,5.24493408203125
1715093569598857200,10.564857177734375,0.5544891357421875,-10.5390625,6.485137939453125
1715093569608836600,10.574836669921876,-0.503753662109375,-10.948471069335938,5.371826171875
1715093569618785300,10.584785400390626,-0.1158905029296875,-11.400985717773438,3.547454833984375
1715093569628764400,10.594764404296875,0.4754791259765625,-11.355484008789062,2.83636474609375
1715093569638743800,10.604743896484376,0.5257568359375,-11.092132568359375,3.9113616943359375
1715093569648692500,10.6146923828125,0.9974212646484375,-10.72821044921875,6.0278472900390625
1715093569658671900,10.624671875,0.6239166259765625,-10.1368408203125,8.390914916992188
1715093569668651000,10.634651123046876,0.6287078857421875,-9.490402221679688,9.868148803710938
1715093569678599700,10.644599609375,-1.0879364013671875,-8.855941772460938,9.008621215820312
1715093569688579000,10.6545791015625,-2.4550323486328125,-9.339569091796875,5.704620361328125
1715093569698558200,10.66455810546875,-1.995330810546875,-11.116073608398438,3.33197021484375
1715093569708507000,10.6745068359375,-0.6186676025390625,-12.593292236328125,4.51470947265625
1715093569718486300,10.684486328125,-0.2236328125,-13.42169189453125,6.9855194091796875
1715093569728465400,10.69446533203125,-0.060821533203125,-13.203811645507812,6.02545166015625
1715093569738414000,10.7044140625,-1.8636627197265625,-12.042617797851562,3.633636474609375
1715093569748393500,10.7143935546875,-2.328125,-11.365066528320312,2.2354278564453125
1715093569758372600,10.72437255859375,-2.4957275390625,-11.379425048828125,1.4644927978515625
1715093569768321500,10.734321533203126,-2.2395477294921875,-12.107269287109375,0.6145477294921875
1715093569778300700,10.74430078125,-0.42474365234375,-13.2445068359375,-2.7469024658203125
1715093569788249300,10.754249267578125,1.720458984375,-14.197402954101562,-4.5641021728515625
1715093569798228700,10.764228759765626,1.6701812744140625,-15.808700561523438,-5.792327880859375
1715093569808208000,10.774207763671875,0.6071624755859375,-17.599563598632812,-6.88409423828125
1715093569818156500,10.784156494140625,-0.8245697021484375,-18.341766357421875,-6.9295806884765625
1715093569828136000,10.794135986328126,-2.141387939453125,-18.89483642578125,-6.7548065185546875
1715093569838115000,10.804114990234375,-3.12060546875,-19.517318725585938,-6.393280029296875
1715093569848094500,10.814094482421876,-2.20123291015625,-19.431137084960938,-5.845001220703125
1715093569858073600,10.824073486328125,-0.7910614013671875,-17.551681518554688,-4.23370361328125
1715093569868022300,10.834022216796875,0.50421142578125,-15.076080322265625,-3.213775634765625
1715093569878001700,10.844001708984376,3.5568084716796875,-13.261276245117188,1.203521728515625
1715093569887980800,10.853980712890625,3.27191162109375,-11.111282348632812,10.375717163085938
1715093569897960200,10.863960205078126,-0.587554931640625,-9.250991821289062,13.974197387695312
1715093569907908900,10.873908935546876,-1.813385009765625,-9.308441162109375,9.097213745117188
1715093569917888000,10.883887939453125,-2.9099273681640625,-9.875869750976562,2.3790740966796875
1715093569927867400,10.893867431640626,-1.449462890625,-9.339569091796875,-0.2377777099609375
1715093569937816000,10.903816162109376,-1.3943939208984375,-7.7593994140625,-0.9560394287109375
1715093569947795200,10.913795166015625,-1.176513671875,-5.9326171875,-0.893798828125
1715093569957774600,10.923774658203126,-0.2667236328125,-4.6014404296875,-1.882598876953125
1715093569967723300,10.93372314453125,0.5808258056640625,-3.4306793212890625,-2.971954345703125
1715093569977702400,10.943702392578125,1.344573974609375,-2.123443603515625,-3.1012420654296875
1715093569987681800,10.953681884765626,1.4044342041015625,-1.2830810546875,-3.551361083984375
1715093569997630500,10.96363037109375,1.76116943359375,-0.938323974609375,-3.5393829345703125
1715093570007609900,10.97360986328125,1.78271484375,-1.247161865234375,-3.07012939453125
1715093570017589000,10.983589111328126,1.8114471435546875,-1.5703887939453125,-2.9743499755859375
1715093570027537700,10.99353759765625,2.146636962890625,-1.6278533935546875,-3.328704833984375
1715093570037517000,11.00351708984375,1.8545379638671875,-1.5272979736328125,-3.989501953125
1715093570047496200,11.01349609375,1.356536865234375,-1.11309814453125,-4.111602783203125
1715093570057444900,11.02344482421875,0.9878387451171875,-0.7156524658203125,-3.58966064453125
1715093570067424300,11.03342431640625,0.1594390869140625,-1.002960205078125,-2.5984649658203125
1715093570077403400,11.0434033203125,-0.88922119140625,-1.6876983642578125,-1.6048736572265625
1715093570087352000,11.05335205078125,-3.3552398681640625,-3.1505584716796875,-0.4628448486328125
1715093570097331500,11.06333154296875,-7.26019287109375,-5.7698211669921875,1.086212158203125
1715093570107310600,11.073310546875,-10.743759155273438,-8.999588012695312,5.17071533203125
1715093570117290000,11.0832900390625,-13.341461181640625,-12.942840576171875,9.437179565429688
1715093570127238700,11.09323876953125,-14.119583129882812,-17.190155029296875,13.586334228515625
1715093570137217800,11.1032177734375,-14.279983520507812,-22.993698120117188,15.113845825195312
1715093570147197200,11.113197265625,-12.115631103515625,-26.762176513671875,15.39874267578125
1715093570157176300,11.12317626953125,-6.2857513427734375,-22.49810791015625,11.144256591796875
1715093570167155700,11.13315576171875,-5.5890350341796875,-16.23248291015625,5.1156463623046875
1715093570177104400,11.1431044921875,-6.992034912109375,-9.35394287109375,3.0973358154296875
1715093570187083500,11.15308349609375,-5.7901458740234375,-3.196044921875,3.5498504638671875
1715093570197063000,11.16306298828125,-3.865203857421875,0.4167938232421875,1.869110107421875
1715093570207011600,11.173011474609375,-2.8907623291015625,0.814239501953125,1.5698394775390625
1715093570216990700,11.18299072265625,-0.2547607421875,-3.729949951171875,-1.2960205078125
1715093570226970000,11.19297021484375,-1.21722412109375,-9.801651000976562,-2.220184326171875
1715093570236918800,11.202918701171875,0.5927886962890625,-16.220504760742188,-2.7876129150390625
1715093570246898200,11.212898193359376,4.0835418701171875,-20.166152954101562,-4.154693603515625
1715093570256877300,11.222877197265625,-3.9825286865234375,-24.142913818359375,-6.37890625
1715093570266826000,11.232825927734375,-2.280242919921875,-25.450149536132812,2.32879638671875
1715093570276805400,11.242805419921876,0.3581695556640625,-17.2572021484375,5.12762451171875
1715093570286784500,11.252784423828125,-1.8756256103515625,-10.3594970703125,2.460479736328125
1715093570296733200,11.262733154296875,-0.012939453125,-7.591796875,0.0686798095703125
1715093570306712600,11.272712646484376,5.1298065185546875,-5.0204315185546875,-1.10687255859375
1715093570316691700,11.282691650390625,7.09783935546875,-3.6461639404296875,-2.9216766357421875
1715093570326640400,11.292640380859375,4.0883331298828125,-3.442657470703125,-3.8195037841796875
1715093570336619800,11.302619873046876,1.5408935546875,-3.634185791015625,-4.303131103515625
1715093570346599000,11.312598876953125,0.5544891357421875,-4.9605712890625,-5.7157135009765625
1715093570356547800,11.3225478515625,0.0014190673828125,-6.952545166015625,-6.46270751953125
1715093570366527000,11.33252685546875,0.4132232666015625,-8.8367919921875,-5.579254150390625
1715093570376506000,11.342506103515625,0.310272216796875,-11.269302368164062,-4.882537841796875
1715093570386455000,11.352455078125,-0.1781463623046875,-13.201416015625,-2.337493896484375
1715093570396434200,11.36243408203125,-0.3170013427734375,-14.65948486328125,0.65765380859375
1715093570406413600,11.37241357421875,0.0636749267578125,-15.035369873046875,2.9321441650390625
1715093570416362200,11.3823623046875,0.41082763671875,-13.505477905273438,5.6495513916015625
1715093570426341400,11.39234130859375,0.9782562255859375,-11.776870727539062,7.20819091796875
1715093570436320800,11.40232080078125,1.2727508544921875,-9.413787841796875,7.5816802978515625
1715093570446300000,11.4122998046875,0.911224365234375,-7.9054412841796875,5.7118072509765625
1715093570456279300,11.422279296875,-0.302642822265625,-6.950164794921875,3.528289794921875
1715093570466228000,11.43222802734375,-1.08074951171875,-5.9709320068359375,1.7589874267578125
1715093570476207000,11.44220703125,-1.825347900390625,-5.207183837890625,0.631317138671875
1715093570486186500,11.4521865234375,-0.905975341796875,-5.77459716796875,0.08782958984375
1715093570496135200,11.46213525390625,0.47308349609375,-6.7227020263671875,-0.139617919921875
1715093570506114300,11.4721142578125,1.7180633544921875,-7.82403564453125,0.1596527099609375
1715093570516093700,11.48209375,1.6630096435546875,-9.279708862304688,0.123748779296875
1715093570526042400,11.49204248046875,1.361328125,-10.012344360351562,-0.06060791015625
1715093570536021500,11.502021484375,1.2942962646484375,-10.680328369140625,-0.867462158203125
1715093570546001000,11.5120009765625,0.0062103271484375,-9.902206420898438,-0.3167877197265625
1715093570555949600,11.521949462890625,-2.093505859375,-10.088958740234375,0.320068359375
1715093570565928700,11.5319287109375,-2.7902069091796875,-10.031494140625,1.09100341796875
1715093570575908000,11.541908203125,-3.103851318359375,-10.005157470703125,1.8284149169921875
1715093570585856800,11.551856689453125,-3.48931884765625,-10.072189331054688,2.5921630859375
1715093570595836200,11.561836181640626,-2.670501708984375,-10.457656860351562,2.9704437255859375
1715093570605815300,11.571815185546875,-1.073577880859375,-9.780105590820312,4.2369842529296875
1715093570615764000,11.581763916015625,-0.017730712890625,-9.4185791015625,4.7134246826171875
1715093570625743400,11.591743408203126,0.6502532958984375,-9.782501220703125,4.7493438720703125
1715093570635722500,11.601722412109375,1.90960693359375,-9.863906860351562,5.1611480712890625
1715093570645671200,11.611671142578125,1.9766387939453125,-9.69390869140625,5.692657470703125
1715093570655650600,11.621650634765626,0.743621826171875,-9.832778930664062,6.4180908203125
1715093570665629700,11.631629638671875,0.329437255859375,-10.266128540039062,6.209808349609375
1715093570675578400,11.641578369140625,0.5999755859375,-11.661941528320312,6.078125
1715093570685557800,11.651557861328126,1.14825439453125,-12.05938720703125,7.1124114990234375
1715093570695537000,11.661536865234375,-0.2427825927734375,-11.630828857421875,6.949615478515625
1715093570705516300,11.671516357421876,-2.03125,-12.487945556640625,2.8914337158203125
1715093570715495400,11.681495361328125,-1.6697235107421875,-12.854263305664062,1.5075836181640625
1715093570725444000,11.691444091796875,-1.370452880859375,-12.554977416992188,4.711029052734375
1715093570735423500,11.701423583984376,-0.6593780517578125,-12.183883666992188,7.3183135986328125
1715093570745402600,11.711402587890625,-1.023284912109375,-11.5111083984375,7.382965087890625
1715093570755382000,11.721382080078126,-1.6649322509765625,-10.701873779296875,6.6048431396484375
1715093570765330700,11.73133056640625,-2.6728973388671875,-9.983612060546875,5.3622589111328125
1715093570775309800,11.741309814453125,-2.4717864990234375,-9.686737060546875,4.667938232421875
1715093570785289200,11.751289306640626,-1.33453369140625,-9.950088500976562,4.2633209228515625
1715093570795238000,11.76123779296875,-0.3720703125,-10.87664794921875,0.1692352294921875
1715093570805217300,11.77121728515625,1.703704833984375,-11.98516845703125,-2.32073974609375
1715093570815196400,11.781196533203126,2.759552001953125,-14.345840454101562,-2.8307037353515625
1715093570825145000,11.79114501953125,1.8856658935546875,-17.834197998046875,-4.755645751953125
1715093570835124500,11.80112451171875,0.2408447265625,-20.537246704101562,-6.3765106201171875
1715093570845103600,11.811103515625,-1.79901123046875,-21.882797241210938,-7.0828094482421875
1715093570855052300,11.82105224609375,-2.933868408203125,-22.452621459960938,-7.604736328125
1715093570865031700,11.83103173828125,-2.4622039794921875,-21.719985961914062,-8.349334716796875
1715093570875010800,11.8410107421875,-1.53564453125,-18.657806396484375,-6.9630889892578125
1715093570884959500,11.85095947265625,-0.3696746826171875,-15.660263061523438,-4.54974365234375
1715093570894939000,11.86093896484375,0.932769775390625,-13.989105224609375,-3.2377166748046875
1715093570904918000,11.87091796875,3.2695159912109375,-11.87982177734375,3.99755859375
1715093570914867000,11.880866943359376,0.870513916015625,-9.052261352539062,12.22882080078125
1715093570924846000,11.89084619140625,-0.1996917724609375,-7.443359375,13.11468505859375
1715093570934825200,11.9008251953125,-2.701629638671875,-8.427383422851562,5.6758880615234375
1715093570944774100,11.910774169921876,-3.209197998046875,-8.379501342773438,1.371124267578125
1715093570954753300,11.920753173828125,-1.36566162109375,-7.934173583984375,0.4014739990234375
1715093570964732400,11.930732421875,-1.2100372314453125,-6.6676483154296875,-0.034271240234375
1715093570974681300,11.940681396484376,-0.4750213623046875,-5.2167510986328125,-0.953643798828125
1715093570984660500,11.950660400390625,0.71728515625,-3.7682647705078125,-1.956817626953125
1715093570994640000,11.960639892578126,1.4307708740234375,-2.386810302734375,-2.6511383056640625
1715093571004619000,11.970618896484375,1.8114471435546875,-1.239990234375,-2.684661865234375
1715093571014567700,11.980567626953125,2.15380859375,-0.6725616455078125,-3.108428955078125
1715093571024547000,11.990547119140626,2.08917236328125,-1.103515625,-3.4747467041015625
1715093571034526200,12.000526123046875,2.115509033203125,-1.7547454833984375,-3.1060333251953125
1715093571044505600,12.010505615234376,2.0293121337890625,-1.931915283203125,-3.182647705078125
1715093571054454300,12.020454345703126,2.3668975830078125,-1.606292724609375,-3.47235107421875
1715093571064433400,12.030433349609375,2.508148193359375,-1.462646484375,-3.6758575439453125
1715093571074412800,12.040412841796876,1.56243896484375,-1.244781494140625,-3.3071441650390625
1715093571084361500,12.050361572265626,0.779541015625,-1.1442108154296875,-2.849853515625
1715093571094340600,12.060340576171875,-0.4271392822265625,-1.752349853515625,-1.82513427734375
1715093571104320000,12.070320068359376,-2.4239044189453125,-2.8177642822265625,-0.8291473388671875
1715093571114268700,12.0802685546875,-5.2873687744140625,-4.5439910888671875,0.399078369140625
1715093571124247800,12.090247802734375,-7.985626220703125,-6.792144775390625,1.3112640380859375
1715093571134227200,12.100227294921876,-9.824371337890625,-9.373092651367188,4.246551513671875
1715093571144175900,12.11017578125,-13.406097412109375,-12.480758666992188,10.327835083007812
1715093571154155300,12.1201552734375,-13.980712890625,-16.627517700195312,15.274246215820312
1715093571164134400,12.130134521484376,-13.025421142578125,-22.792587280273438,15.044403076171875
1715093571174083000,12.1400830078125,-11.330337524414062,-26.182785034179688,12.403594970703125
1715093571184062500,12.1500625,-6.8723297119140625,-21.777450561523438,8.038970947265625
1715093571194041600,12.16004150390625,-5.981689453125,-14.896514892578125,4.6104736328125
1715093571203990300,12.169990234375,-6.0175933837890625,-7.553497314453125,2.206695556640625
1715093571213969700,12.1799697265625,-4.3057403564453125,-3.876007080078125,-0.9297027587890625
1715093571223948800,12.18994873046875,-4.7055816650390625,-3.6725006103515625,-1.18109130859375
1715093571233897500,12.1998974609375,-4.9857025146484375,-6.358795166015625,-1.7700653076171875
1715093571243876900,12.209876953125,-3.949005126953125,-10.943679809570312,-4.0948486328125
1715093571253856000,12.21985595703125,-1.84210205078125,-14.678634643554688,-5.1842041015625
1715093571263835400,12.22983544921875,-2.785430908203125,-17.355361938476562,-5.3446197509765625
1715093571273784000,12.2397841796875,-6.1756134033203125,-19.5723876953125,-6.3214569091796875
1715093571283763200,12.24976318359375,3.595123291015625,-19.960250854492188,1.4381561279296875
1715093571293742600,12.25974267578125,7.672454833984375,-15.162277221679688,4.3542938232421875
1715093571303721700,12.2697216796875,3.7363739013671875,-9.097763061523438,2.0103759765625
1715093571313701000,12.279701171875,2.3357696533203125,-6.243865966796875,0.6720123291015625
1715093571323649800,12.28964990234375,4.2678985595703125,-5.202392578125,-0.446075439453125
1715093571333629000,12.29962890625,4.8065948486328125,-4.6038360595703125,-0.26171875
1715093571343608300,12.3096083984375,2.7547607421875,-5.662078857421875,-1.566558837890625
1715093571353557000,12.319556884765625,1.2631683349609375,-6.6891937255859375,-2.5146636962890625
1715093571363536100,12.3295361328125,0.83221435546875,-8.496810913085938,-4.6215667724609375
1715093571373515500,12.339515625,0.7938995361328125,-9.796859741210938,-4.5210113525390625
1715093571383464200,12.349464111328125,0.573638916015625,-10.572586059570312,-3.043792724609375
1715093571393443600,12.359443603515626,-0.4846038818359375,-12.088119506835938,-1.6790924072265625
1715093571403422700,12.369422607421875,-1.5524139404296875,-13.821517944335938,0.674407958984375
1715093571413371400,12.379371337890625,-2.3975677490234375,-14.824691772460938,2.1252899169921875
1715093571423350800,12.389350830078126,-1.202850341796875,-13.8885498046875,3.70068359375
1715093571433330000,12.399329833984375,0.14508056640625,-12.224578857421875,3.4397125244140625
1715093571443278600,12.409278564453125,1.7396240234375,-10.510330200195312,4.0789642333984375
1715093571453258000,12.419258056640626,1.55047607421875,-8.228668212890625,4.4428863525390625
1715093571463237000,12.429237060546875,0.8872833251953125,-6.58624267578125,3.5043487548828125
1715093571473185800,12.439185791015625,-0.324188232421875,-5.9661407470703125,1.8499603271484375
1715093571483165200,12.449165283203126,-1.11187744140625,-5.5447540283203125,-0.24017333984375
1715093571493144300,12.459144287109375,-0.9466705322265625,-5.4226531982421875,-1.612060546875
1715093571503093200,12.46909326171875,0.0373382568359375,-5.91107177734375,-1.173919677734375
1715093571513072400,12.479072265625,0.7986907958984375,-6.593414306640625,-0.7501373291015625
1715093571523051500,12.489051513671875,1.2416229248046875,-7.76898193359375,-0.4795989990234375
1715093571533000400,12.49900048828125,1.3589324951171875,-9.250991821289062,0.1596527099609375
1715093571542979600,12.5089794921875,2.1777496337890625,-10.088958740234375,0.4134368896484375
1715093571552959000,12.518958984375,1.449920654296875,-10.103317260742188,1.3663330078125
1715093571562938000,12.528938232421876,-1.1262359619140625,-9.631668090820312,2.5466766357421875
1715093571572886800,12.53888671875,-2.881195068359375,-9.136062622070312,2.8267974853515625
1715093571582866200,12.5488662109375,-2.8524627685546875,-8.843978881835938,2.5107574462890625
1715093571592845300,12.55884521484375,-2.048004150390625,-9.250991821289062,2.8770751953125
1715093571602824700,12.56882470703125,-1.899566650390625,-9.5550537109375,3.77490234375
1715093571612773400,12.5787734375,-2.057586669921875,-10.007553100585938,4.7014617919921875
1715093571622752500,12.58875244140625,-1.940277099609375,-11.106491088867188,5.577728271484375
1715093571632732000,12.59873193359375,-1.360870361328125,-11.084945678710938,5.6375885009765625
1715093571642680600,12.6086806640625,-0.589935302734375,-10.493576049804688,5.165924072265625
1715093571652659700,12.61865966796875,0.19775390625,-10.091354370117188,5.0079193115234375
1715093571662639000,12.62863916015625,0.7292633056640625,-9.832778930664062,4.825958251953125
1715093571672587800,12.638587890625,0.86334228515625,-9.887847900390625,4.3375396728515625
1715093571682567000,12.64856689453125,0.35577392578125,-9.859115600585938,4.2513427734375
1715093571692546300,12.65854638671875,-0.324188232421875,-9.796859741210938,3.5953369140625
1715093571702495000,12.668494873046875,-0.6857147216796875,-10.402603149414062,4.8881988525390625
1715093571712474400,12.678474365234376,-0.3792572021484375,-10.656387329101562,7.4021148681640625
1715093571722453500,12.68845361328125,-0.8916168212890625,-11.264511108398438,7.447601318359375
1715093571732402200,12.698402099609375,-1.2722930908203125,-12.633987426757812,5.9392547607421875
1715093571742381600,12.708381591796876,-0.2236328125,-13.4432373046875,5.4963226318359375
1715093571752360700,12.718360595703125,0.722076416015625,-13.776031494140625,6.5880889892578125
1715093571762309400,12.728309326171875,0.4754791259765625,-13.1583251953125,6.137969970703125
1715093571772288800,12.738288818359376,0.0157928466796875,-11.47760009765625,4.658355712890625
1715093571782268000,12.748267822265625,-0.9730072021484375,-10.409774780273438,3.193115234375
1715093571792216600,12.758216552734375,-1.80859375,-10.46484375,2.9105987548828125
1715093571802196000,12.768196044921876,-1.5691680908203125,-11.202255249023438,2.5993499755859375
1715093571812175000,12.778175048828125,-0.4391021728515625,-12.4400634765625,-0.2473602294921875
1715093571822123800,12.788123779296875,2.093963623046875,-14.657089233398438,-2.8666229248046875
1715093571832103200,12.798103271484376,2.3501434326171875,-17.920394897460938,-4.7939453125
1715093571842082300,12.808082275390625,1.9550933837890625,-21.17889404296875,-6.218505859375
1715093571852061700,12.818061767578126,1.715667724609375,-21.844482421875,-6.553680419921875
1715093571862040800,12.828040771484375,0.1690216064453125,-21.310577392578125,-6.43157958984375
1715093571871989500,12.837989501953125,-1.382415771484375,-20.750335693359375,-6.5393218994140625
1715093571881969000,12.847968994140626,-2.2036285400390625,-19.067214965820312,-5.347015380859375
1715093571891948000,12.857947998046875,-1.571563720703125,-16.711318969726562,-3.024627685546875
1715093571901927400,12.867927490234376,-0.515716552734375,-15.44000244140625,-2.998291015625
1715093571911876000,12.8778759765625,1.260772705078125,-13.534210205078125,-1.4324951171875
1715093571921855200,12.887855224609375,1.44512939453125,-10.699478149414062,6.72454833984375
1715093571931834600,12.897834716796876,1.8976287841796875,-8.937347412109375,12.3748779296875
1715093571941783300,12.907783203125,0.4275970458984375,-8.503997802734375,9.063690185546875
1715093571951762700,12.9177626953125,-2.3448944091796875,-9.241409301757812,0.41583251953125
1715093571961741800,12.927741943359376,-2.8428802490234375,-9.107330322265625,-1.6000823974609375
1715093571971690500,12.9376904296875,-2.048004150390625,-7.828826904296875,-0.0462493896484375
