time,seconds_elapsed,z,y,x
1715093559190100500,0.1561005859375,0.1495037078857422,0.2785806655883789,0.37038734555244446
1715093559200080000,0.166079833984375,0.1522684097290039,0.6209955215454102,0.6213625073432922
1715093559210059000,0.17605908203125,0.19334888458251953,0.4198765754699707,0.6307772397994995
1715093559220038400,0.186038330078125,0.3252849578857422,-0.11979484558105469,0.16014418005943298
1715093559230017500,0.196017578125,0.4091529846191406,-0.4407944679260254,-0.2852769196033478
1715093559239996700,0.20599658203125,0.29103946685791016,-0.25759077072143555,-0.17523662745952606
1715093559249976000,0.21597607421875,0.2493581771850586,-0.03385734558105469,0.10455982387065887
1715093559259955200,0.225955078125,0.3081169128417969,-0.0865488052368164,0.1742052435874939
1715093559269934600,0.2359345703125,0.2846364974975586,-0.22803354263305664,0.1572362184524536
1715093559279913700,0.245913818359375,0.05103111267089844,-0.38549089431762695,0.1355518400669098
1715093559289862400,0.2558623046875,-0.5584011077880859,-0.04209184646606445,0.4006849229335785
1715093559299841800,0.265841796875,-0.955409049987793,0.2802267074584961,0.5135936737060547
1715093559309821000,0.275821044921875,-0.6858816146850586,0.17143821716308594,0.3643314838409424
1715093559319800300,0.28580029296875,-0.17986583709716797,-0.02481222152709961,0.13408231735229492
1715093559329779500,0.295779541015625,0.08162498474121094,-0.07293701171875,0.12274980545043945
1715093559339728100,0.30572802734375,0.46442699432373047,-0.2524909973144531,0.20316702127456665
1715093559349707500,0.31570751953125,0.8634891510009766,-0.4767642021179199,0.06825479865074158
1715093559359686700,0.325686767578125,0.8800392150878906,-0.601132869720459,-0.13679203391075134
1715093559369635300,0.33563525390625,0.6972532272338867,-0.20595264434814453,0.25384026765823364
1715093559379614700,0.34561474609375,0.2663087844848633,-0.03619718551635742,0.35051649808883667
1715093559389593900,0.35559375,-0.21341609954833984,-0.09867095947265625,0.21314182877540588
1715093559399573200,0.3655732421875,-0.4259529113769531,-0.0700221061706543,0.06809508800506592
1715093559409522000,0.37552197265625,-0.44736194610595703,-0.336820125579834,-0.4241710305213928
1715093559419501000,0.3855009765625,-0.6012363433837891,-0.3918123245239258,-0.7182108163833618
1715093559429480400,0.39548046875,-0.6395998001098633,-0.22332286834716797,-0.6796083450317383
1715093559439429000,0.40542919921875,-0.4862861633300781,-0.2668600082397461,-0.648135244846344
1715093559449408500,0.415408447265625,-0.37779808044433594,-0.18861722946166992,-0.43426722288131714
1715093559459387600,0.4253876953125,-0.3419618606567383,0.04580497741699219,-0.048807576298713684
1715093559469336300,0.43533642578125,-0.32561779022216797,0.10973644256591797,0.008388623595237732
1715093559479315700,0.445315673828125,-0.21901893615722656,-0.010091781616210938,-0.21512237191200256
1715093559489294800,0.455294921875,-0.09226799011230469,-0.16626977920532227,-0.4282039999961853
1715093559499243500,0.465243408203125,0.09611701965332031,-0.4580864906311035,-0.6593064665794373
1715093559509223000,0.475222900390625,-0.14237689971923828,-0.3131265640258789,-0.6246069669723511
1715093559519171600,0.485171630859375,-0.3543386459350586,-0.1567363739013672,-0.4013226628303528
1715093559529150700,0.495150634765625,-0.28651905059814453,-0.17082452774047852,-0.22178594768047333
1715093559539130000,0.505130126953125,-0.1465921401977539,0.01772308349609375,0.051684990525245667
1715093559549109200,0.515109130859375,-0.1823406219482422,0.13749122619628906,0.23673003911972046
1715093559559088600,0.525088623046875,-0.016015052795410156,-0.02399897575378418,0.12269476056098938
1715093559569037300,0.535037353515625,0.1313037872314453,-0.05996513366699219,-0.05086056888103485
1715093559579016400,0.545016357421875,0.19611454010009766,-0.008989095687866211,-0.06865780055522919
1715093559588995800,0.554995849609375,0.3572425842285156,-0.07957220077514648,-0.10045552253723145
1715093559598975000,0.56497509765625,0.6159505844116211,-0.20091772079467773,-0.3594226837158203
1715093559608923600,0.574923583984375,0.7059211730957031,-0.30504417419433594,-0.3699619174003601
1715093559618903000,0.584903076171875,0.5005788803100586,-0.1482100486755371,-0.34293216466903687
1715093559628882200,0.594882080078125,0.18439388275146484,-0.1370222568511963,-0.30965274572372437
1715093559638831000,0.6048310546875,0.030907630920410156,-0.09357309341430664,-0.26490041613578796
1715093559648810200,0.614810302734375,-0.0923776626586914,0.05927109718322754,-0.18741005659103394
1715093559658789400,0.624789306640625,-0.08507347106933594,0.1174006462097168,-0.027717605233192444
1715093559668738300,0.63473828125,0.083740234375,-0.05484461784362793,-0.060618482530117035
1715093559678717400,0.644717529296875,0.10828304290771484,0.032675743103027344,-0.13917496800422668
1715093559688696800,0.65469677734375,-0.042160987854003906,0.0919184684753418,-0.18483862280845642
1715093559698645500,0.6646455078125,0.0968942642211914,-0.021270275115966797,-0.19940727949142456
1715093559708624600,0.674624755859375,0.25812530517578125,-0.012530803680419922,-0.15939414501190186
1715093559718604000,0.68460400390625,0.1378316879272461,0.08275532722473145,-0.0010997578501701355
1715093559728552700,0.694552734375,0.11240291595458984,-0.018845319747924805,0.07211814820766449
1715093559738531800,0.70453173828125,-0.039333343505859375,0.10882830619812012,-0.11484385281801224
1715093559748511200,0.71451123046875,-0.3922090530395508,0.06990385055541992,-0.08054319024085999
1715093559758460000,0.7244599609375,-0.3217620849609375,0.08256983757019043,0.16414588689804077
1715093559768439000,0.73443896484375,-0.08870124816894531,-0.0036575794219970703,0.3333989083766937
1715093559778418400,0.74441845703125,-0.1611957550048828,0.08887910842895508,0.475889652967453
1715093559788367000,0.7543671875,-0.413970947265625,0.14448761940002441,0.5505436658859253
1715093559798346500,0.764346435546875,-0.40337181091308594,0.14460515975952148,0.35210660099983215
1715093559808325600,0.77432568359375,-0.19395732879638672,0.038886070251464844,0.29118138551712036
1715093559818304800,0.7843046875,-0.10714340209960938,-0.08847188949584961,0.09084995090961456
1715093559828253700,0.794253662109375,-0.13510894775390625,-0.10964703559875488,0.15250790119171143
1715093559838232800,0.80423291015625,-0.1629781723022461,-0.12282061576843262,0.2877110540866852
1715093559848212200,0.814212158203125,-0.32955169677734375,0.012519359588623047,0.3964630961418152
1715093559858191400,0.82419140625,-0.3634929656982422,-0.034633636474609375,0.49799370765686035
1715093559868140000,0.83414013671875,-0.3943471908569336,0.02448248863220215,0.4045577347278595
1715093559878119400,0.844119384765625,-0.5652036666870117,-0.05857253074645996,0.3482019305229187
1715093559888098600,0.8540986328125,-0.5915193557739258,-0.37208032608032227,-0.26966503262519836
1715093559898047200,0.864047119140625,-0.581298828125,-0.6982588768005371,-0.4884513318538666
1715093559908026600,0.874026611328125,-0.5785379409790039,-0.9004788398742676,-0.11791044473648071
1715093559918005800,0.884005859375,-0.6071786880493164,-1.0058894157409668,0.12724429368972778
1715093559927954400,0.893954345703125,-0.5511960983276367,-1.5140044689178467,-0.1979488730430603
1715093559937933800,0.903933837890625,-0.49271297454833984,-1.5640349388122559,-0.15346896648406982
1715093559947913000,0.913912841796875,-0.2768974304199219,-1.7251436710357666,0.09601688385009766
1715093559957862000,0.92386181640625,-0.5081014633178711,-2.134108066558838,0.2837713360786438
1715093559967841000,0.933841064453125,-1.3836441040039062,-2.399134397506714,0.36572617292404175
1715093559977820200,0.943820068359375,-2.6707868576049805,-3.0263781547546387,-0.3584105968475342
1715093559987769000,0.95376904296875,-3.8639469146728516,-3.797118902206421,-0.7386767864227295
1715093559997748200,0.963748291015625,-3.8290529251098633,-4.597086429595947,-1.2131240367889404
1715093560007727400,0.973727294921875,-3.8660125732421875,-5.479092121124268,-1.6269245147705078
1715093560017676300,0.98367626953125,-3.89955997467041,-6.094486236572266,-1.902679443359375
1715093560027655400,0.993655517578125,-2.7341346740722656,-7.012749671936035,-2.7236099243164062
1715093560037634800,1.003634765625,-0.5355448722839355,-7.273373603820801,-4.7083306312561035
1715093560047582700,1.013582763671875,-1.426997184753418,-9.414379119873047,-5.59969425201416
1715093560057561900,1.023561767578125,-4.603100299835205,-11.345046997070312,-5.987912178039551
1715093560067541200,1.033541259765625,-6.049205303192139,-11.783988952636719,-6.626889705657959
1715093560077490000,1.043489990234375,-6.293758869171143,-11.683374404907227,-5.210028648376465
1715093560087469000,1.053468994140625,-5.947223663330078,-11.579801559448242,-3.272519588470459
1715093560097448400,1.063448486328125,-5.458390235900879,-11.201909065246582,-2.6760711669921875
1715093560107427600,1.073427490234375,-4.849935531616211,-10.723910331726074,-1.6536407470703125
1715093560117376300,1.083376220703125,-4.276654243469238,-10.491996765136719,0.925321102142334
1715093560127355600,1.093355712890625,-3.5951108932495117,-9.930281639099121,3.3245859146118164
1715093560137334800,1.103334716796875,-2.737335443496704,-9.18439769744873,4.437193393707275
1715093560147314200,1.113314208984375,-1.8582165241241455,-8.591949462890625,5.3958420753479
1715093560157293300,1.123293212890625,-0.006607532501220703,-6.929598808288574,6.76812744140625
1715093560167242000,1.133241943359375,4.416133403778076,-5.045318603515625,8.066320419311523
1715093560177221400,1.143221435546875,6.694328308105469,-3.6421844959259033,10.719106674194336
1715093560187200500,1.153200439453125,5.965916633605957,-2.511415481567383,11.937904357910156
1715093560197149200,1.163149169921875,4.35011100769043,-2.238173484802246,11.91749382019043
1715093560207128600,1.173128662109375,3.363557815551758,-2.1668405532836914,10.950319290161133
1715093560217107700,1.183107666015625,3.166816234588623,-1.671494960784912,10.172515869140625
1715093560227056600,1.193056640625,2.796825885772705,-0.7962918281555176,10.942954063415527
1715093560237057000,1.20305712890625,1.8834967613220215,0.04328584671020508,12.296173095703125
1715093560247036400,1.213036376953125,2.0246918201446533,1.838982105255127,14.227869033813477
1715093560256985000,1.222985107421875,-0.19507575035095215,3.4697465896606445,15.190710067749023
1715093560266964500,1.232964599609375,-9.565857887268066,5.612256050109863,16.352434158325195
1715093560276943600,1.242943603515625,-28.972410202026367,9.189422607421875,23.806108474731445
1715093560286892300,1.252892333984375,-38.752296447753906,10.56501579284668,24.556764602661133
1715093560296871700,1.26287158203125,-11.578490257263184,5.163023948669434,8.86241626739502
1715093560306850800,1.272850830078125,-1.0131568908691406,0.6408209800720215,7.817911624908447
1715093560316799500,1.282799560546875,-2.6342573165893555,0.025130271911621094,2.438228130340576
1715093560326779000,1.29277880859375,-0.3618112802505493,-0.0919027328491211,1.6269035339355469
1715093560336758000,1.302758056640625,0.23311340808868408,1.729177474975586,-0.40000438690185547
1715093560346706700,1.312706787109375,0.5087428092956543,1.9674429893493652,-2.557292938232422
1715093560356686000,1.32268603515625,-4.014005661010742,-0.1007089614868164,-3.551234245300293
1715093560366665200,1.332665283203125,-2.214932441711426,2.4025487899780273,-4.981269359588623
1715093560376614100,1.3426142578125,3.443437337875366,6.2235307693481445,1.2534112930297852
1715093560386593300,1.35259326171875,9.612417221069336,4.442428112030029,-0.35350656509399414
1715093560396572400,1.362572509765625,-4.708487510681152,5.742236137390137,-8.427462577819824
1715093560406521300,1.372521240234375,-3.206477642059326,8.530292510986328,-2.77603816986084
1715093560416500500,1.38250048828125,-2.4953081607818604,6.843488693237305,0.32647705078125
1715093560426479600,1.392479736328125,-2.4480247497558594,1.7266178131103516,-2.766040325164795
1715093560436459000,1.402458984375,0.11830353736877441,-2.058049201965332,-0.4309210777282715
1715093560446438100,1.412438232421875,-0.4260692596435547,-4.639072418212891,-0.5172820091247559
1715093560456387000,1.422386962890625,0.37211644649505615,-7.500731468200684,-0.03978919982910156
1715093560466366200,1.4323662109375,-0.48752373456954956,-11.403990745544434,0.5405206680297852
1715093560476345300,1.442345458984375,-2.50030517578125,-15.062902450561523,1.5961723327636719
1715093560486294300,1.452294189453125,-1.3532381057739258,-12.529967308044434,6.742743968963623
1715093560496273400,1.4622734375,2.3093883991241455,-10.536385536193848,8.962385177612305
1715093560506252800,1.472252685546875,1.7883212566375732,-5.977275848388672,8.244291305541992
1715093560516201500,1.482201416015625,-0.21411582827568054,-2.085057258605957,8.329780578613281
1715093560526180600,1.4921806640625,0.6800509691238403,-3.0173330307006836,4.372654914855957
1715093560536160000,1.502159912109375,0.4211190342903137,-2.118898391723633,1.8269124031066895
1715093560546108700,1.512108642578125,-1.6795324087142944,-1.2336406707763672,4.07715368270874
1715093560556087800,1.522087890625,-2.13743257522583,2.579854965209961,-10.05600357055664
1715093560566067200,1.532067138671875,-4.403285503387451,5.304889678955078,-8.26480770111084
1715093560576016000,1.542015869140625,-1.2554975748062134,4.050234794616699,-1.2221765518188477
1715093560585995000,1.5519951171875,-0.46820148825645447,2.6693410873413086,-0.7220110893249512
1715093560595974400,1.561974365234375,-0.41584616899490356,1.7981157302856445,-0.3461737632751465
1715093560605923000,1.571923095703125,0.8298773169517517,2.391016960144043,0.9574241638183594
1715093560615902500,1.58190234375,0.8749138116836548,0.877467155456543,2.227458953857422
1715093560625881600,1.591881591796875,0.43875622749328613,0.7049179077148438,1.0541706085205078
1715093560635830300,1.601830322265625,0.2858031988143921,2.041147232055664,0.3594970703125
1715093560645809700,1.6118095703125,2.71433162689209,2.055797576904297,-0.8054347038269043
1715093560655788800,1.621788818359375,3.327775001525879,0.28929615020751953,-0.45197248458862305
1715093560665737500,1.631737548828125,0.3118863105773926,0.7675457000732422,-1.0297603607177734
1715093560675716900,1.641716796875,-1.5218005180358887,0.9029960632324219,-2.134176731109619
1715093560685696000,1.651696044921875,-2.003480911254883,2.4889183044433594,-1.9046993255615234
1715093560695675400,1.66167529296875,-0.5537841320037842,0.6138734817504883,-2.66780948638916
1715093560705654500,1.671654541015625,-1.0778378248214722,1.6852750778198242,-3.532364845275879
1715093560715603200,1.681603271484375,-6.004158020019531,11.081918716430664,-3.8491368293762207
1715093560725582600,1.69158251953125,3.3520336151123047,12.943747520446777,-1.2708401679992676
1715093560735561700,1.701561767578125,10.551469802856445,15.01231575012207,-1.879195213317871
1715093560745541000,1.711541015625,9.603093147277832,12.96933650970459,-2.445237636566162
1715093560755489800,1.72148974609375,3.8829169273376465,10.146692276000977,-1.9446606636047363
1715093560765450000,1.731449951171875,2.0345053672790527,7.402393341064453,-1.9764728546142578
1715093560775429400,1.741429443359375,-0.03501802682876587,2.899266242980957,-4.332661151885986
1715093560785378000,1.7513779296875,-10.90561294555664,-12.655046463012695,-6.888803482055664
1715093560795357200,1.761357177734375,-14.514825820922852,-15.767792701721191,-13.667936325073242
1715093560805307000,1.771306884765625,-0.8284116387367249,-7.788905143737793,-11.079676628112793
1715093560815286300,1.781286376953125,4.950702667236328,0.7954378128051758,-6.976716995239258
1715093560825265400,1.791265380859375,3.492117166519165,5.613081932067871,-7.472303867340088
1715093560835214000,1.801214111328125,3.75015926361084,5.006548881530762,-7.740504264831543
1715093560845193500,1.811193359375,0.4223467707633972,-1.4505014419555664,-3.797999858856201
1715093560855172600,1.821172607421875,3.8662424087524414,-4.272967338562012,-7.340100288391113
1715093560865121300,1.831121337890625,1.2915327548980713,-0.4958829879760742,-3.834354877471924
1715093560875100700,1.8411005859375,-0.008474797010421753,-11.353327751159668,1.67881178855896
1715093560885079800,1.851079833984375,-4.400318145751953,-16.176097869873047,4.105571746826172
1715093560895028700,1.86102880859375,-4.251208782196045,-22.66397476196289,11.069266319274902
1715093560905028400,1.8710283203125,0.5840110778808594,-17.712940216064453,24.385887145996094
1715093560915007500,1.881007568359375,7.08900260925293,-7.751357078552246,23.978910446166992
1715093560924956400,1.890956298828125,6.435409069061279,-3.7238006591796875,11.244284629821777
1715093560934935600,1.900935546875,-0.2513507902622223,-5.431718826293945,-2.5475502014160156
1715093560944914700,1.910914794921875,-5.864991188049316,-6.067087173461914,-13.019967079162598
1715093560954863600,1.920863525390625,-5.472840309143066,-4.998780250549316,-14.470191955566406
1715093560964842800,1.9308427734375,-2.3855972290039062,-2.362215995788574,-7.9052228927612305
1715093560974822100,1.940822265625,-0.6394890546798706,-2.3561038970947266,-2.9581286907196045
1715093560984801300,1.95080126953125,1.1671346426010132,-2.4162893295288086,-1.1046048402786255
1715093560994780400,1.960780517578125,2.7472712993621826,-1.9954519271850586,0.05590164661407471
1715093561004729300,1.970729248046875,2.7467517852783203,-1.0987491607666016,0.9906196594238281
1715093561014708500,1.98070849609375,1.5741868019104004,2.864389419555664,1.839959979057312
1715093561024687900,1.99068798828125,0.8189837336540222,6.587421417236328,2.617429256439209
1715093561034667000,2.0006669921875,0.2582440972328186,9.969888687133789,-0.16457593441009521
1715093561044615700,2.01061572265625,-2.0481741428375244,9.216631889343262,-5.608789920806885
1715093561054595000,2.020594970703125,-3.999107837677002,7.0758256912231445,-2.050976276397705
1715093561064574200,2.03057421875,-0.43046343326568604,3.3184289932250977,2.594350814819336
1715093561074523000,2.04052294921875,-0.8786582946777344,0.23414134979248047,0.2789876461029053
1715093561084502300,2.050502197265625,-1.0196284055709839,-0.7596578598022461,-0.5764871835708618
1715093561094481400,2.0604814453125,-0.7813525795936584,-1.0010747909545898,0.06696009635925293
1715093561104430000,2.07043017578125,-0.9690403342247009,-1.5877418518066406,0.4328383207321167
1715093561114409500,2.080409423828125,-1.5148646831512451,-1.8852014541625977,0.19234299659729004
1715093561124388600,2.090388671875,0.5184844136238098,-2.3691396713256836,1.836779236793518
1715093561134337300,2.100337158203125,1.6625862121582031,-2.622023582458496,3.3155033588409424
1715093561144312000,2.11031201171875,2.141214370727539,-3.2371578216552734,3.9428935050964355
1715093561154291500,2.12029150390625,1.3078374862670898,-3.08780574798584,3.3627467155456543
1715093561164240100,2.130240234375,-0.44480425119400024,-2.006646156311035,2.3131802082061768
1715093561174219300,2.14021923828125,-1.536821722984314,-1.4913883209228516,0.7727624177932739
1715093561184198700,2.15019873046875,-1.851123332977295,-0.676915168762207,0.3209322690963745
1715093561194147300,2.160147216796875,-2.457176923751831,-0.2983970642089844,0.6435437202453613
1715093561204126500,2.17012646484375,-1.6550548076629639,-0.5216093063354492,1.2764639854431152
1715093561214105900,2.18010595703125,0.2802651524543762,-0.21325206756591797,1.0336971282958984
1715093561224054500,2.190054443359375,1.6632179021835327,0.6861591339111328,0.3679928779602051
1715093561234033700,2.20003369140625,1.2179198265075684,1.1290063858032227,-0.2836495637893677
1715093561244013000,2.210012939453125,0.672083854675293,1.1672582626342773,-0.34554076194763184
1715093561253992200,2.2199921875,0.6225049495697021,0.8123588562011719,0.4674210548400879
1715093561263941000,2.229941162109375,0.8867523670196533,0.4436655044555664,2.522132158279419
1715093561273920300,2.239920166015625,0.7191880941390991,-0.3275156021118164,5.005728721618652
1715093561283899400,2.2498994140625,0.28455793857574463,-0.8674421310424805,6.298972129821777
1715093561293878800,2.259878662109375,-0.5957231521606445,-1.0620450973510742,6.3996901512146
1715093561303827500,2.269827392578125,-1.4007165431976318,-0.7666816711425781,5.302692890167236
1715093561313806800,2.279806884765625,-1.148903250694275,-0.04561901092529297,3.7113192081451416
1715093561323786000,2.289785888671875,-2.230708599090576,0.27565765380859375,1.6995662450790405
1715093561333734700,2.299734619140625,-2.566603899002075,0.14639854431152344,-0.3579791784286499
1715093561343714000,2.309714111328125,-2.5538573265075684,-0.01493072509765625,-1.2856998443603516
1715093561353693200,2.319693115234375,-3.301082134246826,-0.12873554229736328,-1.410999059677124
1715093561363641900,2.329641845703125,-3.1029796600341797,-0.3279294967651367,-0.6504294872283936
1715093561373621200,2.339621337890625,-2.7282004356384277,-0.8840723037719727,0.07151174545288086
1715093561383600400,2.349600341796875,-2.06143856048584,-1.0028696060180664,0.4750950336456299
1715093561393549000,2.359549072265625,-2.4623208045959473,-0.9643259048461914,1.010709524154663
1715093561403528400,2.369528564453125,-1.898305892944336,-0.7246150970458984,1.496793508529663
1715093561413507600,2.379507568359375,-1.2361946105957031,-0.4765310287475586,2.079685688018799
1715093561423456300,2.389456298828125,-0.9473800659179688,-0.352020263671875,2.5488390922546387
1715093561433435600,2.399435546875,-1.2121055126190186,-0.2834196090698242,3.056999921798706
1715093561443414800,2.409414794921875,-1.7439806461334229,-0.3257417678833008,3.4935362339019775
1715093561453363700,2.41936376953125,-1.972656011581421,-0.4769725799560547,3.706822156906128
1715093561463342800,2.4293427734375,-1.632850170135498,-0.8623828887939453,3.690211296081543
1715093561473322000,2.439322021484375,-1.2710332870483398,-1.4494028091430664,3.416077136993408
1715093561483271000,2.44927099609375,-0.830472469329834,-1.7375335693359375,2.631746530532837
1715093561493250000,2.45925,-0.8565278053283691,-1.726705551147461,1.7541310787200928
1715093561503229400,2.4692294921875,-1.630812168121338,-1.9513959884643555,1.2648985385894775
1715093561513178000,2.47917822265625,-2.187124729156494,-2.273691177368164,1.3705229759216309
1715093561523157200,2.4891572265625,-2.3412411212921143,-2.7798643112182617,2.2512073516845703
1715093561533136600,2.49913671875,-2.075599193572998,-2.771040916442871,3.1682522296905518
1715093561543115800,2.50911572265625,-2.381301164627075,-2.4218835830688477,4.146535396575928
1715093561553064400,2.519064453125,-2.868434429168701,-2.3779916763305664,4.413569450378418
1715093561563043800,2.5290439453125,-3.3164985179901123,-2.7621755599975586,3.8728244304656982
1715093561573023000,2.53902294921875,-3.5048770904541016,-3.295957565307617,2.7994494438171387
1715093561583002400,2.54900244140625,-4.010106086730957,-3.6751041412353516,2.5845134258270264
1715093561592981500,2.5589814453125,-3.9670298099517822,-3.865738868713379,3.085103750228882
1715093561602930200,2.56893017578125,-3.0577547550201416,-3.9321327209472656,4.305400848388672
1715093561612909600,2.57890966796875,-1.9856221675872803,-3.6597108840942383,5.840323448181152
1715093561622888700,2.588888671875,-1.7149181365966797,-2.9286651611328125,6.140163421630859
1715093561632837400,2.59883740234375,-0.7477619647979736,-2.3070058822631836,6.6632585525512695
1715093561642816800,2.608816650390625,0.462252140045166,-1.986307144165039,7.03466796875
1715093561652796000,2.6187958984375,0.04835057258605957,-2.219594955444336,6.420169830322266
1715093561662744800,2.628744873046875,-0.728589653968811,-2.4729700088500977,5.371102333068848
1715093561672724000,2.638723876953125,-1.0167372226715088,-2.765035629272461,3.61352801322937
1715093561682703000,2.648703125,-1.7304521799087524,-3.454178810119629,1.2224979400634766
1715093561692652000,2.658652099609375,-2.051548719406128,-3.1699600219726562,-1.9222922325134277
1715093561702631200,2.668631103515625,-1.4849464893341064,-2.414139747619629,-4.067517280578613
1715093561712610300,2.6786103515625,-0.9712094664573669,-2.3653488159179688,-4.626875877380371
1715093561722559200,2.688559326171875,-0.5128231048583984,-3.071650505065918,-5.154327392578125
1715093561732538400,2.698538330078125,0.6290395855903625,-3.9512109756469727,-5.744441986083984
1715093561742517800,2.708517822265625,0.9856189489364624,-4.697170257568359,-5.739297866821289
1715093561752466400,2.718466552734375,0.41345512866973877,-5.470246315002441,-5.495983600616455
1715093561762445600,2.728445556640625,-0.4586917459964752,-6.272047996520996,-5.274281978607178
1715093561772425000,2.738425048828125,-0.601768970489502,-7.134337425231934,-5.229151248931885
1715093561782373600,2.74837353515625,-0.3403887152671814,-7.295601844787598,-6.416802406311035
1715093561792352800,2.758352783203125,1.1482598781585693,-6.854387283325195,-7.592272758483887
1715093561802332200,2.768332275390625,3.1303133964538574,-5.379836082458496,-6.465223789215088
1715093561812280800,2.77828076171875,4.464193344116211,-3.2668228149414062,-2.148364305496216
1715093561822260000,2.788260009765625,2.5957977771759033,-1.5692377090454102,4.521921157836914
1715093561832239400,2.7982392578125,1.8592791557312012,-1.5747251510620117,4.531854629516602
1715093561842218500,2.808218505859375,2.7495670318603516,-2.0776567459106445,0.20929491519927979
1715093561852167400,2.81816748046875,2.6886518001556396,-1.827855110168457,-2.181468963623047
1715093561862146600,2.828146484375,3.0780251026153564,-0.818486213684082,-2.6304614543914795
1715093561872125700,2.838125732421875,3.6909093856811523,0.9346895217895508,-1.4766416549682617
1715093561882105000,2.84810498046875,4.144182205200195,2.330341339111328,-1.8621740341186523
1715093561892053800,2.8580537109375,3.8745310306549072,3.3767480850219727,-2.4446957111358643
1715093561902033200,2.868033203125,3.9747941493988037,4.165931701660156,-3.088137626647949
1715093561912012300,2.87801220703125,5.539159774780273,5.328560829162598,-3.5351338386535645
1715093561921961000,2.8879609375,6.572633743286133,6.452707290649414,-3.418712615966797
1715093561931940400,2.8979404296875,6.209098815917969,6.778833389282227,-4.115399360656738
1715093561941919500,2.90791943359375,5.612212657928467,7.047723770141602,-4.106875419616699
1715093561951868200,2.9178681640625,5.995790481567383,6.954799652099609,-4.072588920593262
1715093561961847600,2.92784765625,5.671297073364258,7.1575164794921875,-4.354155540466309
1715093561971826700,2.93782666015625,5.696002006530762,7.458249092102051,-3.871065378189087
1715093561981775400,2.947775390625,5.5837178230285645,7.721734046936035,-3.5974888801574707
1715093561991754800,2.957754638671875,4.95753812789917,7.837180137634277,-3.4505562782287598
1715093562001734000,2.96773388671875,4.429798126220703,7.955211639404297,-3.026398181915283
1715093562011682800,2.977682861328125,3.4040064811706543,7.405461311340332,-2.1644606590270996
1715093562021662000,2.987661865234375,1.1445951461791992,6.726676940917969,-2.103926181793213
1715093562031641000,2.99764111328125,0.11132621765136719,6.107430458068848,-1.27092444896698
1715093562041590000,3.007590087890625,-0.6214203834533691,5.488532066345215,-0.826331615447998
1715093562051569200,3.017569091796875,-1.4095635414123535,4.478344917297363,-0.5971971750259399
1715093562061548500,3.027548583984375,-2.2264456748962402,2.754879951477051,0.16061657667160034
1715093562071497200,3.037497314453125,-4.819458961486816,0.5693836212158203,0.5587767958641052
1715093562081476400,3.047476318359375,-7.5530290603637695,-2.5202159881591797,1.260810136795044
1715093562091455700,3.057455810546875,-9.428247451782227,-7.0246686935424805,2.9805243015289307
1715093562101404400,3.067404296875,-12.140569686889648,-13.851140975952148,2.861603021621704
1715093562111383600,3.077383544921875,-8.98603630065918,-19.289052963256836,6.219569206237793
1715093562121363000,3.087363037109375,-2.3537158966064453,-16.984596252441406,6.3629631996154785
1715093562131342000,3.097342041015625,-2.21334171295166,-7.875959396362305,3.0826282501220703
1715093562141321500,3.107321533203125,-2.962529182434082,1.3955469131469727,2.3285319805145264
1715093562151270100,3.117270263671875,-4.0032639503479,8.102124214172363,0.9730976223945618
1715093562161249300,3.127249267578125,-2.622097969055176,11.3579683303833,-0.3385270833969116
1715093562171228700,3.137228759765625,0.513847827911377,9.287907600402832,-1.9934312105178833
1715093562181207800,3.147207763671875,4.228267669677734,5.393209457397461,-4.225736618041992
1715093562191156500,3.157156494140625,9.195964813232422,1.2860965728759766,-4.817731857299805
1715093562201135900,3.167135986328125,10.416403770446777,-3.0495615005493164,-5.674511432647705
1715093562211115000,3.177114990234375,9.155967712402344,-7.353171348571777,-8.530291557312012
1715093562221063700,3.187063720703125,0.11046266555786133,-11.053081512451172,-10.308205604553223
1715093562231043000,3.19704296875,-7.7858991622924805,-19.986814498901367,-5.509925365447998
1715093562241022200,3.207022216796875,2.0914504528045654,-19.261009216308594,0.14100050926208496
1715093562250971100,3.21697119140625,2.6592459678649902,-4.799647331237793,0.24970638751983643
1715093562260950300,3.2269501953125,2.427762508392334,2.3496627807617188,-2.2306180000305176
1715093562270929400,3.236929443359375,6.505568504333496,5.737509727478027,-3.4183340072631836
1715093562280878300,3.24687841796875,10.195356369018555,7.863907814025879,-4.808928966522217
1715093562290857500,3.256857421875,10.777247428894043,8.922334671020508,-5.504278182983398
1715093562300836900,3.2668369140625,8.058969497680664,8.292173385620117,-5.880060195922852
1715093562310785500,3.27678564453125,4.218338966369629,6.413161277770996,-5.439975261688232
1715093562320764700,3.2867646484375,3.029017210006714,3.883218765258789,-5.2961554527282715
1715093562330744000,3.296744140625,3.0245351791381836,1.149674415588379,-5.4871368408203125
1715093562340692700,3.306692626953125,3.2997796535491943,-2.082347869873047,-3.906973123550415
1715093562350672000,3.316671875,2.7941951751708984,-5.545961380004883,-0.8558579087257385
1715093562360620800,3.326620849609375,1.6691936254501343,-6.823911666870117,1.0296683311462402
1715093562370600000,3.336599853515625,1.8893640041351318,-6.587802886962891,0.6692626476287842
1715093562380579000,3.3465791015625,1.0527914762496948,-5.059540748596191,1.4310191869735718
1715093562390528000,3.356528076171875,-0.4028947353363037,-2.473912239074707,3.385920763015747
1715093562400507100,3.366507080078125,-1.3165943622589111,-0.06609821319580078,4.046661376953125
1715093562410486500,3.376486572265625,-0.4152931571006775,1.8148860931396484,2.1259448528289795
1715093562420465700,3.386465576171875,0.6932511925697327,3.256167411804199,-0.7995439767837524
1715093562430444800,3.39644482421875,0.3922174870967865,4.293912887573242,-2.165287494659424
1715093562440393700,3.406393798828125,-0.1053805947303772,4.55912971496582,-2.8761911392211914
1715093562450372900,3.416372802734375,-0.09995521605014801,4.576841354370117,-2.441619634628296
1715093562460352300,3.426352294921875,0.18914222717285156,4.204084396362305,-1.7745007276535034
1715093562470331400,3.436331298828125,1.3569461107254028,3.2060537338256836,-0.2275865077972412
1715093562480280000,3.446280029296875,1.606332778930664,2.062589645385742,1.052764892578125
1715093562490259500,3.456259521484375,1.448063850402832,0.9030990600585938,1.5295665264129639
1715093562500238600,3.466238525390625,1.1190482378005981,-0.27005863189697266,1.9077821969985962
1715093562510187300,3.476187255859375,-0.2920539975166321,-1.0272140502929688,2.5665016174316406
1715093562520166700,3.486166748046875,-2.0890793800354004,-1.0578956604003906,2.451946973800659
1715093562530145800,3.496145751953125,-3.1983110904693604,-1.0209035873413086,2.1520185470581055
1715093562540094500,3.506094482421875,-3.269230842590332,-0.2933063507080078,1.5423294305801392
1715093562550073900,3.516073974609375,-3.117424726486206,-0.2866525650024414,1.536895751953125
1715093562560053000,3.526052978515625,-2.6594290733337402,-0.8629789352416992,1.7855722904205322
1715093562570001700,3.536001708984375,-1.8701317310333252,-1.951004981994629,2.0146613121032715
1715093562579981000,3.54598095703125,-1.9754983186721802,-2.594127655029297,1.3863823413848877
1715093562589960200,3.555960205078125,-2.555483341217041,-2.095889091491699,1.7266638278961182
1715093562599909000,3.5659091796875,-3.0956757068634033,-1.2210474014282227,2.623690605163574
1715093562609888300,3.57588818359375,-2.5723495483398438,-0.7308826446533203,3.8562259674072266
1715093562619867400,3.585867431640625,-1.6170217990875244,-0.8145561218261719,5.144684791564941
1715093562629816300,3.59581640625,-1.0376811027526855,-1.2302227020263672,6.286088466644287
1715093562639795500,3.60579541015625,-0.6067957878112793,-1.3934803009033203,6.922289848327637
1715093562649774800,3.61577490234375,0.13167095184326172,-1.106919288635254,7.063433647155762
1715093562659723500,3.6257236328125,0.08635175228118896,-0.8873291015625,7.240850448608398
1715093562669688600,3.6356884765625,-0.316880464553833,-0.9912834167480469,8.079568862915039
1715093562679668000,3.64566796875,-1.884208083152771,-1.0984621047973633,8.265985488891602
1715093562689647000,3.655647216796875,-3.899934768676758,-0.968937873840332,7.306974411010742
1715093562699626200,3.665626220703125,-4.815413475036621,-1.9732990264892578,4.912484645843506
1715093562709575200,3.6755751953125,-4.760776996612549,-3.8396711349487305,3.41229248046875
1715093562719554300,3.68555419921875,-3.5592241287231445,-5.1484375,4.342963218688965
1715093562729533400,3.695533447265625,-2.121537208557129,-5.103902816772461,5.6396989822387695
1715093562739512800,3.705512939453125,-1.5236144065856934,-3.5663185119628906,5.529495716094971
1715093562749461500,3.71546142578125,-0.4897761344909668,-1.7038116455078125,4.417904853820801
1715093562759441000,3.72544091796875,-0.4025987982749939,0.5764751434326172,4.419086933135986
1715093562769420000,3.735419921875,-0.14781713485717773,1.7669191360473633,4.743566513061523
1715093562779368700,3.74536865234375,0.16445854306221008,1.2287054061889648,4.916550636291504
1715093562789348000,3.75534814453125,-0.29732388257980347,-1.1873512268066406,2.960679531097412
1715093562799327200,3.7653271484375,0.39378753304481506,-3.8001346588134766,-0.5999972820281982
1715093562809276000,3.77527587890625,1.1108555793762207,-6.89741325378418,-3.9898953437805176
1715093562819255300,3.78525537109375,1.5610415935516357,-10.963800430297852,-6.737136363983154
1715093562829234400,3.795234375,0.8875914812088013,-13.579435348510742,-9.060059547424316
1715093562839183000,3.80518310546875,-0.3777405023574829,-13.480680465698242,-9.063004493713379
1715093562849162500,3.81516259765625,-0.31386303901672363,-11.915817260742188,-8.961965560913086
1715093562859141600,3.8251416015625,-0.6904585361480713,-9.761117935180664,-8.576329231262207
1715093562869090600,3.835090576171875,-0.39708006381988525,-7.738056182861328,-8.501872062683105
1715093562879069700,3.845069580078125,1.0402761697769165,-5.8437347412109375,-7.6748504638671875
1715093562889048800,3.855048828125,3.3621296882629395,-4.392915725708008,-5.279052257537842
1715093562898997800,3.864997802734375,4.018898010253906,-3.1055831909179688,-1.0417022705078125
1715093562908977000,3.874976806640625,4.282306671142578,-1.7820863723754883,4.469399929046631
1715093562918956300,3.884956298828125,2.9130754470825195,-0.7625951766967773,7.286859035491943
1715093562928905000,3.894905029296875,2.4708898067474365,-1.12841796875,4.226323127746582
1715093562938884000,3.904884033203125,1.696624994277954,-1.3146076202392578,-1.1358648538589478
1715093562948832800,3.914832763671875,3.0504586696624756,-0.5134973526000977,-2.5478878021240234
1715093562958812200,3.924812255859375,2.825157403945923,1.1628999710083008,-2.2739171981811523
1715093562968791300,3.934791259765625,3.1056416034698486,2.6489429473876953,-3.540221691131592
1715093562978770700,3.944770751953125,4.966568946838379,3.767274856567383,-4.4529500007629395
1715093562988749800,3.954749755859375,6.3865814208984375,5.105512619018555,-4.724163055419922
1715093562998698500,3.964698486328125,7.191331386566162,6.241545677185059,-5.341163158416748
1715093563008678000,3.974677978515625,7.779963970184326,7.384217262268066,-5.608121395111084
1715093563018657000,3.984656982421875,8.244433403015137,7.874421119689941,-5.990492820739746
1715093563028636400,3.994636474609375,8.28062629699707,7.691192626953125,-5.8310651779174805
1715093563038585000,4.004585205078125,7.822675704956055,7.942996025085449,-5.227701187133789
1715093563048564200,4.014564208984375,7.409280776977539,8.287039756774902,-6.1488542556762695
1715093563058543600,4.024543701171875,6.994546890258789,8.864114761352539,-6.447449684143066
1715093563068492300,4.0344921875,6.292610168457031,9.753857612609863,-6.500565528869629
1715093563078471700,4.0444716796875,5.645529270172119,10.677913665771484,-6.073880195617676
1715093563088450800,4.054450927734375,4.295620918273926,10.438858985900879,-5.4970622062683105
1715093563098399500,4.0643994140625,3.6027235984802246,9.048787117004395,-5.281892776489258
1715093563108379000,4.07437890625,1.964845895767212,7.345434188842773,-4.206847667694092
1715093563118358000,4.08435791015625,-1.2936885356903076,4.868797302246094,-2.9236223697662354
1715093563128306700,4.094306640625,-5.457249164581299,1.4023218154907227,-1.1883677244186401
1715093563138286000,4.1042861328125,-7.7118330001831055,-1.938237190246582,1.6494078636169434
1715093563148265200,4.11426513671875,-10.489435195922852,-5.231027603149414,6.087952613830566
1715093563158214000,4.1242138671875,-10.011004447937012,-9.349761962890625,5.942368984222412
1715093563168193300,4.134193359375,-10.642624855041504,-14.77884292602539,4.155978202819824
1715093563178172400,4.14417236328125,-7.490739822387695,-17.5269775390625,4.742109775543213
1715093563188121000,4.15412109375,-1.728473424911499,-11.65120792388916,5.47452449798584
1715093563198100500,4.1641005859375,-1.3052740097045898,-4.905784606933594,1.9635943174362183
1715093563208079600,4.17407958984375,-4.184420108795166,1.4043512344360352,0.5880428552627563
1715093563218028500,4.184028564453125,-3.6453142166137695,5.803744316101074,0.9178491830825806
1715093563228007700,4.194007568359375,-2.582642078399658,6.4765825271606445,-0.11739850044250488
1715093563237986800,4.20398681640625,-1.3415679931640625,4.6667585372924805,-0.7079968452453613
1715093563247935700,4.213935791015625,2.4903664588928223,0.6588048934936523,-3.0058581829071045
1715093563257915000,4.223914794921875,4.406205177307129,-3.5925378799438477,-3.7959823608398438
1715093563267894300,4.233894287109375,5.801234245300293,-8.781454086303711,-5.6975884437561035
1715093563277873400,4.243873291015625,1.9937665462493896,-12.114578247070312,-10.951883316040039
1715093563287852500,4.2538525390625,-1.2066459655761719,-15.411357879638672,-7.8109331130981445
1715093563297801500,4.263801513671875,5.700211524963379,-13.616046905517578,-2.975912570953369
1715093563307780600,4.273780517578125,3.305666446685791,-6.162700653076172,-2.22340726852417
1715093563317760000,4.283760009765625,4.476284027099609,-1.3024282455444336,-1.3550769090652466
1715093563327708700,4.293708740234375,8.990519523620605,1.0619287490844727,-1.6963262557983398
1715093563337687800,4.303687744140625,10.41252326965332,3.257096290588379,-2.797562837600708
1715093563347667200,4.313667236328125,8.390132904052734,4.6817474365234375,-3.3945865631103516
1715093563357646300,4.323646240234375,5.481471061706543,4.449583053588867,-4.739894866943359
1715093563367595000,4.333594970703125,4.694940567016602,3.1628170013427734,-6.563545227050781
1715093563377574400,4.343574462890625,3.1117305755615234,1.7601871490478516,-7.241140842437744
1715093563387553500,4.353553466796875,1.8502051830291748,1.0515670776367188,-6.8461384773254395
1715093563397502200,4.363502197265625,2.35935115814209,0.21260452270507812,-6.098244667053223
1715093563407481600,4.373481689453125,3.3305611610412598,-0.6796636581420898,-4.326027870178223
1715093563417460700,4.383460693359375,2.0082223415374756,-1.5935726165771484,-2.225827693939209
1715093563427409700,4.39340966796875,0.850733757019043,-2.8087549209594727,-1.1394368410110474
1715093563437388800,4.403388916015625,1.500069499015808,-3.1844091415405273,1.7401256561279297
1715093563447368000,4.413367919921875,1.270789623260498,-3.0014610290527344,3.7087483406066895
1715093563457316900,4.42331689453125,0.29753535985946655,-1.6278953552246094,5.634037494659424
1715093563467296000,4.4332958984375,0.8948246836662292,0.11124229431152344,6.154753684997559
1715093563477244700,4.44324462890625,0.3757806718349457,1.4629859924316406,3.6731464862823486
1715093563487224000,4.45322412109375,-0.23098722100257874,2.5146751403808594,0.16644355654716492
1715093563497203200,4.463203125,-0.19089610874652863,3.5682220458984375,-1.0637818574905396
1715093563507152000,4.47315185546875,-0.4401578903198242,4.18398380279541,-0.6992464065551758
1715093563517131300,4.48313134765625,-0.43215370178222656,4.071565628051758,-1.0624992847442627
1715093563527110400,4.4931103515625,0.17121854424476624,3.208843231201172,-0.7065573930740356
1715093563537089800,4.50308984375,0.6618786454200745,2.1636123657226562,0.05944213271141052
1715093563547038500,4.51303857421875,0.7716986536979675,1.0791797637939453,0.5950583219528198
1715093563557017600,4.523017578125,0.7634051442146301,0.34614086151123047,1.1474015712738037
1715093563566997000,4.5329970703125,-1.3192635774612427,0.3957834243774414,2.1457600593566895
1715093563576976100,4.54297607421875,-3.6419172286987305,-0.23894500732421875,3.233438730239868
1715093563586955500,4.55295556640625,-4.079063415527344,-0.42125415802001953,3.570117712020874
1715093563596904200,4.562904296875,-3.324634075164795,-0.4818706512451172,3.9034013748168945
1715093563606883300,4.57288330078125,-2.9944162368774414,-0.6450700759887695,4.51133918762207
1715093563616862700,4.58286279296875,-3.5919251441955566,-1.257547378540039,5.11991024017334
1715093563626811400,4.592811279296875,-3.591085195541382,-1.2058887481689453,5.394060134887695
1715093563636790500,4.60279052734375,-2.8375954627990723,-0.17840957641601562,5.878900527954102
1715093563646770000,4.61277001953125,-2.466567277908325,0.22268009185791016,5.552229404449463
1715093563656718600,4.622718505859375,-1.5996867418289185,0.1641530990600586,5.174501419067383
1715093563666698000,4.632697998046875,-0.916202187538147,-0.1047821044921875,4.933279991149902
1715093563676677000,4.642677001953125,-0.35976076126098633,-0.46211719512939453,5.375200271606445
1715093563686625800,4.652625732421875,-0.3527153730392456,-0.5634622573852539,6.722113609313965
1715093563696605200,4.662605224609375,-0.9998823404312134,-0.7884588241577148,8.606682777404785
1715093563706584300,4.672584228515625,-1.6448500156402588,-0.9226512908935547,10.713383674621582
1715093563716533000,4.682532958984375,-1.5813778638839722,-0.4639272689819336,11.693612098693848
1715093563726512400,4.692512451171875,-3.1035075187683105,-0.14659690856933594,10.324950218200684
1715093563736491500,4.702491455078125,-4.188033580780029,-1.606186866760254,5.791143417358398
1715093563746440200,4.712440185546875,-3.4641332626342773,-3.038553237915039,3.934645175933838
1715093563756419600,4.722419677734375,-1.5225474834442139,-3.0468692779541016,5.897111415863037
1715093563766398700,4.732398681640625,0.031191110610961914,-2.3768882751464844,6.034677982330322
1715093563776347600,4.74234765625,-0.9499544501304626,-1.9071826934814453,4.285130977630615
1715093563786326800,4.752326904296875,-2.217020034790039,-1.859872817993164,3.308382749557495
1715093563796306000,4.762305908203125,-1.9599870443344116,-2.7450170516967773,2.6949574947357178
1715093563806254800,4.7722548828125,-1.4724395275115967,-4.187904357910156,-0.3703078627586365
1715093563816234000,4.78223388671875,0.41583043336868286,-5.401073455810547,-4.035226821899414
1715093563826213400,4.79221337890625,1.3051443099975586,-8.193683624267578,-5.898487091064453
1715093563836192500,4.802192626953125,1.5706682205200195,-11.241040229797363,-8.067456245422363
1715093563846171600,4.812171630859375,0.8799612522125244,-12.814149856567383,-10.11155891418457
1715093563856120600,4.82212060546875,0.06815218925476074,-12.844680786132812,-10.508551597595215
1715093563866099700,4.832099609375,-0.05584830045700073,-12.208234786987305,-10.029478073120117
1715093563876079000,4.8420791015625,-0.7306565046310425,-10.832730293273926,-9.150778770446777
1715093563886058200,4.852058349609375,-0.8121508359909058,-8.433822631835938,-7.737181663513184
1715093563896007000,4.8620068359375,0.47046875953674316,-6.651545524597168,-6.512949466705322
1715093563905986300,4.871986328125,2.907771587371826,-5.129704475402832,-5.468850612640381
1715093563915965400,4.88196533203125,4.921759128570557,-2.7262535095214844,2.3867621421813965
1715093563925914000,4.8919140625,1.2915120124816895,-1.320455551147461,10.399653434753418
1715093563935893500,4.9018935546875,0.850543737411499,-1.6847772598266602,8.887939453125
1715093563945872600,4.91187255859375,-1.4013174772262573,-2.083308219909668,0.538616418838501
1715093563955821300,4.9218212890625,-1.484158992767334,-1.5075798034667969,-4.004095077514648
1715093563965800700,4.93180078125,-0.19321560859680176,0.2966575622558594,-3.588702440261841
1715093563975779800,4.94177978515625,1.0052289962768555,1.886815071105957,-3.3644521236419678
1715093563985728500,4.951728515625,2.158301830291748,3.546797752380371,-5.037277698516846
1715093563995708000,4.9617080078125,3.363986015319824,5.533322334289551,-5.620584487915039
1715093564005687000,4.97168701171875,4.86984920501709,6.711187362670898,-5.560311794281006
1715093564015636000,4.981635986328125,5.168046951293945,7.402297019958496,-5.897400379180908
1715093564025615000,4.991614990234375,5.959488868713379,8.36047077178955,-5.460759162902832
1715093564035594200,5.00159423828125,6.310002326965332,8.668265342712402,-5.51705265045166
1715093564045543200,5.011543212890625,6.617399215698242,8.371604919433594,-5.588864326477051
1715093564055522300,5.021522216796875,6.938472270965576,8.44364070892334,-5.8555707931518555
1715093564065501700,5.031501708984375,7.068517684936523,8.720483779907227,-6.831018447875977
1715093564075450400,5.041450439453125,6.982000350952148,9.203705787658691,-7.403391361236572
1715093564085429500,5.051429443359375,5.980804443359375,9.582002639770508,-7.122617721557617
1715093564095409000,5.061408935546875,5.055512428283691,10.356314659118652,-6.419170379638672
1715093564105357600,5.071357666015625,4.323400497436523,9.106966972351074,-6.3459014892578125
1715093564115336700,5.081336669921875,2.679149627685547,7.338781356811523,-5.253681182861328
1715093564125316000,5.091316162109375,-0.7822933197021484,5.3667402267456055,-3.0286617279052734
1715093564135295200,5.101295166015625,-5.0730390548706055,2.6954355239868164,-0.6866462230682373
1715093564145244000,5.111243896484375,-8.03111743927002,-0.4717388153076172,1.9975550174713135
1715093564155223300,5.121223388671875,-10.151537895202637,-3.62209415435791,7.466926574707031
1715093564165202400,5.131202392578125,-10.81962776184082,-7.5617218017578125,9.513744354248047
1715093564175181800,5.141181884765625,-10.493331909179688,-14.304524421691895,8.870623588562012
1715093564185130500,5.151130615234375,-8.241785049438477,-18.860225677490234,8.309709548950195
1715093564195109600,5.161109619140625,-2.5856175422668457,-13.518880844116211,6.384101867675781
1715093564205089000,5.171089111328125,-0.40259695053100586,-5.737791061401367,2.8969054222106934
1715093564215037700,5.18103759765625,-3.560112714767456,2.0758047103881836,-0.5281238555908203
1715093564225017000,5.19101708984375,-4.272871017456055,5.941470146179199,-2.3774826526641846
1715093564234996200,5.200996337890625,-2.15730881690979,4.613156318664551,-3.3889219760894775
1715093564244945000,5.21094482421875,1.2329902648925781,1.8270082473754883,-4.415953636169434
1715093564254924300,5.22092431640625,6.1435699462890625,-0.6688451766967773,-6.982491493225098
1715093564264903400,5.2309033203125,3.6431143283843994,-5.124838829040527,-8.864556312561035
1715093564274852000,5.24085205078125,0.4343583583831787,-10.024394035339355,-11.493906021118164
1715093564284831500,5.25083154296875,-1.2285292148590088,-14.485919952392578,-9.611886978149414
1715093564294810600,5.260810546875,8.44934368133545,-17.26428985595703,-1.693833351135254
1715093564304759300,5.27075927734375,7.176400184631348,-10.122172355651855,0.314284086227417
1715093564314738700,5.28073876953125,5.083354949951172,-2.2635440826416016,0.9679696559906006
1715093564324717800,5.2907177734375,6.073868274688721,1.4564409255981445,-0.6989109516143799
1715093564334666800,5.300666748046875,8.14222240447998,3.762539863586426,-2.0889525413513184
1715093564344646000,5.31064599609375,8.323762893676758,5.03398323059082,-3.44415545463562
1715093564354625000,5.320625,5.64807653427124,4.532393455505371,-4.624439239501953
1715093564364574000,5.330573974609375,4.103743553161621,3.8273754119873047,-5.911525249481201
1715093564374553000,5.340552978515625,3.443342924118042,3.2516164779663086,-6.538846015930176
1715093564384532200,5.3505322265625,2.7783825397491455,1.6523008346557617,-7.56498908996582
1715093564394481200,5.360481201171875,1.8816196918487549,-0.35761547088623047,-8.295536041259766
1715093564404460300,5.370460205078125,2.6989097595214844,-2.7658538818359375,-7.657378196716309
1715093564414439700,5.380439697265625,2.4343628883361816,-4.660122871398926,-3.8819832801818848
1715093564424418800,5.390418701171875,1.3389748334884644,-6.127553939819336,-1.5214871168136597
1715093564434398000,5.40039794921875,0.769822359085083,-6.533604621887207,0.3207758665084839
1715093564444347000,5.410346923828125,1.014512062072754,-5.287653923034668,4.269205093383789
1715093564454326000,5.420325927734375,1.8855998516082764,-3.131237030029297,7.098158836364746
1715093564464305400,5.430305419921875,1.202845811843872,-0.6953887939453125,6.39038610458374
1715093564474284500,5.440284423828125,0.29692333936691284,1.980177879333496,4.430124759674072
1715093564484233200,5.450233154296875,0.5567167401313782,4.196748733520508,1.753231406211853
1715093564494212600,5.460212646484375,-0.1788109838962555,5.282630920410156,-0.1817135512828827
1715093564504191700,5.470191650390625,-0.9316331148147583,6.095065116882324,0.1656968742609024
1715093564514140400,5.480140380859375,-1.3194265365600586,5.992598533630371,-0.646568775177002
1715093564524119800,5.490119873046875,-0.15288478136062622,4.662109375,-1.2944445610046387
1715093564534099000,5.500098876953125,1.0646450519561768,3.206695556640625,-0.8531548976898193
1715093564544047600,5.510047607421875,1.0347633361816406,1.797964096069336,-0.03256428241729736
1715093564554027000,5.520027099609375,0.5044212341308594,0.15793800354003906,0.821415901184082
1715093564564006100,5.530006103515625,-1.1921322345733643,-1.669722557067871,0.5942462682723999
1715093564573955000,5.539955078125,-3.0362906455993652,-2.0238962173461914,0.549007773399353
1715093564583934200,5.549934326171875,-5.54649019241333,-0.7361001968383789,1.9990966320037842
1715093564593913300,5.559913330078125,-6.429200172424316,0.33338069915771484,3.494417190551758
1715093564603862300,5.5698623046875,-6.033409595489502,0.5870370864868164,4.6713948249816895
1715093564613841400,5.57984130859375,-4.146060943603516,-0.13118934631347656,5.49012565612793
1715093564623820800,5.58982080078125,-0.9032652378082275,-0.7837820053100586,5.6844072341918945
1715093564633769500,5.59976953125,0.07021462917327881,-0.4870491027832031,7.089853286743164
1715093564643748600,5.60974853515625,-1.0659160614013672,-0.6570920944213867,6.399299621582031
1715093564653728000,5.61972802734375,-1.6088613271713257,-1.0651912689208984,6.3767523765563965
1715093564663676700,5.6296767578125,-1.873531460762024,-1.1288070678710938,6.625165939331055
1715093564673655800,5.63965576171875,-2.515444040298462,-1.1809005737304688,7.225688934326172
1715093564683635200,5.64963525390625,-2.980114459991455,-0.688817024230957,7.387554168701172
1715093564693614300,5.6596142578125,-2.122992515563965,-0.2714700698852539,7.733575344085693
1715093564703593700,5.66959375,-1.034509539604187,0.1505594253540039,9.624507904052734
1715093564713542400,5.67954248046875,-2.7081995010375977,0.5353012084960938,10.833409309387207
1715093564723521500,5.689521484375,-5.002276420593262,-0.35890865325927734,9.084816932678223
1715093564733501000,5.6995009765625,-4.014049530029297,-2.6653614044189453,7.272826671600342
1715093564743480000,5.70947998046875,-2.3275723457336426,-3.9994001388549805,8.311455726623535
1715093564753428700,5.7194287109375,-0.5668220520019531,-3.3451948165893555,8.233274459838867
1715093564763408100,5.729408203125,-2.050764560699463,-2.62298583984375,5.291036605834961
1715093564773387300,5.73938720703125,-3.087761640548706,-1.745438575744629,2.736610174179077
1715093564783336000,5.7493359375,-2.1197524070739746,-1.1859817504882812,1.7201844453811646
1715093564793315300,5.7593154296875,-1.1995387077331543,-2.0877599716186523,0.5672547221183777
1715093564803294500,5.76929443359375,0.0486549437046051,-4.243128776550293,-1.9134396314620972
1715093564813243400,5.779243408203125,1.9090653657913208,-7.5580549240112305,-4.239605903625488
1715093564823222500,5.789222412109375,3.142991781234741,-11.503457069396973,-6.19646692276001
1715093564833201700,5.79920166015625,3.221254348754883,-13.566757202148438,-7.9079909324646
1715093564843150600,5.809150634765625,1.8431477546691895,-13.694082260131836,-7.816199779510498
1715093564853129700,5.819129638671875,0.6172643899917603,-13.11565113067627,-7.471272945404053
1715093564863078400,5.829078369140625,-0.5461086630821228,-12.546607971191406,-7.498467445373535
1715093564873057800,5.839057861328125,-0.3614664077758789,-11.114465713500977,-6.686628341674805
1715093564883037000,5.849036865234375,1.1005146503448486,-9.33051872253418,-4.479181289672852
1715093564892985600,5.858985595703125,2.925316572189331,-7.278980255126953,-2.174220085144043
1715093564902965000,5.868965087890625,3.194882392883301,-4.342528343200684,5.852038860321045
1715093564912944000,5.878944091796875,0.6614086627960205,-3.1246585845947266,12.30883502960205
1715093564922893000,5.88889306640625,-0.439822793006897,-3.158188819885254,7.418544769287109
1715093564932872200,5.8988720703125,-0.9115759134292603,-2.620091438293457,-2.487103223800659
1715093564942851300,5.908851318359375,1.2726649045944214,-0.8239984512329102,-4.441737651824951
1715093564952800300,5.91880029296875,1.7936527729034424,1.123612403869629,-4.41782283782959
1715093564962779400,5.928779296875,2.506510019302368,2.725090980529785,-5.501042366027832
1715093564972758800,5.9387587890625,3.612990140914917,4.162986755371094,-6.333370208740234
1715093564982738000,5.948738037109375,4.298828601837158,5.956623077392578,-6.893284797668457
1715093564992717000,5.958717041015625,5.5574951171875,7.097848892211914,-6.305373191833496
1715093565002666000,5.968666015625,5.814788341522217,7.484136581420898,-6.72852897644043
1715093565012645000,5.97864501953125,5.563992500305176,8.253177642822266,-6.483567237854004
1715093565022624500,5.98862451171875,5.8960442543029785,8.66529655456543,-6.209379196166992
1715093565032603600,5.998603759765625,5.995036602020264,8.244625091552734,-6.197882652282715
1715093565042552300,6.00855224609375,6.409548759460449,8.0346040725708,-7.048181533813477
1715093565052531700,6.01853173828125,7.010013580322266,8.41113567352295,-7.987331390380859
1715093565062510800,6.0285107421875,6.896913051605225,9.141349792480469,-8.74360466003418
1715093565072459500,6.03845947265625,6.090109348297119,9.798074722290039,-8.091450691223145
1715093565082439000,6.04843896484375,5.227012634277344,9.752278327941895,-7.655692100524902
1715093565092418000,6.05841796875,3.8036611080169678,8.5355806350708,-7.703174591064453
1715093565102366700,6.06836669921875,1.55629563331604,6.868500709533691,-5.651826858520508
1715093565112346000,6.07834619140625,-2.522893190383911,4.312386512756348,-2.953089714050293
1715093565122325200,6.0883251953125,-7.056727886199951,0.8683919906616211,0.6693084239959717
1715093565132274000,6.09827392578125,-7.635581016540527,-1.7679157257080078,4.927689552307129
1715093565142253300,6.10825341796875,-9.82686996459961,-3.927056312561035,9.273157119750977
1715093565152232400,6.118232421875,-9.499103546142578,-7.388233184814453,9.386163711547852
1715093565162181400,6.128181396484375,-10.381441116333008,-13.189200401306152,9.014710426330566
1715093565172160500,6.138160400390625,-7.977251052856445,-18.691240310668945,7.978723526000977
1715093565182139600,6.1481396484375,-1.0622766017913818,-14.607097625732422,6.093879699707031
1715093565192088600,6.158088623046875,-0.92258620262146,-5.669390678405762,2.337254047393799
1715093565202067700,6.168067626953125,-3.265307664871216,1.9407758712768555,-0.07811903953552246
1715093565212047000,6.178047119140625,-2.2300243377685547,5.927390098571777,-2.3872292041778564
1715093565221995800,6.187995849609375,-3.6922011375427246,5.53324031829834,-2.1546380519866943
1715093565231975000,6.197974853515625,-5.649432182312012,0.07863426208496094,-2.487689256668091
1715093565241954300,6.207954345703125,0.16330265998840332,-7.602912902832031,-4.288751602172852
1715093565251903000,6.217903076171875,7.697673320770264,-12.12305736541748,-3.9139444828033447
1715093565261882000,6.227882080078125,6.77091121673584,-11.630032539367676,-8.4738187789917
1715093565271861500,6.237861572265625,3.2039287090301514,-8.000432014465332,-7.977388858795166
1715093565281840600,6.247840576171875,7.09859037399292,-3.250424385070801,-2.169992685317993
1715093565291820000,6.257820068359375,3.9424571990966797,0.38562965393066406,-3.349640369415283
1715093565301768700,6.267768798828125,5.030779838562012,3.100104331970215,-1.1278276443481445
1715093565311747800,6.277747802734375,9.231925964355469,4.307043075561523,-0.29308319091796875
1715093565321727200,6.287727294921875,10.456109046936035,4.928226470947266,-1.6763770580291748
1715093565331706400,6.297706298828125,7.296581745147705,4.354681968688965,-3.2624173164367676
1715093565341655000,6.307655029296875,4.141354560852051,3.4107608795166016,-4.314252853393555
1715093565351634400,6.317634521484375,3.219062566757202,2.093125343322754,-5.109073638916016
1715093565361613600,6.327613525390625,3.5284342765808105,-0.043181419372558594,-6.280518054962158
1715093565371562500,6.3375625,3.3112571239471436,-2.077925682067871,-7.044317722320557
1715093565381541600,6.347541748046875,2.276210308074951,-4.14139461517334,-6.180086612701416
1715093565391520800,6.357520751953125,1.1988887786865234,-5.373471260070801,-3.812757968902588
1715093565401469700,6.3674697265625,0.8590850830078125,-5.640110015869141,-2.2627503871917725
1715093565411448800,6.37744873046875,1.5625184774398804,-5.416138648986816,-0.5284324288368225
1715093565421428200,6.38742822265625,1.479814052581787,-4.402487754821777,1.8433895111083984
1715093565431377000,6.397376953125,1.1768667697906494,-2.2770166397094727,5.004596710205078
1715093565441356000,6.40735595703125,1.0967175960540771,-0.3312826156616211,5.8868608474731445
1715093565451335400,6.41733544921875,1.5304144620895386,1.5207805633544922,5.073177337646484
1715093565461284000,6.4272841796875,1.525818943977356,2.86075496673584,2.001370668411255
1715093565471263200,6.43726318359375,0.34795695543289185,3.5165910720825195,-1.4917035102844238
1715093565481242600,6.44724267578125,-0.5473964810371399,4.337693214416504,-2.56942081451416
1715093565491191300,6.45719140625,-1.1286171674728394,4.852730751037598,-2.9279325008392334
1715093565501170400,6.46717041015625,-0.7653497457504272,4.477372169494629,-3.209238290786743
1715093565511149800,6.47714990234375,-0.7193655967712402,3.3330116271972656,-2.7734546661376953
1715093565521098500,6.487098388671875,1.5283265113830566,2.3661746978759766,-2.2068686485290527
1715093565531077600,6.49707763671875,1.8900957107543945,1.594137191772461,-0.9968312978744507
1715093565541057000,6.50705712890625,0.29036998748779297,0.13257503509521484,-0.29316246509552
1715093565551005700,6.517005615234375,-1.711080551147461,-0.8601522445678711,0.43894344568252563
1715093565560985000,6.526985107421875,-3.578634262084961,-1.9668378829956055,1.7011487483978271
1715093565570964200,6.536964111328125,-4.499995231628418,-1.8522891998291016,3.370107650756836
1715093565580943400,6.546943359375,-4.367465496063232,-0.7453699111938477,4.55389928817749
1715093565590922800,6.5569228515625,-4.149713516235352,-0.3499307632446289,6.500711441040039
1715093565600871400,6.566871337890625,-3.282583236694336,-1.328364372253418,6.956489086151123
1715093565610850800,6.576850830078125,-1.0847238302230835,-1.6976003646850586,7.20150899887085
1715093565620830000,6.586829833984375,-1.1064326763153076,-1.437591552734375,6.6854658126831055
1715093565630778600,6.596778564453125,-2.4077529907226562,-0.9731769561767578,6.236125946044922
1715093565640758000,6.606758056640625,-3.01338529586792,-0.7132940292358398,5.768738269805908
1715093565650737200,6.616737060546875,-3.6386115550994873,-0.8425693511962891,5.4640116691589355
1715093565660685800,6.626685791015625,-3.110630989074707,-0.9969015121459961,5.466609954833984
1715093565670665200,6.636665283203125,-1.838085412979126,-0.7232685089111328,6.529517650604248
1715093565680644400,6.646644287109375,-1.0819687843322754,0.179412841796875,8.993191719055176
1715093565690593000,6.656593017578125,-1.0621484518051147,0.4307823181152344,11.788850784301758
1715093565700572400,6.666572509765625,-3.262385368347168,-0.027611732482910156,11.892366409301758
1715093565710551600,6.676551513671875,-5.1558003425598145,-1.4694404602050781,10.095093727111816
1715093565720500500,6.68650048828125,-3.3956289291381836,-3.457217216491699,7.58303689956665
1715093565730479600,6.696479736328125,-0.024968981742858887,-3.46962833404541,7.328604698181152
1715093565740458800,6.706458740234375,0.292773962020874,-2.1378660202026367,5.532560348510742
1715093565750407700,6.71640771484375,-1.5484387874603271,-0.865260124206543,2.2607288360595703
1715093565760386800,6.72638671875,-2.2332890033721924,0.11930179595947266,0.7951844334602356
1715093565770366200,6.7363662109375,-1.7047407627105713,0.22542858123779297,1.001634120941162
1715093565780315000,6.74631494140625,0.7199275493621826,-1.3920259475708008,2.1853830814361572
1715093565790294000,6.7562939453125,1.7180970907211304,-4.433770179748535,0.40249156951904297
1715093565800273400,6.7662734375,1.672982096672058,-7.95551872253418,-2.2968087196350098
1715093565810222000,6.77622216796875,0.40094494819641113,-12.25641918182373,-4.477066993713379
1715093565820201200,6.786201171875,-1.163949966430664,-14.432281494140625,-6.593479633331299
1715093565830180600,6.7961806640625,-1.0072795152664185,-13.827465057373047,-7.105806350708008
1715093565840159700,6.80615966796875,-0.20499247312545776,-13.00386905670166,-8.124713897705078
1715093565850139100,6.81613916015625,0.2822401523590088,-11.968366622924805,-8.644594192504883
1715093565860087800,6.826087890625,1.5542526245117188,-10.791787147521973,-7.882205486297607
1715093565870067000,6.83606689453125,3.9970364570617676,-8.282217025756836,-3.966928720474243
1715093565880046300,6.84604638671875,4.149881839752197,-5.6665191650390625,0.8125128746032715
1715093565890025500,6.856025390625,0.4672483205795288,-3.76230525970459,4.396606922149658
1715093565899974100,6.86597412109375,-0.5316464900970459,-2.1615219116210938,8.27651596069336
1715093565909953500,6.87595361328125,-1.318729281425476,-1.8947572708129883,3.894167900085449
1715093565919932700,6.8859326171875,-0.8820784091949463,-1.8052539825439453,-2.1516311168670654
1715093565929881300,6.89588134765625,1.446936845779419,-0.6079521179199219,-3.68534517288208
1715093565939860700,6.90586083984375,2.5639114379882812,1.323594093322754,-3.457920551300049
1715093565949840000,6.91583984375,2.3850133419036865,2.6651763916015625,-4.532766342163086
1715093565959788800,6.925788818359375,2.733074188232422,3.876021385192871,-5.643117904663086
1715093565969768000,6.935767822265625,4.04551887512207,5.314830780029297,-5.889754295349121
1715093565979747000,6.9457470703125,4.972686767578125,6.2641096115112305,-5.938903331756592
1715093565989696000,6.955696044921875,5.312612533569336,6.748063087463379,-5.972405433654785
1715093565999675100,6.965675048828125,5.818441390991211,7.349715232849121,-6.087111473083496
1715093566009654500,6.975654541015625,6.796224594116211,7.774794578552246,-6.267398834228516
1715093566019603200,6.985603271484375,7.269046306610107,7.999969482421875,-6.651202201843262
1715093566029582300,6.995582275390625,7.6719136238098145,8.065360069274902,-7.299372673034668
1715093566039561700,7.005561767578125,7.831406593322754,8.945281982421875,-7.850135803222656
1715093566049510400,7.015510498046875,7.093478202819824,9.888474464416504,-8.42992877960205
1715093566059489500,7.025489501953125,5.893161773681641,10.66015911102295,-8.591171264648438
1715093566069469000,7.035468994140625,4.68108606338501,10.161861419677734,-8.55481243133545
1715093566079417600,7.04541748046875,2.5926125049591064,8.306719779968262,-7.317483425140381
1715093566089396700,7.055396728515625,-1.1689836978912354,6.1657257080078125,-4.588438034057617
1715093566099376000,7.065376220703125,-6.016792297363281,3.3224658966064453,-1.4325764179229736
1715093566109324800,7.07532470703125,-8.509673118591309,-0.25665760040283203,2.678280830383301
1715093566119304200,7.08530419921875,-6.813070297241211,-3.5256099700927734,7.679780960083008
1715093566129283300,7.095283447265625,-9.76576042175293,-6.850160598754883,11.771072387695312
1715093566139262500,7.105262451171875,-9.165950775146484,-12.44681453704834,9.48631763458252
1715093566149241900,7.115241943359375,-9.363285064697266,-18.393768310546875,6.975623607635498
1715093566159190500,7.1251904296875,-2.8228423595428467,-15.85411262512207,6.545721054077148
1715093566169170000,7.135169921875,-0.2998964786529541,-7.74308967590332,4.356960296630859
1715093566179149000,7.145149169921875,-3.181150197982788,-0.5121726989746094,0.9505977630615234
1715093566189097700,7.15509765625,-3.354276418685913,4.5013628005981445,-3.5480761528015137
1715093566199077000,7.1650771484375,-3.7367632389068604,6.0428266525268555,-4.912116050720215
1715093566209056300,7.17505615234375,-5.715005874633789,1.8152055740356445,-4.170705318450928
1715093566219005000,7.1850048828125,-1.2695257663726807,-3.9957199096679688,-4.565578460693359
1715093566228984300,7.194984375,4.503156661987305,-6.3701629638671875,-4.624466896057129
1715093566238963500,7.20496337890625,5.028021812438965,-7.919870376586914,-6.358382225036621
1715093566248912100,7.214912109375,2.160273790359497,-8.058808326721191,-9.1084566116333
1715093566258891500,7.2248916015625,6.3652801513671875,-6.669572830200195,-4.490048885345459
1715093566268870700,7.23487060546875,8.64966869354248,-4.196808815002441,-4.262606620788574
1715093566278819300,7.2448193359375,7.995360374450684,-1.694615364074707,-4.292605400085449
1715093566288798700,7.254798828125,8.281761169433594,0.36179542541503906,-2.5768306255340576
1715093566298777900,7.26477783203125,8.163138389587402,1.8931770324707031,-2.6434707641601562
1715093566308726800,7.274726806640625,7.771797180175781,2.6758241653442383,-2.9610066413879395
1715093566318706000,7.284705810546875,5.342318058013916,2.4283952713012695,-2.730374336242676
1715093566328685000,7.29468505859375,4.3187971115112305,1.0268535614013672,-3.628865957260132
1715093566338634000,7.304634033203125,4.230874538421631,-0.5308265686035156,-4.829712867736816
1715093566348613000,7.314613037109375,3.7650017738342285,-1.1707115173339844,-4.968260288238525
1715093566358592500,7.324592529296875,2.168989896774292,-1.431715965270996,-4.672083377838135
1715093566368541200,7.334541259765625,0.7476915121078491,-2.3220577239990234,-3.892456531524658
1715093566378520300,7.344520263671875,0.6994037628173828,-3.1379127502441406,-2.3069262504577637
1715093566388499700,7.354499755859375,1.0729444026947021,-3.166635513305664,-0.5373029112815857
1715093566398478800,7.364478759765625,1.5376445055007935,-2.462085723876953,1.983668327331543
1715093566408427500,7.374427490234375,1.1511619091033936,-1.2072057723999023,3.0448222160339355
1715093566418407000,7.384406982421875,1.2805519104003906,0.14542388916015625,4.486085414886475
1715093566428386000,7.394385986328125,1.3571269512176514,1.558131217956543,4.3274054527282715
1715093566438365400,7.404365478515625,0.5176987648010254,2.2629098892211914,2.954963207244873
1715093566448344600,7.414344482421875,-0.492185115814209,2.5876293182373047,0.5646008253097534
1715093566458293200,7.424293212890625,-0.5830028653144836,3.2389326095581055,-1.284257173538208
1715093566468272600,7.434272705078125,-0.11197316646575928,3.6310176849365234,-1.898385763168335
1715093566478251800,7.444251708984375,0.7512957453727722,3.4436655044555664,-1.6840250492095947
1715093566488200400,7.454200439453125,1.7403907775878906,3.018798828125,-1.8435354232788086
1715093566498179800,7.464179931640625,1.2036447525024414,3.077324867248535,-0.2865944802761078
1715093566508159000,7.474158935546875,0.675923228263855,2.192091941833496,0.06437608599662781
1715093566518108000,7.48410791015625,-0.1613793969154358,1.138808250427246,0.3324247896671295
1715093566528087000,7.494087158203125,-1.835955023765564,-0.16285991668701172,1.4719979763031006
1715093566538066200,7.504066162109375,-4.553871154785156,-0.5416393280029297,2.933375835418701
1715093566548015000,7.51401513671875,-5.847026348114014,-0.6440725326538086,4.3965840339660645
1715093566557994200,7.523994140625,-5.654904842376709,-0.8786468505859375,5.639193058013916
1715093566567973600,7.5339736328125,-4.4084696769714355,-1.6206016540527344,6.98856258392334
1715093566577922300,7.54392236328125,-2.387026786804199,-2.8137168884277344,7.190121650695801
1715093566587901400,7.5539013671875,-0.8457682132720947,-2.8230810165405273,6.353058815002441
1715093566597880800,7.563880859375,-0.6483509540557861,-2.1723508834838867,5.273085594177246
1715093566607829500,7.57382958984375,-2.0510377883911133,-1.5681266784667969,4.809632301330566
1715093566617808600,7.58380859375,-2.7802796363830566,-1.202347755432129,4.423457145690918
1715093566627788000,7.5937880859375,-2.2847023010253906,-0.9291248321533203,4.587982177734375
1715093566637736700,7.60373681640625,-1.4895684719085693,-0.5011262893676758,5.430590629577637
1715093566647715800,7.6137158203125,-1.1607389450073242,-0.4647207260131836,7.785838603973389
1715093566657695200,7.6236953125,-0.8573521375656128,-1.2089290618896484,10.058159828186035
1715093566667644000,7.633643798828125,-1.6401416063308716,-1.4008378982543945,10.900308609008789
1715093566677623000,7.643623046875,-3.80930495262146,-2.0005226135253906,8.975963592529297
1715093566687602400,7.6536025390625,-4.585235118865967,-3.225139617919922,4.977192401885986
1715093566697581600,7.66358154296875,-4.2366509437561035,-3.981411933898926,4.250332355499268
1715093566707561000,7.67356103515625,-2.521484136581421,-4.025058746337891,6.462915897369385
1715093566717509600,7.683509521484375,-1.6447473764419556,-2.952838897705078,6.008430480957031
1715093566727488800,7.69348876953125,-2.0163931846618652,-1.0085344314575195,4.56906270980835
1715093566737468200,7.70346826171875,-2.598867416381836,0.33240699768066406,3.530545949935913
1715093566747416800,7.713416748046875,-1.9058067798614502,0.888676643371582,3.628159999847412
1715093566757396200,7.723396240234375,-0.4172772765159607,0.5306129455566406,3.427353858947754
1715093566767375400,7.733375244140625,1.3899767398834229,-0.7433309555053711,0.2461807131767273
1715093566777354500,7.7433544921875,2.8761990070343018,-3.4138269424438477,-3.229642868041992
1715093566787303400,7.753303466796875,2.3091561794281006,-7.563884735107422,-4.702931880950928
1715093566797282600,7.763282470703125,2.257413148880005,-11.497320175170898,-5.198523998260498
1715093566807262000,7.773261962890625,1.7851099967956543,-13.215837478637695,-5.707461357116699
1715093566817210600,7.783210693359375,0.3998645544052124,-14.76438045501709,-7.35727071762085
1715093566827189800,7.793189697265625,0.01467221975326538,-15.588773727416992,-9.209922790527344
1715093566837169200,7.803169189453125,-0.6938955783843994,-13.15023422241211,-8.571249961853027
1715093566847117800,7.813117919921875,0.19638323783874512,-8.514145851135254,-5.914299011230469
1715093566857097000,7.823096923828125,2.847079038619995,-5.299241065979004,-3.798908233642578
1715093566867076400,7.833076416015625,2.4881949424743652,-3.1624584197998047,-0.5687928199768066
1715093566877025000,7.84302490234375,0.4249863624572754,-1.057901382446289,5.38723087310791
1715093566887004200,7.853004150390625,0.1169811487197876,0.6383914947509766,7.914497375488281
1715093566896983600,7.862983642578125,0.19826889038085938,0.33669090270996094,1.896712064743042
1715093566906932200,7.87293212890625,-0.04557979106903076,0.5552139282226562,-3.1657638549804688
1715093566916911600,7.88291162109375,1.5822131633758545,1.6598453521728516,-3.477708101272583
1715093566926890800,7.892890869140625,1.538785457611084,3.235494613647461,-3.191291093826294
1715093566936839400,7.90283935546875,2.1284103393554688,4.618535995483398,-4.6769232749938965
1715093566946818800,7.91281884765625,4.006229400634766,6.018852233886719,-4.343667030334473
1715093566956798000,7.9227978515625,5.571460723876953,6.756884574890137,-4.677837371826172
1715093566966746600,7.93274658203125,6.0227251052856445,7.239947319030762,-5.7711992263793945
1715093566976726000,7.94272607421875,6.167684078216553,7.561178207397461,-5.662996768951416
1715093566986705200,7.952705078125,6.319421291351318,7.277500152587891,-6.178946495056152
1715093566996684500,7.9626845703125,6.59007453918457,6.799551963806152,-6.032176971435547
1715093567006633200,7.97263330078125,6.955053806304932,6.593428611755371,-5.4994049072265625
1715093567016612400,7.9826123046875,7.385444164276123,6.529034614562988,-5.922857284545898
1715093567026591700,7.992591796875,7.34511661529541,6.609560012817383,-6.8410491943359375
1715093567036571000,8.00257080078125,5.854007244110107,7.610478401184082,-6.849125862121582
1715093567046519600,8.01251953125,4.730615615844727,7.860894203186035,-7.234568119049072
1715093567056499000,8.0224990234375,2.9203126430511475,7.097912788391113,-6.700758934020996
1715093567066478000,8.03247802734375,0.23433399200439453,5.576107025146484,-5.7741546630859375
1715093567076426800,8.0424267578125,-2.944789409637451,3.5284690856933594,-3.3468539714813232
1715093567086406100,8.05240625,-7.031184196472168,0.31267642974853516,-0.47102999687194824
1715093567096385300,8.06238525390625,-9.423105239868164,-2.9614105224609375,3.480980634689331
1715093567106334200,8.072334228515626,-11.361368179321289,-5.557684898376465,9.246553421020508
1715093567116313300,8.082313232421875,-8.72859001159668,-8.056344032287598,12.761787414550781
1715093567126292500,8.09229248046875,-7.726743221282959,-9.609933853149414,9.157232284545898
1715093567136241400,8.102241455078126,-6.087771415710449,-10.871638298034668,4.916163921356201
1715093567146220500,8.112220458984375,-2.7058815956115723,-9.53975772857666,2.0309090614318848
1715093567156200000,8.122199951171876,-2.7030885219573975,-5.466075897216797,-0.8450417518615723
1715093567166148600,8.132148681640626,-3.8304803371429443,0.732661247253418,-2.154110908508301
1715093567176127700,8.142127685546875,-3.7939505577087402,6.324772834777832,-3.5301246643066406
1715093567186107100,8.152107177734376,-2.2077131271362305,9.080657005310059,-4.3361406326293945
1715093567196055800,8.162055908203126,-0.8887250423431396,7.336435317993164,-2.820054054260254
1715093567206035000,8.172034912109375,-0.26769113540649414,3.175384521484375,-3.030730724334717
1715093567216014300,8.182014404296876,0.32511472702026367,-2.457592010498047,-4.564276695251465
1715093567225963000,8.191962890625,2.1437759399414062,-9.311594009399414,-4.696277618408203
1715093567235942100,8.201942138671875,4.581682205200195,-14.880505561828613,-3.7453956604003906
1715093567245921500,8.211921630859376,1.8510661125183105,-17.000534057617188,-5.119510650634766
1715093567255870200,8.2218701171875,9.465481758117676,-16.18844985961914,0.07345890998840332
1715093567265849600,8.231849609375,7.696313858032227,-9.487540245056152,0.9083907604217529
1715093567275828700,8.241828857421876,1.184910774230957,-0.9063644409179688,-0.32157349586486816
1715093567285807900,8.251807861328125,4.392484664916992,2.8923301696777344,-1.9255197048187256
1715093567295787300,8.261787353515626,7.337564468383789,4.949134826660156,-2.8464860916137695
1715093567305736000,8.27173583984375,8.867609977722168,6.536537170410156,-2.664931058883667
1715093567315715300,8.28171533203125,7.221100807189941,6.162566184997559,-3.580812931060791
1715093567325694500,8.291694580078126,4.989379405975342,5.909023284912109,-3.9809489250183105
1715093567335673600,8.301673583984375,4.025631904602051,4.550230026245117,-5.384693145751953
1715093567345622500,8.31162255859375,2.3792948722839355,3.407191276550293,-5.649085998535156
1715093567355601700,8.3216015625,1.8061752319335938,2.1685619354248047,-5.63102912902832
1715093567365581000,8.3315810546875,1.0398664474487305,-0.6772022247314453,-4.847988605499268
1715093567375529700,8.34152978515625,-0.9251041412353516,-3.8435850143432617,-3.575798749923706
1715093567385508900,8.3515087890625,0.22783803939819336,-5.254037857055664,-2.060403823852539
1715093567395488300,8.36148828125,1.611826777458191,-5.040705680847168,-0.14804553985595703
1715093567405437000,8.37143701171875,2.8915438652038574,-4.250299453735352,2.9121546745300293
1715093567415416000,8.381416015625,2.7889304161071777,-2.0131187438964844,5.841685771942139
1715093567425395500,8.3913955078125,0.9597734808921814,0.3681316375732422,5.564235210418701
1715093567435344100,8.40134423828125,0.17225489020347595,2.22635555267334,1.6508877277374268
1715093567445323300,8.4113232421875,-0.8667774200439453,3.2565059661865234,-1.9752308130264282
1715093567455302700,8.421302734375,-0.44755494594573975,4.089178085327148,-1.6287987232208252
1715093567465251300,8.431251220703125,1.1140220165252686,4.366540908813477,-1.230818748474121
1715093567475230500,8.44123046875,2.3007419109344482,3.6979494094848633,-1.512203574180603
1715093567485209900,8.4512099609375,2.8642027378082275,2.9849252700805664,-0.37526997923851013
1715093567495158500,8.461158447265625,2.7531604766845703,2.5036115646362305,1.5382617712020874
1715093567505138000,8.471137939453126,1.6165657043457031,1.3192157745361328,2.207763671875
1715093567515117000,8.481116943359375,-0.49945420026779175,0.09517669677734375,2.3493850231170654
1715093567525065700,8.491065673828125,-2.3636016845703125,-1.0580053329467773,2.822436809539795
1715093567535045000,8.501045166015626,-2.8713550567626953,-1.4552698135375977,2.5967068672180176
1715093567545024300,8.511024169921875,-3.5198612213134766,-1.506866455078125,2.763911724090576
1715093567555003600,8.521003662109376,-4.922465801239014,-1.6872882843017578,4.018686294555664
1715093567564952300,8.530952392578126,-6.341579437255859,-2.136359214782715,5.580849647521973
1715093567574931500,8.540931396484375,-5.563142776489258,-2.3573408126831055,6.789299964904785
1715093567584910800,8.550910888671876,-2.622647523880005,-2.3887319564819336,8.232627868652344
1715093567594890000,8.560889892578125,-1.4730510711669922,-1.8914060592651367,8.203709602355957
1715093567604869400,8.570869384765626,-2.602729320526123,-1.756124496459961,6.209156036376953
1715093567614818000,8.580818115234376,-2.3659534454345703,-1.6499404907226562,4.320405960083008
1715093567624797200,8.590797119140625,-1.0624001026153564,-1.1236677169799805,4.067657947540283
1715093567634745900,8.600745849609375,-0.6008355617523193,-0.1070852279663086,5.878978729248047
1715093567644725200,8.610725341796876,-1.3317382335662842,0.5810518264770508,8.04227066040039
1715093567654704400,8.620704345703125,-1.8298065662384033,0.2653188705444336,10.75599479675293
1715093567664653300,8.6306533203125,-2.506796360015869,-0.3261880874633789,11.405767440795898
1715093567674632400,8.640632568359376,-3.2372632026672363,-1.4381608963012695,9.431729316711426
1715093567684611600,8.650611572265625,-1.9062391519546509,-3.244448661804199,5.047149181365967
1715093567694560500,8.660560546875,-1.3952715396881104,-4.425295829772949,4.233673572540283
1715093567704539600,8.67053955078125,-1.3012340068817139,-4.054686546325684,5.1253275871276855
1715093567714519000,8.68051904296875,-2.5248780250549316,-2.476229667663574,4.846175193786621
1715093567724467700,8.6904677734375,-2.274927854537964,-0.8508462905883789,4.330606460571289
1715093567734446800,8.70044677734375,-2.8593411445617676,0.1213827133178711,3.624030113220215
1715093567744426200,8.71042626953125,-2.7225189208984375,-0.051360130310058594,4.245553970336914
1715093567754375000,8.720375,-0.9055124521255493,-2.1912288665771484,5.129434108734131
1715093567764354000,8.73035400390625,0.6039796471595764,-5.385321617126465,0.9251717329025269
1715093567774333400,8.74033349609375,1.8793821334838867,-8.146590232849121,-5.974103927612305
1715093567784282000,8.7502822265625,1.0834565162658691,-10.434471130371094,-6.745489120483398
1715093567794261200,8.76026123046875,0.9352514743804932,-11.682610511779785,-6.780428886413574
1715093567804240600,8.77024072265625,-0.13963329792022705,-10.658098220825195,-6.252354621887207
1715093567814189300,8.780189208984375,-0.9337542057037354,-9.945555686950684,-6.272121429443359
1715093567824168700,8.790168701171876,-0.5294477939605713,-9.778346061706543,-7.080992221832275
1715093567834147800,8.80014794921875,0.5040998458862305,-9.277634620666504,-7.860501289367676
1715093567844127000,8.810126953125,2.630362033843994,-7.575564384460449,-6.475485324859619
1715093567854106400,8.8201064453125,4.268341064453125,-5.210386276245117,-4.653108596801758
1715093567864055000,8.830054931640625,5.301616668701172,-3.3486757278442383,-1.950864553451538
1715093567874034200,8.8400341796875,3.4394006729125977,-1.7855777740478516,3.0109238624572754
1715093567884013600,8.850013671875,-1.0846078395843506,0.04770851135253906,4.729400634765625
1715093567893992700,8.85999267578125,-0.5535497665405273,-0.11146354675292969,1.1400892734527588
1715093567903941600,8.869941650390626,0.7275660037994385,0.009078025817871094,-2.181762933731079
1715093567913920800,8.879920654296875,0.8440089225769043,1.2292795181274414,-2.340869665145874
1715093567923900000,8.88989990234375,1.1280372142791748,2.4235782623291016,-2.440755605697632
1715093567933848800,8.899848876953126,2.045659065246582,3.670553207397461,-3.0934929847717285
1715093567943828000,8.909827880859375,3.542262077331543,4.623964309692383,-4.357625961303711
1715093567953807400,8.919807373046876,4.578771591186523,5.683163642883301,-5.346737861633301
1715093567963756000,8.929756103515626,5.788804054260254,7.077070236206055,-5.418418884277344
1715093567973735200,8.939735107421875,6.308706283569336,8.01111125946045,-5.729538917541504
1715093567983714600,8.949714599609376,6.409891128540039,7.540438652038574,-5.560525417327881
1715093567993663200,8.959663330078126,6.4026312828063965,6.784724235534668,-5.1664719581604
1715093568003642400,8.969642333984375,6.773155689239502,6.359719276428223,-5.266750335693359
1715093568013621800,8.979621826171876,7.216357707977295,6.532675743103027,-5.808792591094971
1715093568023570400,8.9895703125,7.27262544631958,6.904092788696289,-6.411970138549805
1715093568033549600,8.999549560546875,6.348257064819336,7.300900459289551,-6.634063720703125
1715093568043529000,9.009529052734376,5.219888210296631,7.940533638000488,-6.07239294052124
1715093568053477600,9.0194775390625,4.332303047180176,8.376211166381836,-5.963688850402832
1715093568063457000,9.02945703125,2.4449851512908936,7.737706184387207,-5.860770225524902
1715093568073436200,9.039436279296876,-0.5489938259124756,6.474187850952148,-5.257654190063477
1715093568083384800,9.049384765625,-4.867349624633789,4.292413711547852,-3.7565970420837402
1715093568093364200,9.0593642578125,-7.194965362548828,1.067774772644043,-1.4869883060455322
1715093568103343400,9.06934326171875,-9.100616455078125,-2.591000556945801,2.918999433517456
1715093568113292000,9.0792919921875,-11.962091445922852,-7.24485969543457,9.105060577392578
1715093568123271400,9.089271484375,-11.591455459594727,-13.397791862487793,9.98690414428711
1715093568133250600,9.09925048828125,-9.146903991699219,-19.482772827148438,9.120688438415527
1715093568143230000,9.10922998046875,-1.7017936706542969,-18.532453536987305,7.225942611694336
1715093568153209000,9.119208984375,0.5896663665771484,-10.31081771850586,2.4999828338623047
1715093568163157800,9.12915771484375,-3.4709980487823486,-1.7021217346191406,-0.608673095703125
1715093568173137200,9.13913720703125,-4.35772180557251,5.49045467376709,-2.3445069789886475
1715093568183116300,9.1491162109375,-2.9198904037475586,8.972909927368164,-4.450315475463867
1715093568193095700,9.159095703125,-3.9032232761383057,7.531308174133301,-3.2479746341705322
1715093568203044400,9.16904443359375,-3.983351230621338,2.550050735473633,-2.6572251319885254
1715093568213023500,9.1790234375,2.238086700439453,-1.820591926574707,-4.219514846801758
1715093568223003000,9.1890029296875,4.906705856323242,-5.255812644958496,-4.563592910766602
1715093568232951600,9.19895166015625,3.0975353717803955,-9.658790588378906,-6.249873161315918
1715093568242930700,9.2089306640625,1.0750737190246582,-10.773902893066406,-6.675494194030762
1715093568252910000,9.21891015625,8.358074188232422,-9.387151718139648,-1.6761119365692139
1715093568262858800,9.228858642578125,7.574246406555176,-5.920489311218262,-2.4961018562316895
1715093568272838000,9.238837890625,5.664406776428223,-2.2423830032348633,-2.9965291023254395
1715093568282817300,9.2488173828125,6.448966979980469,0.5128107070922852,-2.34437894821167
1715093568292766000,9.258765869140625,7.042611122131348,2.2457056045532227,-2.690023183822632
1715093568302745300,9.268745361328126,7.2919511795043945,3.5733251571655273,-2.639720916748047
1715093568312724500,9.278724365234375,5.666723251342773,3.191512107849121,-3.3779797554016113
1715093568322673200,9.288673095703125,4.21097469329834,1.9969301223754883,-4.356258392333984
1715093568332652500,9.298652587890626,3.5386338233947754,0.42063045501708984,-5.8738274574279785
1715093568342631700,9.308631591796875,2.971062660217285,-0.2748870849609375,-5.639865875244141
1715093568352580400,9.318580322265625,1.6176766157150269,-0.6945772171020508,-4.68544864654541
1715093568362559700,9.328559814453126,0.9022778272628784,-1.7778511047363281,-3.7542343139648438
1715093568372539000,9.338538818359375,0.6375076770782471,-2.8157262802124023,-2.087418794631958
1715093568382487600,9.348487548828125,0.7078460454940796,-2.778411865234375,0.05557847023010254
1715093568392467000,9.358467041015626,1.206721305847168,-2.262716293334961,1.1260226964950562
1715093568402446000,9.368446044921875,1.5758275985717773,-1.724863052368164,2.100283622741699
1715093568412425500,9.378425537109376,1.9350260496139526,-0.5018529891967773,3.7733278274536133
1715093568422374100,9.3883740234375,1.4158289432525635,1.0368280410766602,4.334578990936279
1715093568432353300,9.398353271484375,0.6016989946365356,1.6688013076782227,3.444042682647705
1715093568442332700,9.408332763671876,0.5825543403625488,2.252981185913086,1.54841947555542
1715093568452311800,9.418311767578125,0.3328772187232971,2.860319137573242,-0.16368037462234497
1715093568462260700,9.4282607421875,-0.35541656613349915,3.426466941833496,-0.4368419647216797
1715093568472239900,9.438239990234376,0.322968989610672,3.578555107116699,0.11295869946479797
1715093568482219000,9.448218994140625,1.3626610040664673,3.395918846130371,0.5233533978462219
1715093568492168000,9.45816796875,1.9798179864883423,2.446352958679199,0.8130143880844116
1715093568502147000,9.46814697265625,2.1120784282684326,1.2064027786254883,0.5849884748458862
1715093568512126500,9.47812646484375,2.170132875442505,0.5737638473510742,0.6044106483459473
1715093568522075100,9.4880751953125,0.5721299648284912,-0.07205486297607422,1.3285272121429443
1715093568532054300,9.49805419921875,-1.995244026184082,-0.8429498672485352,1.8425068855285645
1715093568542033700,9.50803369140625,-4.31696891784668,-0.9345769882202148,2.194258213043213
1715093568551982300,9.517982421875,-5.629227638244629,-0.9317655563354492,2.754762649536133
1715093568561961500,9.52796142578125,-6.00083065032959,-0.6872663497924805,4.064609527587891
1715093568571940900,9.53794091796875,-5.650632381439209,-0.6000490188598633,4.943028450012207
1715093568581889500,9.5478896484375,-3.732605457305908,-1.4130659103393555,5.5548272132873535
1715093568591868700,9.55786865234375,-1.6938366889953613,-2.010385513305664,6.9895548820495605
1715093568601848000,9.56784814453125,-0.5959174633026123,-2.102764129638672,7.238908767700195
1715093568611796700,9.577796630859375,-0.20857298374176025,-1.632075309753418,7.491352558135986
1715093568621776000,9.58777587890625,-1.7892608642578125,-1.2737293243408203,7.874327659606934
1715093568631755300,9.59775537109375,-2.559476375579834,-0.9694347381591797,7.284916400909424
1715093568641704000,9.607703857421875,-3.4201674461364746,-0.8781604766845703,6.763148784637451
1715093568651683300,9.617683349609376,-3.541750907897949,-0.786259651184082,5.801411151885986
1715093568661662500,9.627662353515625,-2.8953585624694824,-0.721405029296875,5.914182186126709
1715093568671611100,9.637611083984375,-1.606321930885315,-0.4497671127319336,7.418486595153809
1715093568681590500,9.647590576171876,-2.9602484703063965,-0.8453378677368164,7.7440290451049805
1715093568691569700,9.657569580078125,-4.738504409790039,-2.244884490966797,5.095779895782471
1715093568701549000,9.667549072265626,-4.2867255210876465,-4.3086700439453125,3.152099609375
1715093568711528200,9.677528076171875,-2.409165143966675,-5.403225898742676,4.6142473220825195
1715093568721476900,9.687476806640625,-2.2553200721740723,-4.3521318435668945,5.972363471984863
1715093568731456300,9.697456298828126,-2.361173152923584,-2.2310094833374023,5.004950046539307
1715093568741435400,9.707435302734375,-1.7794581651687622,-0.3041667938232422,4.064574241638184
1715093568751384000,9.717384033203125,-1.1261696815490723,1.1169795989990234,3.3895020484924316
1715093568761363500,9.727363525390626,-0.8070204257965088,2.0043821334838867,3.4206531047821045
1715093568771342600,9.737342529296875,-0.15578746795654297,1.611302375793457,5.052424430847168
1715093568781322000,9.747322021484376,1.6904056072235107,-0.68426513671875,6.860151767730713
1715093568791270700,9.757270751953126,2.572934627532959,-4.3437700271606445,2.4857568740844727
1715093568801249800,9.767249755859375,3.829251289367676,-7.583733558654785,-2.6508710384368896
1715093568811229200,9.777229248046876,3.2217960357666016,-9.824604034423828,-3.7936134338378906
1715093568821177900,9.787177734375,3.0861902236938477,-10.731670379638672,-4.154562950134277
1715093568831157000,9.797156982421875,2.8212223052978516,-12.129223823547363,-5.523234844207764
1715093568841136400,9.807136474609376,1.5441957712173462,-13.666372299194336,-7.360128402709961
1715093568851085000,9.8170849609375,0.08140301704406738,-13.422224044799805,-7.968191623687744
1715093568861064400,9.827064453125,0.022272229194641113,-9.97165298461914,-5.804955005645752
1715093568871043600,9.837043701171876,2.455503463745117,-6.46435546875,-2.005523204803467
1715093568880992300,9.8469921875,2.6668944358825684,-4.260015487670898,-0.21183407306671143
1715093568890971600,9.8569716796875,2.6988863945007324,-3.0338640213012695,4.368625164031982
1715093568900950800,9.86695068359375,0.01920151710510254,-0.8496074676513672,6.356879234313965
1715093568910899500,9.8768994140625,1.7365913391113281,0.2357330322265625,3.912001848220825
1715093568920878800,9.88687890625,2.826356887817383,0.44411182403564453,-0.19156169891357422
1715093568930858000,9.89685791015625,1.3764660358428955,0.6656732559204102,-4.489599227905273
1715093568940806700,9.906806640625,0.9303150177001953,1.8362445831298828,-4.827281951904297
1715093568950786000,9.9167861328125,2.0029211044311523,2.9497413635253906,-4.614138603210449
1715093568960765200,9.92676513671875,3.5605709552764893,4.663409233093262,-4.530181884765625
1715093568970714000,9.936714111328126,4.456689834594727,5.884127616882324,-5.255847930908203
1715093568980693200,9.946693359375,4.93583869934082,6.599567413330078,-5.57482385635376
1715093568990672400,9.95667236328125,5.23634147644043,6.655524253845215,-5.887350559234619
1715093569000651800,9.96665185546875,5.273749351501465,6.021421432495117,-6.568852424621582
1715093569010631000,9.976630859375,6.370623588562012,6.6414794921875,-6.016412734985352
1715093569020579600,9.98657958984375,7.430472373962402,6.724630355834961,-6.7194390296936035
1715093569030559000,9.99655908203125,7.432833194732666,6.492121696472168,-7.919000625610352
1715093569040538000,10.0065380859375,7.0229034423828125,6.4107770919799805,-9.157474517822266
1715093569050487000,10.016487060546876,5.807297229766846,6.75241756439209,-8.974053382873535
1715093569060466200,10.026466064453125,5.041653633117676,7.698392868041992,-8.496210098266602
1715093569070445300,10.0364453125,4.003377437591553,7.412433624267578,-8.530008316040039
1715093569080394200,10.046394287109376,1.6825215816497803,6.5403242111206055,-8.526605606079102
1715093569090373400,10.056373291015625,-0.5310804843902588,5.376026153564453,-7.094128608703613
1715093569100352800,10.066352783203126,-3.0345041751861572,3.4715003967285156,-3.979789972305298
1715093569110301400,10.076301513671876,-5.0917582511901855,1.0949029922485352,0.22288036346435547
1715093569120280600,10.086280517578125,-6.173470497131348,-1.7915496826171875,4.40364933013916
1715093569130260000,10.096260009765626,-9.43528938293457,-4.775626182556152,8.472932815551758
1715093569140208600,10.106208740234376,-10.27321720123291,-7.841568946838379,12.339056015014648
1715093569150187800,10.116187744140625,-8.886884689331055,-12.382241249084473,11.039511680603027
1715093569160167200,10.126167236328126,-6.970636367797852,-17.399215698242188,10.490406036376953
1715093569170115800,10.13611572265625,-0.5716264247894287,-13.752472877502441,8.854823112487793
1715093569180095000,10.146094970703125,-0.3626270294189453,-6.1982011795043945,4.699188232421875
1715093569190074400,10.156074462890626,-3.18611478805542,-0.3134469985961914,1.242889642715454
1715093569200023000,10.16602294921875,-2.564531087875366,3.8022375106811523,0.8967833518981934
1715093569210002400,10.17600244140625,-3.464052677154541,3.9458484649658203,-1.4156618118286133
1715093569219981600,10.185981689453126,-6.473641395568848,0.41234493255615234,-2.4452574253082275
1715093569229930200,10.19593017578125,-2.387157917022705,-4.479310035705566,-3.34269380569458
1715093569239909600,10.20590966796875,7.7127275466918945,-7.62812614440918,-3.0312888622283936
1715093569249888800,10.215888671875,9.404882431030273,-7.814820289611816,-5.440266132354736
1715093569259868200,10.2258681640625,3.058152914047241,-6.853200912475586,-8.596674919128418
1715093569269816800,10.23581689453125,5.821386337280273,-4.174341201782227,-5.051553249359131
1715093569279796000,10.2457958984375,4.162774562835693,-0.8938674926757812,-5.307707786560059
1715093569289775400,10.255775390625,5.231325149536133,1.9291067123413086,-4.523890495300293
1715093569299754500,10.26575439453125,9.727771759033203,3.549679756164551,-3.0656352043151855
1715093569309734000,10.27573388671875,11.163254737854004,4.635080337524414,-2.6562795639038086
1715093569319682600,10.2856826171875,7.734705924987793,4.374947547912598,-2.986146926879883
1715093569329661700,10.29566162109375,3.8120169639587402,2.91019344329834,-3.563930034637451
1715093569339641000,10.30564111328125,2.316676616668701,0.1178436279296875,-5.705573081970215
1715093569349589800,10.31558984375,1.651194453239441,-1.5280513763427734,-5.919687271118164
1715093569359569000,10.32556884765625,0.7616703510284424,-2.307842254638672,-5.1774983406066895
1715093569369548300,10.33554833984375,1.0662623643875122,-3.495488166809082,-3.891152858734131
1715093569379497000,10.3454970703125,0.3855096101760864,-4.448070526123047,-2.21034574508667
1715093569389476000,10.35547607421875,-0.4119603633880615,-4.171614646911621,-1.0526624917984009
1715093569399455500,10.36545556640625,-0.018815040588378906,-3.12857723236084,0.8287820816040039
1715093569409404200,10.375404052734375,0.6306673288345337,-1.5752830505371094,2.9681966304779053
1715093569419383300,10.38538330078125,0.8595940470695496,-0.22430419921875,4.601335525512695
1715093569429362700,10.39536279296875,2.0964794158935547,1.1705083847045898,5.068526744842529
1715093569439311400,10.405311279296875,2.59799861907959,1.9851760864257812,3.795238494873047
1715093569449290800,10.415290771484376,1.4292916059494019,2.7880449295043945,1.802582025527954
1715093569459270000,10.425269775390625,0.15537622570991516,3.412407875061035,0.0371549129486084
1715093569469218600,10.435218505859375,-0.5850580930709839,3.8947229385375977,-0.7564520835876465
1715093569479198000,10.445197998046876,0.2898281216621399,3.8079042434692383,-0.9054492712020874
1715093569489177000,10.455177001953125,1.2061482667922974,3.1913652420043945,-0.7386425733566284
1715093569499125800,10.465125732421875,3.06300687789917,2.272848129272461,-1.2252277135849
1715093569509105200,10.475105224609376,3.0720887184143066,1.214249610900879,-1.5133765935897827
1715093569519084300,10.485084228515625,1.211126685142517,0.626255989074707,-0.3558448851108551
1715093569529033000,10.495032958984375,-0.30588632822036743,-0.21884822845458984,-0.44315117597579956
1715093569539012400,10.505012451171876,-2.1548988819122314,-0.9241132736206055,0.045836687088012695
1715093569548991500,10.514991455078125,-3.012070655822754,-1.3488397598266602,0.8607147336006165
1715093569558971000,10.524970947265626,-3.955601692199707,-0.799504280090332,2.4624738693237305
1715093569568950000,10.534949951171875,-4.679441452026367,-0.2485504150390625,3.820812702178955
1715093569578898700,10.544898681640625,-5.220420837402344,-0.25119590759277344,5.260248184204102
1715093569588878000,10.554878173828126,-2.7474446296691895,-0.6710147857666016,6.363739967346191
1715093569598857200,10.564857177734375,-0.8432490825653076,-0.9853782653808594,7.708237648010254
1715093569608836600,10.574836669921876,-1.9041047096252441,-1.4050188064575195,6.673371315002441
1715093569618785300,10.584785400390626,-1.507159948348999,-1.861978530883789,4.90725040435791
1715093569628764400,10.594764404296875,-0.9030792713165283,-1.8180294036865234,4.238015174865723
1715093569638743800,10.604743896484376,-0.836111307144165,-1.5538702011108398,5.334489822387695
1715093569648692500,10.6146923828125,-0.348099946975708,-1.187957763671875,7.453474521636963
1715093569658671900,10.624671875,-0.7098038196563721,-0.5955591201782227,9.804439544677734
1715093569668651000,10.634651123046876,-0.6981006860733032,0.04929924011230469,11.268050193786621
1715093569678599700,10.644599609375,-2.391679286956787,0.6832647323608398,10.39023208618164
1715093569688579000,10.6545791015625,-3.709646701812744,0.20633697509765625,7.0556559562683105
1715093569698558200,10.66455810546875,-3.187791585922241,-1.5548877716064453,4.639739513397217
1715093569708507000,10.6745068359375,-1.746570348739624,-3.0088672637939453,5.745192527770996
1715093569718486300,10.684486328125,-1.2838093042373657,-3.806389808654785,8.08148193359375
1715093569728465400,10.69446533203125,-1.0392420291900635,-3.5541086196899414,6.941733360290527
1715093569738414000,10.7044140625,-2.7214486598968506,-2.3598365783691406,4.346865177154541
1715093569748393500,10.7143935546875,-3.0294337272644043,-1.6524972915649414,2.723215103149414
1715093569758372600,10.72437255859375,-2.9992852210998535,-1.6418142318725586,1.7085319757461548
1715093569768321500,10.734321533203126,-2.4993488788604736,-2.3513317108154297,0.6097413897514343
1715093569778300700,10.74430078125,-0.4248909056186676,-3.4792184829711914,-2.974369764328003
1715093569788249300,10.754249267578125,1.943631887435913,-4.430800437927246,-4.9884209632873535
1715093569798228700,10.764228759765626,2.071265935897827,-6.043452262878418,-6.39825439453125
1715093569808208000,10.774207763671875,1.1583678722381592,-7.835973739624023,-7.662656307220459
1715093569818156500,10.784156494140625,-0.12643319368362427,-8.58350944519043,-7.882709503173828
1715093569828136000,10.794135986328126,-1.2862603664398193,-9.14807415008545,-7.892914772033691
1715093569838115000,10.804114990234375,-2.0966358184814453,-9.789016723632812,-7.724851131439209
1715093569848094500,10.814094482421876,-1.0161421298980713,-9.728068351745605,-7.371193885803223
1715093569858073600,10.824073486328125,0.5273309946060181,-7.880690574645996,-5.949440002441406
1715093569868022300,10.834022216796875,1.920606017112732,-5.4393815994262695,-5.094875335693359
1715093569878001700,10.844001708984376,5.032205104827881,-3.6589460372924805,-0.8358950614929199
1715093569887980800,10.853980712890625,4.7931036949157715,-1.5593061447143555,8.113856315612793
1715093569897960200,10.863960205078126,1.0011155605316162,0.22275352478027344,11.420494079589844
1715093569907908900,10.873908935546876,-0.1334829330444336,0.07147693634033203,6.254889488220215
1715093569917888000,10.883887939453125,-1.100020170211792,-0.5897769927978516,-0.6874046325683594
1715093569927867400,10.893867431640626,0.5055437088012695,-0.14090728759765625,-3.4655516147613525
1715093569937816000,10.903816162109376,0.7232859134674072,1.356374740600586,-4.292574405670166
1715093569947795200,10.913795166015625,1.1284260749816895,3.0976200103759766,-4.303989887237549
1715093569957774600,10.923774658203126,2.242835521697998,4.340843200683594,-5.333625793457031
1715093569967723300,10.93372314453125,3.3008148670196533,5.423994064331055,-6.431802749633789
1715093569977702400,10.943702392578125,4.267757415771484,6.64506721496582,-6.547112464904785
1715093569987681800,10.953681884765626,4.515611171722412,7.4036054611206055,-6.965317726135254
1715093569997630500,10.96363037109375,5.034355163574219,7.674949645996094,-6.909738540649414
1715093570007609900,10.97360986328125,5.187948226928711,7.304451942443848,-6.390820026397705
1715093570017589000,10.983589111328126,5.313293933868408,6.9329376220703125,-6.244110584259033
1715093570027537700,10.99353759765625,5.7021484375,6.842905044555664,-6.548453330993652
1715093570037517000,11.00351708984375,5.42235803604126,6.929233551025391,-7.154138088226318
1715093570047496200,11.01349609375,4.898214340209961,7.347223281860352,-7.214042663574219
1715093570057444900,11.02344482421875,4.459813594818115,7.767585754394531,-6.625480651855469
1715093570067424300,11.03342431640625,3.521197557449341,7.522353172302246,-5.563199520111084
1715093570077403400,11.0434033203125,2.3313612937927246,6.894942283630371,-4.492504119873047
1715093570087352000,11.05335205078125,-0.28432416915893555,5.49925422668457,-3.2632699012756348
1715093570097331500,11.06333154296875,-4.318722724914551,2.9517927169799805,-1.6130435466766357
1715093570107310600,11.073310546875,-7.884280204772949,-0.2119903564453125,2.5703983306884766
1715093570117290000,11.0832900390625,-10.506712913513184,-4.102557182312012,6.90908145904541
1715093570127238700,11.09323876953125,-11.254682540893555,-8.315637588500977,11.079999923706055
1715093570137217800,11.1032177734375,-11.33155632019043,-14.098897933959961,12.58635139465332
1715093570147197200,11.113197265625,-9.046143531799316,-17.86234474182129,12.816390991210938
1715093570157176300,11.12317626953125,-3.1076486110687256,-13.611268043518066,8.500804901123047
1715093570167155700,11.13315576171875,-2.324080467224121,-7.367212295532227,2.4307103157043457
1715093570177104400,11.1431044921875,-3.651265859603882,-0.5208272933959961,0.3832101821899414
1715093570187083500,11.15308349609375,-2.393857002258301,5.594250679016113,0.8017404079437256
1715093570197063000,11.16306298828125,-0.44199085235595703,9.162406921386719,-0.9138171672821045
1715093570207011600,11.173011474609375,0.5298306941986084,9.5206880569458,-1.2591352462768555
1715093570216990700,11.18299072265625,3.1042799949645996,4.968979835510254,-4.163447380065918
1715093570226970000,11.19297021484375,2.0506644248962402,-1.0790061950683594,-5.110231876373291
1715093570236918800,11.202918701171875,3.754643440246582,-7.453000068664551,-5.691760540008545
1715093570246898200,11.212898193359376,7.108598709106445,-11.337635040283203,-7.069487571716309
1715093570256877300,11.222877197265625,-1.0449714660644531,-15.24720287322998,-9.274673461914062
1715093570266826000,11.232825927734375,0.5832056999206543,-16.494882583618164,-0.5822317600250244
1715093570276805400,11.242805419921876,3.1423895359039307,-8.266400337219238,2.1875181198120117
1715093570286784500,11.252784423828125,0.8488829135894775,-1.3537797927856445,-0.49703097343444824
1715093570296733200,11.262733154296875,2.6487345695495605,1.4271783828735352,-2.8815300464630127
1715093570306712600,11.272712646484376,7.674225807189941,4.022370338439941,-4.029882907867432
1715093570316691700,11.282691650390625,9.461862564086914,5.438437461853027,-5.7900824546813965
1715093570326640400,11.292640380859375,6.248432159423828,5.697538375854492,-6.5972490310668945
1715093570336619800,11.302619873046876,3.5024266242980957,5.566215515136719,-6.957522392272949
1715093570346599000,11.312598876953125,2.333230495452881,4.30380916595459,-8.210550308227539
1715093570356547800,11.3225478515625,1.617630958557129,2.379863739013672,-8.761604309082031
1715093570366527000,11.33252685546875,1.8805928230285645,0.5642213821411133,-7.662014961242676
1715093570376506000,11.342506103515625,1.6451839208602905,-1.7993946075439453,-6.732034683227539
1715093570386455000,11.352455078125,1.0453177690505981,-3.6660842895507812,-3.9496617317199707
1715093570396434200,11.36243408203125,0.8068269491195679,-5.063641548156738,-0.7240586280822754
1715093570406413600,11.37241357421875,1.0825004577636719,-5.38651180267334,1.7578492164611816
1715093570416362200,11.3823623046875,1.3134820461273193,-3.8160171508789062,4.639793395996094
1715093570426341400,11.39234130859375,1.749889850616455,-2.0580825805664062,6.318721771240234
1715093570436320800,11.40232080078125,1.9055564403533936,0.32196903228759766,6.768325328826904
1715093570446300000,11.4122998046875,1.4019863605499268,1.8389577865600586,4.951425552368164
1715093570456279300,11.422279296875,0.05038592219352722,2.7976226806640625,2.820122718811035
1715093570466228000,11.43222802734375,-0.856947660446167,3.7758846282958984,1.1148329973220825
1715093570476207000,11.44220703125,-1.715348482131958,4.535144805908203,0.06570160388946533
1715093570486186500,11.4521865234375,-0.9047161340713501,3.963017463684082,-0.39107826352119446
1715093570496135200,11.46213525390625,0.3606514632701874,3.0107479095458984,-0.5269659161567688
1715093570506114300,11.4721142578125,1.477193832397461,1.9055500030517578,-0.13782259821891785
1715093570516093700,11.48209375,1.2805613279342651,0.44669055938720703,-0.083092600107193
1715093570526042400,11.49204248046875,0.8267784118652344,-0.29069995880126953,-0.1705317348241806
1715093570536021500,11.502021484375,0.5936024785041809,-0.9660959243774414,-0.8577572703361511
1715093570546001000,11.5120009765625,-0.8596903085708618,-0.20210838317871094,-0.16883327066898346
1715093570555949600,11.521949462890625,-3.1055335998535156,-0.4063262939453125,0.6183602809906006
1715093570565928700,11.5319287109375,-3.9318461418151855,-0.369781494140625,1.5451970100402832
1715093570575908000,11.541908203125,-4.356023788452148,-0.3666658401489258,2.4388539791107178
1715093570585856800,11.551856689453125,-4.821867942810059,-0.4567108154296875,3.356802225112915
1715093570595836200,11.561836181640626,-4.054317951202393,-0.863154411315918,3.888932704925537
1715093570605815300,11.571815185546875,-2.480172634124756,-0.20544910430908203,5.297398090362549
1715093570615764000,11.581763916015625,-1.4297832250595093,0.1389598846435547,5.890203952789307
1715093570625743400,11.591743408203126,-0.7585967779159546,-0.2379598617553711,6.018056869506836
1715093570635722500,11.601722412109375,0.49892961978912354,-0.3295402526855469,6.493166923522949
1715093570645671200,11.611671142578125,0.5564463138580322,-0.16678237915039062,7.0524001121521
1715093570655650600,11.621650634765626,-0.6825995445251465,-0.30751705169677734,7.768671989440918
1715093570665629700,11.631629638671875,-1.0955958366394043,-0.739013671875,7.539840221405029
1715093570675578400,11.641578369140625,-0.8192757368087769,-2.131361961364746,7.406917572021484
1715093570685557800,11.651557861328126,-0.26590609550476074,-2.526643753051758,8.454187393188477
1715093570695537000,11.661536865234375,-1.6436045169830322,-2.0935630798339844,8.28537654876709
1715093570705516300,11.671516357421876,-3.3996620178222656,-2.9394702911376953,4.2140302658081055
1715093570715495400,11.681495361328125,-2.9939048290252686,-3.289963722229004,2.8057851791381836
1715093570725444000,11.691444091796875,-2.64617657661438,-2.9703454971313477,5.940188407897949
1715093570735423500,11.701423583984376,-1.8798706531524658,-2.573881149291992,8.42597484588623
1715093570745402600,11.711402587890625,-2.164768695831299,-1.871790885925293,8.325028419494629
1715093570755382000,11.721382080078126,-2.699937582015991,-1.0325613021850586,7.345410346984863
1715093570765330700,11.73133056640625,-3.5632424354553223,-0.2862892150878906,5.878960132598877
1715093570775309800,11.741309814453125,-3.173293113708496,0.034895896911621094,4.942912578582764
1715093570785289200,11.751289306640626,-1.811233639717102,-0.21069717407226562,4.2810587882995605
1715093570795238000,11.76123779296875,-0.6034297347068787,-1.127995491027832,-0.049544885754585266
1715093570805217300,11.77121728515625,1.7041488885879517,-2.235393524169922,-2.7482187747955322
1715093570815196400,11.781196533203126,2.9564876556396484,-4.59816837310791,-3.4596214294433594
1715093570825145000,11.79114501953125,2.251457691192627,-8.087187767028809,-5.580672264099121
1715093570835124500,11.80112451171875,0.7716914415359497,-10.790654182434082,-7.390071868896484
1715093570845103600,11.811103515625,-1.0859441757202148,-12.140549659729004,-8.279071807861328
1715093570855052300,11.82105224609375,-2.028027296066284,-12.720314979553223,-8.975522994995117
1715093570865031700,11.83103173828125,-1.3745945692062378,-12.003774642944336,-9.880504608154297
1715093570875010800,11.8410107421875,-0.2969028949737549,-8.968033790588379,-8.656867027282715
1715093570884959500,11.85095947265625,0.9787496328353882,-6.006732940673828,-6.42307710647583
1715093570894939000,11.86093896484375,2.3635759353637695,-4.372498512268066,-5.270374298095703
1715093570904918000,11.87091796875,4.7666239738464355,-2.3068761825561523,1.790764570236206
1715093570914867000,11.880866943359376,2.4480977058410645,0.4520578384399414,9.777219772338867
1715093570924846000,11.89084619140625,1.458382248878479,1.9661540985107422,10.361420631408691
1715093570934825200,11.9008251953125,-0.9332801103591919,0.8813772201538086,2.6599607467651367
1715093570944774100,11.910774169921876,-1.2884817123413086,0.8332910537719727,-1.8313255310058594
1715093570954753300,11.920753173828125,0.7240264415740967,1.1909313201904297,-2.9264535903930664
1715093570964732400,11.930732421875,1.0672500133514404,2.372879981994629,-3.4421446323394775
1715093570974681300,11.940681396484376,2.0099380016326904,3.737377166748047,-4.404752254486084
1715093570984660500,11.950660400390625,3.421323776245117,5.09592342376709,-5.422152519226074
1715093570994640000,11.960639892578126,4.353693008422852,6.387284278869629,-6.10296630859375
1715093571004619000,11.970618896484375,4.941978454589844,7.445718765258789,-6.1043829917907715
1715093571014567700,11.980567626953125,5.470157623291016,7.929536819458008,-6.48460578918457
1715093571024547000,11.990547119140626,5.566037654876709,7.426847457885742,-6.792691707611084
1715093571034526200,12.000526123046875,5.721776008605957,6.718405723571777,-6.357471466064453
1715093571044505600,12.010505615234376,5.729067802429199,6.499665260314941,-6.362032890319824
1715093571054454300,12.020454345703126,6.114999771118164,6.801670074462891,-6.577410697937012
1715093571064433400,12.030433349609375,6.252864837646484,6.944286346435547,-6.70429801940918
1715093571074412800,12.040412841796876,5.257638931274414,7.181582450866699,-6.259885311126709
1715093571084361500,12.050361572265626,4.381627082824707,7.319591522216797,-5.7295756340026855
1715093571094340600,12.060340576171875,3.04374361038208,6.76618766784668,-4.632927894592285
1715093571104320000,12.070320068359376,0.8892912864685059,5.770102500915527,-3.5595946311950684
1715093571114268700,12.0802685546875,-2.1369810104370117,4.121870994567871,-2.2441611289978027
1715093571124247800,12.090247802734375,-4.982494354248047,1.9549217224121094,-1.2288732528686523
1715093571134227200,12.100227294921876,-6.935069561004639,-0.548863410949707,1.8147492408752441
1715093571144175900,12.11017578125,-10.569501876831055,-3.5977020263671875,7.966184616088867
1715093571154155300,12.1201552734375,-11.135075569152832,-7.709466934204102,12.916927337646484
1715093571164134400,12.130134521484376,-10.120291709899902,-13.852208137512207,12.649998664855957
1715093571174083000,12.1400830078125,-8.323513984680176,-17.232683181762695,9.959071159362793
1715093571184062500,12.1500625,-3.759887218475342,-12.838741302490234,5.5419511795043945
1715093571194041600,12.16004150390625,-2.7775299549102783,-5.988215446472168,2.0538129806518555
1715093571203990300,12.169990234375,-2.7444798946380615,1.309147834777832,-0.41675782203674316
1715093571213969700,12.1799697265625,-0.9979724884033203,4.943876266479492,-3.6055076122283936
1715093571223948800,12.18994873046875,-1.3756556510925293,5.113210678100586,-3.8938441276550293
1715093571233897500,12.1998974609375,-1.638472080230713,2.4051284790039062,-4.506065368652344
1715093571243876900,12.209876953125,-0.596459150314331,-2.181502342224121,-6.832082271575928
1715093571253856000,12.21985595703125,1.5014259815216064,-5.901027679443359,-7.905998229980469
1715093571263835400,12.22983544921875,0.5599946975708008,-8.557644844055176,-8.046507835388184
1715093571273784000,12.2397841796875,-2.8007850646972656,-10.755925178527832,-8.99970531463623
1715093571283763200,12.24976318359375,6.942561149597168,-11.11737060546875,-1.254215955734253
1715093571293742600,12.25974267578125,10.927888870239258,-6.2878007888793945,1.6304857730865479
1715093571303721700,12.2697216796875,6.882142066955566,-0.1979236602783203,-0.7391953468322754
1715093571313701000,12.279701171875,5.360560894012451,2.681489944458008,-2.088679790496826
1715093571323649800,12.28964990234375,7.1349945068359375,3.7604751586914062,-3.1962528228759766
1715093571333629000,12.29962890625,7.478625297546387,4.409699440002441,-2.9806478023529053
1715093571343608300,12.3096083984375,5.217218399047852,3.415517807006836,-4.21862268447876
1715093571353557000,12.319556884765625,3.5124995708465576,2.462815284729004,-5.057065010070801
1715093571363536100,12.3295361328125,2.8727002143859863,0.7426385879516602,-6.988938808441162
1715093571373515500,12.339515625,2.638798713684082,-0.46468448638916016,-6.658294677734375
1715093571383464200,12.349464111328125,2.238914966583252,-1.1544198989868164,-4.934557914733887
1715093571393443600,12.359443603515626,1.0251604318618774,-2.5944461822509766,-3.3309872150421143
1715093571403422700,12.369422607421875,-0.17167508602142334,-4.262493133544922,-0.7596180438995361
1715093571413371400,12.379371337890625,-1.122660517692566,-5.209707260131836,0.8891376256942749
1715093571423350800,12.389350830078126,-0.031754255294799805,-4.228859901428223,2.63336181640625
1715093571433330000,12.399329833984375,1.202501893043518,-2.5298147201538086,2.52226185798645
1715093571443278600,12.409278564453125,2.6620001792907715,-0.7890262603759766,3.2834396362304688
1715093571453258000,12.419258056640626,2.32266902923584,1.5089454650878906,3.735494613647461
1715093571463237000,12.429237060546875,1.5022447109222412,3.1589794158935547,2.855914831161499
1715093571473185800,12.439185791015625,0.1384318470954895,3.7810192108154297,1.2454230785369873
1715093571483165200,12.449165283203126,-0.789801836013794,4.200545310974121,-0.7931430339813232
1715093571493144300,12.459144287109375,-0.7550427913665771,4.318870544433594,-2.092686414718628
1715093571503093200,12.46909326171875,0.09953087568283081,3.8261775970458984,-1.5702542066574097
1715093571513072400,12.479072265625,0.7265614867210388,3.139153480529785,-1.0539904832839966
1715093571523051500,12.489051513671875,1.0318992137908936,1.9593734741210938,-0.680456280708313
1715093571533000400,12.49900048828125,1.0105643272399902,0.4739542007446289,0.0703670084476471
1715093571542979600,12.5089794921875,1.6804282665252686,-0.3690195083618164,0.4508281946182251
1715093571552959000,12.518958984375,0.7972525954246521,-0.3929920196533203,1.5393725633621216
1715093571562938000,12.528938232421876,-1.9209680557250977,0.0638875961303711,2.8559958934783936
1715093571572886800,12.53888671875,-3.7988200187683105,0.5406007766723633,3.27401065826416
1715093571582866200,12.5488662109375,-3.879880905151367,0.8101511001586914,3.105253219604492
1715093571592845300,12.55884521484375,-3.1744673252105713,0.3787193298339844,3.6260931491851807
1715093571602824700,12.56882470703125,-3.1114115715026855,0.048750877380371094,4.678770542144775
1715093571612773400,12.5787734375,-3.3389320373535156,-0.42978858947753906,5.755814552307129
1715093571622752500,12.58875244140625,-3.274562358856201,-1.5519962310791016,6.773486614227295
1715093571632732000,12.59873193359375,-2.7292208671569824,-1.5519142150878906,6.962832927703857
1715093571642680600,12.6086806640625,-1.9761146306991577,-0.980738639831543,6.60701847076416
1715093571652659700,12.61865966796875,-1.1982312202453613,-0.5962371826171875,6.542731285095215
1715093571662639000,12.62863916015625,-0.6767330169677734,-0.3515138626098633,6.423043251037598
1715093571672587800,12.638587890625,-0.5561281442642212,-0.4154796600341797,5.964841842651367
1715093571682567000,12.64856689453125,-1.0738190412521362,-0.3904600143432617,5.879900932312012
1715093571692546300,12.65854638671875,-1.758205771446228,-0.3307933807373047,5.222844123840332
1715093571702495000,12.668494873046875,-2.1172537803649902,-0.9396629333496094,6.528448581695557
1715093571712474400,12.678474365234376,-1.7926758527755737,-1.1940393447875977,9.051881790161133
1715093571722453500,12.68845361328125,-2.265089988708496,-1.7940797805786133,9.083003044128418
1715093571732402200,12.698402099609375,-2.5887389183044434,-3.144350051879883,7.531650543212891
1715093571742381600,12.708381591796876,-1.4774281978607178,-3.9248647689819336,7.004673957824707
1715093571752360700,12.718360595703125,-0.4659973382949829,-4.220308303833008,7.954667091369629
1715093571762309400,12.728309326171875,-0.6384851932525635,-3.5618667602539062,7.313652038574219
1715093571772288800,12.738288818359376,-1.0084439516067505,-1.8432350158691406,5.608101844787598
1715093571782268000,12.748267822265625,-1.8747906684875488,-0.7412347793579102,3.894423007965088
1715093571792216600,12.758216552734375,-2.5360419750213623,-0.7648401260375977,3.3430824279785156
1715093571802196000,12.768196044921876,-2.0702197551727295,-1.47613525390625,2.749181032180786
1715093571812175000,12.778175048828125,-0.6867427229881287,-2.697023391723633,-0.3629515767097473
1715093571822123800,12.788123779296875,2.076385259628296,-4.904543876647949,-3.217529296875
1715093571832103200,12.798103271484376,2.5268380641937256,-8.159603118896484,-5.353124141693115
