time,seconds_elapsed,z,y,x
1713358380101309000,0.118308837890625,7.93341064453125,5.3129425048828125,0.3392181396484375
1713358380111288000,0.1282880859375,7.229522705078125,4.9969024658203125,-0.2306060791015625
1713358380121297700,0.138297607421875,7.526397705078125,4.7790374755859375,-0.27130126953125
1713358380131284000,0.148283935546875,7.7490692138671875,4.6425628662109375,0.1907806396484375
1713358380141263400,0.158263427734375,8.04833984375,5.166900634765625,0.516387939453125
1713358380151273000,0.16827294921875,8.247055053710938,5.0064849853515625,0.0662841796875
1713358380161252400,0.17825244140625,8.184814453125,4.88677978515625,-0.2042694091796875
1713358380171231500,0.1882314453125,8.27099609375,4.9538116455078125,-0.074981689453125
1713358380181211000,0.1982109375,7.885528564453125,5.0687408447265625,-0.2306060791015625
1713358380191159600,0.20815966796875,8.570281982421875,5.315338134765625,0.0207977294921875
1713358380201138700,0.218138671875,8.6612548828125,5.28900146484375,-0.2258148193359375
1713358380211118000,0.2281181640625,8.716323852539062,4.8053741455078125,0.1117706298828125
1713358380221097200,0.23809716796875,8.56549072265625,4.63299560546875,-0.1515960693359375
1713358380231076600,0.24807666015625,8.536758422851562,4.807769775390625,0.293731689453125
1713358380241025300,0.258025390625,8.338043212890625,4.74072265625,-0.2473602294921875
1713358380251004400,0.26800439453125,8.223114013671875,4.597076416015625,-0.0845489501953125
1713358380260983800,0.27798388671875,7.7873687744140625,4.2187957763671875,-0.086944580078125
1713358380270932500,0.287932373046875,8.208755493164062,4.216400146484375,0.5115966796875
1713358380280911600,0.29791162109375,8.335647583007812,4.2714691162109375,-0.8387298583984375
1713358380290891000,0.30789111328125,8.409866333007812,4.692840576171875,-0.13482666015625
1713358380300839700,0.317839599609375,8.304519653320312,4.671295166015625,0.473297119140625
1713358380310818800,0.32781884765625,8.4505615234375,4.2570953369140625,0.0327606201171875
1713358380320798200,0.337798095703125,8.57745361328125,4.3193511962890625,-0.000762939453125
1713358380330747000,0.347746826171875,8.716323852539062,4.553985595703125,0.1213531494140625
1713358380340726300,0.357726318359375,8.790542602539062,4.587493896484375,-0.15399169921875
1713358380350705400,0.367705322265625,8.99884033203125,4.6234130859375,-0.2210235595703125
1713358380360684500,0.3776845703125,8.89349365234375,4.71917724609375,-0.106109619140625
1713358380370664000,0.387663818359375,9.065872192382812,4.7167816162109375,-0.108489990234375
1713358380380612600,0.397612548828125,9.154464721679688,4.6688995361328125,-0.0893402099609375
1713358380390592000,0.407592041015625,9.25262451171875,4.5946807861328125,-0.01751708984375
1713358380400571100,0.417571044921875,9.017990112304688,4.3983612060546875,0.2697906494140625
1713358380410519800,0.427519775390625,8.749832153320312,4.07275390625,0.37274169921875
1713358380420499200,0.437499267578125,8.644500732421875,4.154144287109375,0.420623779296875
1713358380430478300,0.447478271484375,8.663650512695312,4.431884765625,0.3703460693359375
1713358380440427000,0.457427001953125,8.531967163085938,4.5491943359375,0.1381072998046875
1713358380450406400,0.467406494140625,8.558303833007812,4.4941253662109375,0.008819580078125
1713358380460385500,0.477385498046875,8.603790283203125,4.6305999755859375,0.0806427001953125
1713358380470334200,0.487334228515625,8.721115112304688,4.702423095703125,0.05670166015625
1713358380480313600,0.497313720703125,8.620559692382812,4.4414520263671875,0.051910400390625
1713358380490292700,0.507292724609375,8.666046142578125,4.3720245361328125,0.0950164794921875
1713358380500241700,0.51724169921875,8.536758422851562,4.5563812255859375,0.171630859375
1713358380510220800,0.527220703125,8.4385986328125,4.506103515625,0.0638885498046875
1713358380520200000,0.537199951171875,8.230300903320312,4.386383056640625,0.1165618896484375
1713358380530148900,0.54714892578125,8.436203002929688,4.3720245361328125,0.0950164794921875
1713358380540128000,0.5571279296875,8.445770263671875,4.4007568359375,0.2745819091796875
1713358380550107400,0.567107421875,8.5128173828125,4.3552703857421875,0.346405029296875
1713358380560056000,0.57705615234375,8.5128173828125,4.3720245361328125,0.41583251953125
1713358380570035200,0.58703515625,8.706741333007812,4.640167236328125,0.1333160400390625
1713358380580014600,0.5970146484375,8.563095092773438,4.522857666015625,0.0064239501953125
1713358380589963300,0.60696337890625,8.601394653320312,4.431884765625,-0.11328125
1713358380599942400,0.6169423828125,8.740264892578125,4.4558258056640625,-0.15399169921875
1713358380609891300,0.626891357421875,8.876739501953125,5.0424041748046875,0.0543060302734375
1713358380619870500,0.636870361328125,8.9581298828125,4.7838287353515625,-0.0701904296875
1713358380629849600,0.646849609375,8.972503662109375,4.6976318359375,-0.40777587890625
1713358380639829000,0.6568291015625,8.716323852539062,4.3816070556640625,-0.6543731689453125
1713358380649808100,0.66680810546875,8.72589111328125,4.43426513671875,-0.2066650390625
1713358380659756800,0.6767568359375,9.077850341796875,4.9370574951171875,0.8467864990234375
1713358380669736200,0.686736083984375,8.8719482421875,4.24273681640625,0.284149169921875
1713358380679715300,0.69671533203125,8.792938232421875,4.2499237060546875,0.1476898193359375
1713358380689664300,0.706664306640625,8.996444702148438,4.233154296875,0.245849609375
1713358380699643400,0.716643310546875,9.353179931640625,3.8500823974609375,0.4565277099609375
1713358380709622500,0.72662255859375,9.092208862304688,4.312164306640625,0.03515625
1713358380719571500,0.736571533203125,9.250228881835938,4.70721435546875,-0.477203369140625
1713358380729550600,0.746550537109375,9.027572631835938,4.692840576171875,-0.323974609375
1713358380739530000,0.756530029296875,8.783355712890625,4.6305999755859375,-0.1587677001953125
1713358380749478700,0.766478759765625,8.60858154296875,4.3839874267578125,0.2386627197265625
1713358380759457800,0.776457763671875,8.251846313476562,4.5611572265625,0.1333160400390625
1713358380769437200,0.786437255859375,7.9405975341796875,4.7096099853515625,-0.0079345703125
1713358380779385900,0.7963857421875,7.938201904296875,4.5156707763671875,0.0662841796875
1713358380789365000,0.806364990234375,7.97412109375,4.5348358154296875,-0.0366668701171875
1713358380799344400,0.816344482421875,8.00762939453125,4.5827178955078125,0.157257080078125
1713358380809293000,0.82629296875,8.170440673828125,4.49652099609375,-0.5634002685546875
1713358380819272200,0.836272216796875,8.2279052734375,4.4773712158203125,-0.118072509765625
1713358380829251600,0.84625146484375,8.28057861328125,4.5372161865234375,-0.297637939453125
1713358380839200300,0.8562001953125,7.986083984375,4.1900634765625,-0.0390625
1713358380849179600,0.8661796875,8.05792236328125,4.6473541259765625,-0.2306060791015625
1713358380859158800,0.87615869140625,8.055526733398438,4.5994720458984375,-0.235382080078125
1713358380869107500,0.886107421875,8.361984252929688,4.491729736328125,-0.994354248046875
1713358380879086800,0.8960869140625,8.560699462890625,4.5204620361328125,-0.5370635986328125
1713358380889066000,0.90606591796875,8.843215942382812,4.587493896484375,-0.7645111083984375
1713358380899014700,0.9160146484375,9.10418701171875,4.36962890625,-0.4963531494140625
1713358380908994000,0.925994140625,8.903060913085938,4.132598876953125,-0.6160736083984375
1713358380918973200,0.93597314453125,8.646896362304688,3.962615966796875,-0.520294189453125
1713358380928952600,0.94595263671875,8.876739501953125,4.194854736328125,-0.0845489501953125
1713358380938901200,0.9559013671875,8.694778442382812,3.8117828369140625,-0.1037139892578125
1713358380948880400,0.96588037109375,9.070663452148438,3.8429107666015625,0.01361083984375
1713358380958859800,0.97585986328125,9.683578491210938,3.7543182373046875,-0.1683502197265625
1713358380968808400,0.985808349609375,10.29888916015625,3.550811767578125,-0.096527099609375
1713358380978787600,0.99578759765625,10.102569580078125,3.730377197265625,-0.5490264892578125
1713358380988767000,1.00576708984375,10.16241455078125,3.9386749267578125,-0.5226898193359375
1713358380998712000,1.015712158203125,10.212692260742188,3.572357177734375,-0.16595458984375
1713358381008691500,1.02569140625,10.114532470703125,3.5484161376953125,0.0686798095703125
1713358381018670600,1.035670654296875,9.932571411132812,3.52447509765625,0.1476898193359375
1713358381028619300,1.045619384765625,9.348388671875,3.7160186767578125,-0.1468048095703125
1713358381038598700,1.0555986328125,9.101791381835938,3.878814697265625,-0.0845489501953125
1713358381048577800,1.065577880859375,8.876739501953125,3.8381195068359375,-0.1587677001953125
1713358381058526500,1.0755263671875,8.783355712890625,3.7447357177734375,-0.33355712890625
1713358381068505900,1.085505859375,8.646896362304688,3.8716278076171875,-0.3048248291015625
1713358381078485000,1.095485107421875,8.71392822265625,3.4311065673828125,0.0016326904296875
1713358381088434000,1.105433837890625,8.570281982421875,3.4311065673828125,0.01361083984375
1713358381098413000,1.1154130859375,8.974899291992188,3.615447998046875,-0.01751708984375
1713358381108392200,1.12539208984375,8.982070922851562,3.033660888671875,0.379913330078125
1713358381118341000,1.135341064453125,8.986862182617188,3.218017578125,0.432586669921875
1713358381128320300,1.1453203125,9.04193115234375,3.3042144775390625,0.2147216796875
1713358381138299600,1.155299560546875,9.065872192382812,3.514892578125,0.109375
1713358381148248300,1.165248291015625,9.0203857421875,3.8285369873046875,-0.1994781494140625
1713358381158227500,1.1752275390625,9.089813232421875,4.13739013671875,-0.4053802490234375
1713358381168206800,1.185206787109375,8.903060913085938,4.39117431640625,-0.7118377685546875
1713358381178155500,1.195155517578125,8.785751342773438,4.680877685546875,-1.06378173828125
1713358381188134700,1.205134765625,8.83123779296875,4.946624755859375,-1.0302581787109375
1713358381198114000,1.215114013671875,8.383529663085938,4.1565399169921875,-0.1587677001953125
1713358381208062700,1.225062744140625,8.519989013671875,3.6705169677734375,0.4134368896484375
1713358381218041900,1.235041748046875,8.306915283203125,3.488555908203125,1.5339202880859375
1713358381228021200,1.245021240234375,7.552734375,3.08154296875,0.219512939453125
1713358381238000400,1.25500048828125,7.1313629150390625,1.312225341796875,-0.6064910888671875
1713358381247949300,1.26494921875,7.239105224609375,2.2268218994140625,1.7494049072265625
1713358381257928400,1.274928466796875,6.384368896484375,1.7407989501953125,1.79010009765625
1713358381267907600,1.284907470703125,5.9390411376953125,0.8549346923828125,1.6488494873046875
1713358381277856500,1.2948564453125,5.7259674072265625,0.074432373046875,3.489990234375
1713358381287835600,1.304835693359375,3.50653076171875,-0.696502685546875,3.3774566650390625
1713358381297814800,1.314814697265625,0.561676025390625,-1.4937744140625,1.4692840576171875
1713358381307763700,1.324763671875,-3.5300140380859375,-1.5871429443359375,-0.88421630859375
1713358381317742800,1.334742919921875,-5.3041229248046875,-1.5272979736328125,-2.981536865234375
1713358381327722200,1.34472216796875,-3.178070068359375,-1.330963134765625,-3.6734619140625
1713358381337671000,1.3546708984375,-0.683319091796875,-1.0747833251953125,-3.467559814453125
1713358381347650000,1.364650146484375,3.2240142822265625,-1.3644866943359375,-2.083709716796875
1713358381357629400,1.37462939453125,10.313247680664062,-1.5057373046875,0.34161376953125
1713358381367578000,1.384578125,11.278121948242188,-2.4538421630859375,1.3639373779296875
1713358381377552400,1.394552490234375,10.856735229492188,-3.3181610107421875,2.680755615234375
1713358381387531800,1.40453173828125,7.3157196044921875,-4.6828460693359375,2.85552978515625
1713358381397480400,1.41448046875,3.7148284912109375,-5.8583984375,3.6839141845703125
1713358381407459800,1.4244599609375,1.567230224609375,-6.157684326171875,3.5977325439453125
1713358381417439000,1.43443896484375,-0.1302490234375,-5.070709228515625,4.943267822265625
1713358381427387600,1.4443876953125,-1.7631072998046875,-5.472930908203125,4.96002197265625
1713358381437367000,1.454366943359375,-0.3289794921875,-5.7075653076171875,6.3678131103515625
1713358381447315700,1.464315673828125,2.3405609130859375,-5.8560028076171875,7.29437255859375
1713358381457294800,1.474294921875,3.7100372314453125,-7.31646728515625,8.438796997070312
1713358381467274200,1.484274169921875,3.875244140625,-8.008392333984375,8.321487426757812
1713358381477253400,1.49425341796875,2.9103851318359375,-7.9700927734375,6.72454833984375
1713358381487202000,1.5042021484375,2.0341033935546875,-8.642852783203125,5.893768310546875
1713358381497181400,1.514181396484375,0.161834716796875,-7.3021087646484375,10.888076782226562
1713358381507160600,1.52416064453125,-1.348907470703125,-10.428939819335938,7.1315765380859375
1713358381517150700,1.534150634765625,-4.197998046875,-8.03472900390625,11.240020751953125
1713358381527099600,1.544099609375,-0.9347076416015625,-11.855880737304688,9.149887084960938
1713358381537078800,1.554078857421875,1.1674041748046875,-10.6875,10.926376342773438
1713358381547058200,1.56405810546875,1.59356689453125,-10.61328125,11.58477783203125
1713358381557006800,1.5740068359375,2.390838623046875,-10.563003540039062,14.096298217773438
1713358381566986000,1.583986083984375,7.5814666748046875,-11.03466796875,17.644515991210938
1713358381576965400,1.59396533203125,9.901443481445312,-10.357101440429688,19.99322509765625
1713358381586914000,1.6039140625,12.985183715820312,-10.12725830078125,16.413894653320312
1713358381596893200,1.61389306640625,12.87744140625,-10.014739990234375,16.50726318359375
1713358381606872600,1.62387255859375,11.761749267578125,-9.358718872070312,12.75555419921875
1713358381616821200,1.6338212890625,10.705902099609375,-7.8479766845703125,14.01251220703125
1713358381626800400,1.64380029296875,6.765045166015625,-5.9086761474609375,15.499298095703125
1713358381636779800,1.65377978515625,4.8760223388671875,-4.986907958984375,14.723587036132812
1713358381646728400,1.663728515625,3.0372772216796875,-3.315765380859375,14.3189697265625
1713358381656707800,1.673707763671875,-0.3864288330078125,-1.5560150146484375,13.787445068359375
1713358381666687000,1.68368701171875,-3.975341796875,-2.2742767333984375,14.242355346679688
1713358381676635600,1.6936357421875,-3.642547607421875,-3.03564453125,14.074752807617188
1713358381686615000,1.703614990234375,1.196136474609375,-3.856842041015625,13.519302368164062
1713358381696594200,1.71359423828125,5.7690582275390625,-5.28619384765625,13.164962768554688
1713358381706542800,1.72354296875,7.119384765625,-5.5495452880859375,12.645416259765625
1713358381716522200,1.733522216796875,5.3740081787109375,-6.25823974609375,12.197708129882812
1713358381726471000,1.743470947265625,3.6884918212890625,-6.3420257568359375,10.694137573242188
1713358381736450000,1.753449951171875,2.29986572265625,-6.3156890869140625,9.1546630859375
1713358381746429400,1.763429443359375,0.57843017578125,-6.365966796875,8.45556640625
1713358381756378000,1.773378173828125,-0.7383880615234375,-6.4569549560546875,8.1395263671875
1713358381766359600,1.783359619140625,-0.97540283203125,-6.9860687255859375,6.8011627197265625
1713358381776339000,1.7933388671875,-0.434326171875,-8.281326293945312,5.1994476318359375
1713358381786318000,1.803318115234375,0.5975799560546875,-10.04107666015625,3.305633544921875
1713358381796266800,1.813266845703125,1.914398193359375,-11.044235229492188,3.473236083984375
1713358381806246100,1.82324609375,2.49139404296875,-11.930099487304688,5.599273681640625
1713358381816225300,1.833225341796875,5.460205078125,-12.868621826171875,6.6215972900390625
1713358381826204700,1.84320458984375,4.4139404296875,-13.708984375,8.386138916015625
1713358381836153300,1.8531533203125,0.9447479248046875,-12.454421997070312,9.858566284179688
1713358381846132500,1.863132568359375,-6.2354736328125,-13.752090454101562,11.663787841796875
1713358381856111900,1.87311181640625,-9.889022827148438,-16.852569580078125,8.817092895507812
1713358381866043400,1.88304345703125,-9.910568237304688,-18.109527587890625,5.544219970703125
1713358381876022500,1.8930224609375,-10.616851806640625,-18.080795288085938,4.6822967529296875
1713358381886002000,1.903001953125,-12.115631103515625,-17.30987548828125,5.62322998046875
1713358381895950600,1.91295068359375,-11.282440185546875,-16.373733520507812,6.375
1713358381905930000,1.922929931640625,-6.501220703125,-16.926803588867188,5.9344635009765625
1713358381915909000,1.9329091796875,-0.5707855224609375,-16.143890380859375,3.3559112548828125
1713358381925857800,1.94285791015625,3.6837158203125,-17.123123168945312,-0.2569427490234375
1713358381935837200,1.952837158203125,2.867279052734375,-18.818222045898438,-0.7597198486328125
1713358381945785900,1.962785888671875,5.3620452880859375,-16.799911499023438,0.897064208984375
1713358381955765000,1.972764892578125,3.6501922607421875,-16.361770629882812,2.0295257568359375
1713358381965744400,1.982744384765625,0.394073486328125,-15.971511840820312,3.3846435546875
1713358381975693000,1.992693115234375,-1.6218414306640625,-11.77447509765625,5.95123291015625
1713358381985669400,2.00266943359375,1.5289306640625,-13.108047485351562,3.3032379150390625
1713358381995648500,2.0126484375,5.9438323974609375,-14.058547973632812,1.5698394775390625
1713358382005597400,2.022597412109375,8.663650512695312,-12.593292236328125,2.4317474365234375
1713358382015576600,2.03257666015625,8.474502563476562,-9.088180541992188,6.5832977294921875
1713358382025555700,2.0425556640625,4.78265380859375,-9.86151123046875,6.4061279296875
1713358382035504600,2.052504638671875,0.853759765625,-12.928482055664062,-0.412567138671875
1713358382045483800,2.06248388671875,18.08721923828125,-20.123062133789062,-1.8538665771484375
1713358382055463200,2.072463134765625,9.508804321289062,-14.678634643554688,3.1069183349609375
1713358382065442300,2.0824423828125,-11.119644165039062,-3.9574127197265625,13.397201538085938
1713358382075391000,2.092390869140625,-7.94732666015625,-1.2495574951171875,22.605300903320312
1713358382085370400,2.102370361328125,-8.330398559570312,-6.33245849609375,8.884124755859375
1713358382095349500,2.112349609375,-3.304962158203125,-13.445632934570312,-9.311813354492188
1713358382105328600,2.12232861328125,19.080825805664062,-14.118392944335938,-8.3421630859375
1713358382115277600,2.132277587890625,0.858551025390625,-7.838409423828125,3.0925445556640625
1713358382125256700,2.142256591796875,-15.369354248046875,-3.940643310546875,7.3709869384765625
1713358382135236000,2.152236083984375,-5.9050750732421875,-4.9102935791015625,2.2665557861328125
1713358382145184800,2.162184814453125,6.987701416015625,-10.419357299804688,-5.1770172119140625
1713358382155164000,2.172163818359375,1.1985321044921875,-10.203872680664062,-3.022247314453125
1713358382165143300,2.182143310546875,-6.3719329833984375,-8.877487182617188,-2.5865020751953125
1713358382175092000,2.192092041015625,16.693801879882812,-12.459213256835938,-4.3055267333984375
1713358382185071000,2.202071044921875,1.3206329345703125,-7.955718994140625,1.3974609375
1713358382195020000,2.21202001953125,14.330718994140625,-11.487167358398438,-1.9855499267578125
1713358382204999200,2.221999267578125,6.8943328857421875,-13.246902465820312,0.6145477294921875
1713358382214978300,2.231978271484375,-0.4846038818359375,-6.9022674560546875,1.1412811279296875
1713358382224927200,2.24192724609375,0.6765899658203125,-7.9820556640625,0.5187835693359375
1713358382234906400,2.25190625,3.848907470703125,-5.4753265380859375,1.0263519287109375
1713358382244885800,2.2618857421875,6.6453399658203125,-8.781723022460938,-1.956817626953125
1713358382254834400,2.27183447265625,1.4427337646484375,-5.9182586669921875,1.8068695068359375
1713358382264813600,2.2818134765625,1.9431304931640625,-5.7817840576171875,0.04473876953125
1713358382274793000,2.29179296875,1.619903564453125,-2.2958221435546875,-0.4652252197265625
1713358382284741600,2.30174169921875,3.300628662109375,-5.197601318359375,-5.08843994140625
1713358382294720800,2.311720703125,5.7427215576171875,-4.5990447998046875,-5.2919464111328125
1713358382304700200,2.3217001953125,6.1401519775390625,-4.9845123291015625,-4.3725738525390625
1713358382314648800,2.33164892578125,5.697235107421875,-4.807342529296875,-3.975128173828125
1713358382324628000,2.3416279296875,6.6764678955078125,-5.28857421875,-4.8059234619140625
1713358382334607400,2.351607421875,6.6357574462890625,-6.1193695068359375,-5.58642578125
1713358382344586500,2.36158642578125,4.208038330078125,-5.4873046875,-3.192230224609375
1713358382354535400,2.371535400390625,6.1281890869140625,-5.281402587890625,-3.3694000244140625
1713358382364514600,2.3815146484375,6.901519775390625,-7.2661895751953125,-5.38531494140625
1713358382374493700,2.39149365234375,9.594985961914062,-7.4601287841796875,-5.5576934814453125
1713358382384473000,2.40147314453125,2.898406982421875,-6.87115478515625,-2.4476318359375
1713358382394421800,2.411421875,3.3078155517578125,-1.45068359375,-4.4587554931640625
1713358382404401200,2.421401123046875,-3.589874267578125,4.0535888671875,-1.9951324462890625
1713358382414380300,2.43138037109375,-2.1294097900390625,0.4096221923828125,2.987213134765625
1713358382424329000,2.441328857421875,2.2830963134765625,-1.884033203125,5.206634521484375
1713358382434308400,2.451308349609375,-0.156585693359375,-1.8289642333984375,7.710968017578125
1713358382444287500,2.46128759765625,3.0420684814453125,-2.7435455322265625,7.4643707275390625
1713358382454236200,2.471236083984375,4.449859619140625,-3.7323455810546875,4.5865325927734375
1713358382464215600,2.481215576171875,4.2367706298828125,-4.14654541015625,0.62652587890625
1713358382474164200,2.491164306640625,2.7667236328125,-4.2806243896484375,-0.139617919921875
1713358382484143400,2.501143310546875,1.873687744140625,-4.84326171875,-0.819580078125
1713358382494122800,2.511122802734375,1.768341064453125,-5.0994415283203125,-0.6280364990234375
1713358382504071400,2.521071533203125,0.942352294921875,-2.291046142578125,1.9481201171875
1713358382514050600,2.531050537109375,3.341339111328125,-2.5424346923828125,1.816436767578125
1713358382524030000,2.541030029296875,1.212890625,-11.163955688476562,1.2490234375
1713358382533980200,2.550980224609375,1.73004150390625,-9.909393310546875,3.8898162841796875
1713358382543959300,2.560959228515625,0.93756103515625,-8.851150512695312,5.450836181640625
1713358382553938700,2.570938720703125,0.4802703857421875,-7.27337646484375,7.7181549072265625
1713358382563887400,2.580887451171875,1.028533935546875,-6.4832916259765625,7.7923736572265625
1713358382573866800,2.59086669921875,2.20648193359375,-7.49603271484375,9.034957885742188
1713358382583846000,2.600845947265625,2.98699951171875,-10.067413330078125,8.711746215820312
1713358382593794600,2.610794677734375,8.92462158203125,-11.020294189453125,11.070037841796875
1713358382603774000,2.62077392578125,6.755462646484375,-14.5206298828125,9.602386474609375
1713358382613753000,2.630753173828125,5.57513427734375,-13.634765625,8.170654296875
1713358382623701800,2.64070166015625,3.6334228515625,-10.840728759765625,7.9144744873046875
1713358382633681200,2.65068115234375,0.8465728759765625,-9.44970703125,5.4268951416015625
1713358382643660300,2.660660400390625,0.3342132568359375,-9.684341430664062,5.3167724609375
1713358382653639700,2.6706396484375,1.0309295654296875,-11.410552978515625,2.3264007568359375
1713358382663618800,2.680618896484375,2.6374359130859375,-10.483993530273438,-0.7381744384765625
1713358382673567500,2.6905673828125,5.1657257080078125,-11.319580078125,-3.5010833740234375
1713358382683547000,2.700546875,1.6222991943359375,-11.34112548828125,-0.7693023681640625
1713358382693495600,2.71049560546875,2.19451904296875,-12.859054565429688,0.047119140625
1713358382703474700,2.720474609375,3.5879364013671875,-13.120010375976562,-0.5969085693359375
1713358382713454000,2.7304541015625,0.6933441162109375,-13.967559814453125,-0.3790435791015625
1713358382723402800,2.74040283203125,3.0396728515625,-14.527801513671875,-6.2639923095703125
1713358382733382100,2.750382080078125,4.5121002197265625,-11.393798828125,-8.387649536132812
1713358382743361300,2.760361328125,6.362823486328125,-12.502304077148438,-4.5593109130859375
1713358382753310000,2.77031005859375,6.80096435546875,-10.747360229492188,-8.981414794921875
1713358382763289300,2.780289306640625,6.2071990966796875,-8.729049682617188,1.70391845703125
1713358382773268500,2.7902685546875,3.298248291015625,-2.8871917724609375,54.4697265625
1713358382783217200,2.800217041015625,-0.9251251220703125,-13.445632934570312,29.14385986328125
1713358382793196500,2.810196533203125,-9.740585327148438,-15.509429931640625,-0.5586090087890625
1713358382803175700,2.82017578125,-1.69366455078125,-11.8271484375,-0.2258148193359375
1713358382813124400,2.830124267578125,-1.794219970703125,-16.100799560546875,3.738983154296875
1713358382823103700,2.840103759765625,-7.18597412109375,-16.859756469726562,2.5107574462890625
1713358382833083000,2.850082763671875,-12.6495361328125,-16.110366821289062,0.6337127685546875
1713358382843031600,2.860031494140625,-5.249053955078125,-15.686599731445312,1.5435028076171875
1713358382853011000,2.870010986328125,-1.8756256103515625,-15.289169311523438,-0.0151214599609375
1713358382862990000,2.879989990234375,-3.1756744384765625,-16.167831420898438,-2.675079345703125
1713358382872939000,2.88993896484375,-4.88275146484375,-14.642730712890625,-2.833099365234375
1713358382882918100,2.899918212890625,-5.07427978515625,-12.267684936523438,-2.4763641357421875
1713358382892897300,2.909897216796875,-3.632965087890625,-11.884613037109375,-1.02069091796875
1713358382902846200,2.91984619140625,-2.7303619384765625,-11.3507080078125,-0.0845489501953125
1713358382912825300,2.929825439453125,-2.2658843994140625,-10.033889770507812,-0.37664794921875
1713358382922804700,2.9398046875,-2.7351531982421875,-9.50238037109375,0.70074462890625
1713358382932783900,2.949783935546875,-4.298553466796875,-10.050643920898438,-0.3119964599609375
1713358382942732500,2.959732666015625,-4.044769287109375,-10.534271240234375,-1.8371124267578125
1713358382952712000,2.9697119140625,-2.8357086181640625,-9.51434326171875,-5.0453338623046875
1713358382962691000,2.979691162109375,-1.614654541015625,-6.686798095703125,-10.216812133789062
1713358382972639700,2.9896396484375,-0.63543701171875,-6.138519287109375,-6.4291839599609375
1713358382982619100,2.999619140625,-0.6881103515625,-7.39068603515625,-3.5369873046875
1713358382992598300,3.009598388671875,-2.500518798828125,-6.6269378662109375,-4.3414459228515625
1713358383002547000,3.019546875,-2.0025177001953125,-5.91107177734375,-3.2640533447265625
1713358383012526300,3.0295263671875,-1.506927490234375,-6.2462615966796875,-1.8634490966796875
1713358383022505500,3.03950537109375,-1.0879364013671875,-6.0236053466796875,-0.393402099609375
1713358383032454400,3.049454345703125,-1.6050872802734375,-5.0587310791015625,0.3344268798828125
1713358383042433500,3.05943359375,-2.2108154296875,-6.052337646484375,-0.97998046875
1713358383052412700,3.06941259765625,-2.806976318359375,-7.426605224609375,-2.5410003662109375
1713358383062361600,3.079361572265625,-2.426300048828125,-9.9884033203125,-4.2432861328125
1713358383072344800,3.0893447265625,-1.887603759765625,-10.014739990234375,-1.9400634765625
1713358383082324000,3.099323974609375,-1.32257080078125,-9.473648071289062,-1.7892303466796875
1713358383092272600,3.109272705078125,-2.0623779296875,-8.755386352539062,-2.718170166015625
1713358383102252000,3.119251953125,-1.1669464111328125,-8.410614013671875,-3.5872650146484375
1713358383112231200,3.129231201171875,-0.93231201171875,-7.7833404541015625,-2.5338287353515625
1713358383122180000,3.13918017578125,-1.3153839111328125,-7.438568115234375,-1.133209228515625
1713358383132159200,3.1491591796875,-0.9706268310546875,-6.538360595703125,-2.2872161865234375
1713358383142138400,3.159138427734375,-0.2787017822265625,-6.8950958251953125,1.0742340087890625
1713358383152087300,3.16908740234375,-0.747955322265625,-8.724258422851562,1.3639373779296875
1713358383162066400,3.17906640625,-1.0927276611328125,-10.0626220703125,-0.529876708984375
1713358383172045800,3.1890458984375,-1.3417205810546875,-11.681106567382812,-1.554595947265625
1713358383181994500,3.198994384765625,0.3390045166015625,-9.50238037109375,-1.05419921875
1713358383191973600,3.2089736328125,0.408447265625,-5.757843017578125,-1.8107757568359375
1713358383201953000,3.218953125,-2.11505126953125,-5.872772216796875,-2.9743499755859375
1713358383211901700,3.228901611328125,-3.59466552734375,-9.325210571289062,-3.3382720947265625
1713358383221880800,3.238880859375,-2.3305206298828125,-8.695526123046875,-1.70782470703125
1713358383231860200,3.248860107421875,-2.7471160888671875,-3.468994140625,-0.4269256591796875
1713358383241839400,3.25883935546875,-4.645721435546875,-6.7897491455078125,-0.1587677001953125
1713358383251788000,3.2687880859375,-1.4470672607421875,-7.4864654541015625,0.3392181396484375
1713358383261767400,3.278767333984375,-0.8868255615234375,-10.589340209960938,0.5547027587890625
1713358383271746600,3.28874658203125,-0.5540313720703125,-12.289230346679688,0.6983489990234375
1713358383281695500,3.298695556640625,-0.5516357421875,-13.134384155273438,-0.328765869140625
1713358383291674600,3.308674560546875,-0.7000732421875,-13.155929565429688,-1.30560302734375
1713358383301653800,3.31865380859375,-0.915557861328125,-12.361053466796875,-1.89935302734375
1713358383311602700,3.328602783203125,-0.7072601318359375,-10.4959716796875,-1.8323211669921875
1713358383321581800,3.338581787109375,-0.822174072265625,-8.506393432617188,-1.6168365478515625
1713358383331561200,3.348561279296875,-1.0089263916015625,-7.7091217041015625,-1.0877227783203125
1713358383341510000,3.358510009765625,-1.327362060546875,-7.7258758544921875,-0.561004638671875
1713358383351489000,3.368489013671875,-2.110260009765625,-8.125717163085938,-0.213836669921875
1713358383361468400,3.378468505859375,-2.5579681396484375,-7.06268310546875,1.4070281982421875
1713358383371417000,3.3884169921875,-2.5076904296875,-6.9022674560546875,1.476470947265625
1713358383381396200,3.398396240234375,-2.531646728515625,-7.563079833984375,-0.022308349609375
1713358383391375600,3.408375732421875,-2.3592529296875,-7.2542266845703125,-0.5178985595703125
1713358383401324300,3.41832421875,1.387664794921875,4.7263641357421875,-1.6838836669921875
1713358383411303400,3.428303466796875,-3.199615478515625,8.092605590820312,7.5457611083984375
1713358383421282800,3.43828271484375,-0.6258544921875,-14.661880493164062,1.9193878173828125
1713358383431231500,3.4482314453125,-5.7997283935546875,-33.111602783203125,-13.717132568359375
1713358383441211000,3.4582109375,-4.693603515625,-29.77886962890625,-7.6861419677734375
1713358383451190000,3.46818994140625,-1.53326416015625,-18.655410766601562,-1.6144561767578125
1713358383461138700,3.478138671875,-1.255523681640625,-13.893341064453125,-2.9408416748046875
1713358383471118000,3.4881181640625,-2.4454498291015625,-13.926864624023438,-2.811553955078125
1713358383481097200,3.49809716796875,-3.92266845703125,-13.088897705078125,-3.730926513671875
1713358383491046000,3.5080458984375,-4.46136474609375,-11.448867797851562,-3.350250244140625
1713358383501025300,3.518025390625,-3.144561767578125,-10.558212280273438,-1.839508056640625
1713358383511004400,3.52800439453125,-1.61944580078125,-10.869461059570312,-0.7884521484375
1713358383520983800,3.53798388671875,-0.9849853515625,-11.149581909179688,0.2769775390625
1713358383530932500,3.547932373046875,-0.7934417724609375,-11.683486938476562,0.865936279296875
1713358383540911600,3.55791162109375,-1.0879364013671875,-12.186279296875,1.1843719482421875
1713358383550891000,3.56789111328125,-1.4686126708984375,-11.614059448242188,1.1484527587890625
1713358383560839700,3.577839599609375,-1.5691680908203125,-9.804046630859375,1.1676177978515625
1713358383570818800,3.58781884765625,-1.3560791015625,-8.001205444335938,0.7893218994140625
1713358383580798200,3.597798095703125,-1.3776397705078125,-7.5032196044921875,0.1859893798828125
1713358383590747000,3.607746826171875,-2.82373046875,-7.6971435546875,-0.4173431396484375
1713358383600726000,3.61772607421875,-2.838104248046875,-8.247817993164062,-0.7956390380859375
1713358383610705400,3.627705322265625,-0.661773681640625,-8.513565063476562,-1.4779815673828125
1713358383620654000,3.637654052734375,-1.9019622802734375,-7.500823974609375,-1.52825927734375
1713358383630633500,3.647633544921875,-0.8078155517578125,-8.082611083984375,-1.5354461669921875
1713358383640612600,3.657612548828125,0.0253753662109375,-7.395477294921875,-1.1619415283203125
1713358383650561300,3.667561279296875,-0.0536346435546875,-6.6413116455078125,-1.0757598876953125
1713358383660540700,3.677540771484375,-0.5803680419921875,-6.8232574462890625,-1.4636077880859375
1713358383670519800,3.687519775390625,-1.0592041015625,-7.6875762939453125,-1.406158447265625
1713358383680468500,3.697468505859375,-1.2315826416015625,-8.642852783203125,-1.058990478515625
1713358383690448000,3.70744775390625,-1.1334228515625,-9.423370361328125,-0.8004150390625
1713358383700427000,3.717427001953125,-1.063995361328125,-9.667572021484375,-0.244964599609375
1713358383710375700,3.727375732421875,-1.020904541015625,-9.557449340820312,0.1811981201171875
1713358383720355000,3.73735498046875,-1.06878662109375,-9.4927978515625,0.3488006591796875
1713358383730334200,3.747334228515625,-1.17413330078125,-9.24859619140625,0.53314208984375
1713358383740283100,3.757283203125,-1.1310272216796875,-8.867919921875,0.717498779296875
1713358383750262300,3.76726220703125,-1.1310272216796875,-8.906219482421875,0.377532958984375
1713358383760241400,3.777241455078125,-1.08074951171875,-8.937347412109375,0.3488006591796875
1713358383770190300,3.7871904296875,-1.0185089111328125,-8.707504272460938,0.2745819091796875
1713358383780169500,3.79716943359375,-1.3991851806640625,-8.705108642578125,-0.4915618896484375
1713358383790148900,3.80714892578125,-1.03765869140625,-8.5830078125,-0.98956298828125
1713358383800128000,3.8171279296875,-0.92034912109375,-8.669189453125,-1.9232940673828125
1713358383810076700,3.82707666015625,-0.5659942626953125,-8.961288452148438,-1.5186767578125
1713358383820056000,3.83705615234375,-0.61627197265625,-9.37548828125,-1.6982421875
1713358383830035200,3.84703515625,-0.537261962890625,-9.315628051757812,-0.625640869140625
1713358383839983900,3.85698388671875,-0.769500732421875,-9.437728881835938,1.5004119873046875
1713358383849963300,3.86696337890625,-0.5635986328125,-9.97882080078125,0.5666656494140625
1713358383859942400,3.8769423828125,-0.503753662109375,-10.436111450195312,-0.45086669921875
1713358383869891000,3.88689111328125,-0.8461151123046875,-10.153594970703125,0.2769775390625
1713358383879870500,3.896870361328125,-2.194061279296875,-10.014739990234375,0.4541473388671875
1713358383889849600,3.906849609375,-2.711212158203125,-9.986007690429688,0.284149169921875
1713358383899798300,3.91679833984375,-2.22039794921875,-9.827987670898438,0.0590972900390625
1713358383909777700,3.926777587890625,-1.5907135009765625,-9.4927978515625,0.109375
1713358383919756800,3.9367568359375,-1.128631591796875,-9.497589111328125,0.2482452392578125
1713358383929705700,3.946705810546875,-0.874847412109375,-9.691513061523438,0.83721923828125
1713358383939684900,3.956684814453125,-0.587554931640625,-9.952484130859375,1.23944091796875
1713358383949664000,3.9666640625,-0.2475738525390625,-10.155990600585938,1.28253173828125
1713358383959613000,3.976613037109375,-0.314605712890625,-10.493576049804688,1.483642578125
1713358383969592000,3.986592041015625,-0.3696746826171875,-10.785675048828125,1.8236236572265625
1713358383979571500,3.996571533203125,-0.556427001953125,-10.977203369140625,1.730255126953125
1713358383989520100,4.00652001953125,-1.023284912109375,-11.10888671875,1.186767578125
1713358383999499300,4.016499267578125,-1.61944580078125,-11.041854858398438,0.379913330078125
1713358384009478700,4.026478759765625,-1.9642181396484375,-10.807220458984375,-0.0701904296875
1713358384019427300,4.03642724609375,-1.9426727294921875,-10.553436279296875,-0.3790435791015625
1713358384029406500,4.046406494140625,-1.5955047607421875,-10.3594970703125,-0.6112823486328125
1713358384039355400,4.05635546875,-1.1334228515625,-10.155990600585938,-0.6711273193359375
1713358384049334500,4.06633447265625,-0.769500732421875,-9.952484130859375,-0.4628448486328125
1713358384059313700,4.076313720703125,-0.6234588623046875,-9.808837890625,-0.213836669921875
1713358384069293000,4.08629296875,-0.38165283203125,-9.674758911132812,0.2003631591796875
1713358384079241700,4.09624169921875,-0.0727996826171875,-9.78729248046875,0.31048583984375
1713358384089221000,4.10622119140625,-0.376861572265625,-9.885452270507812,-0.0151214599609375
1713358384099200300,4.1162001953125,-0.4534759521484375,-10.055435180664062,0.3511962890625
1713358384109179400,4.126179443359375,-0.2858734130859375,-10.134445190429688,0.53076171875
1713358384119128300,4.13612841796875,-0.1182861328125,-10.096145629882812,0.40625
1713358384129107500,4.146107421875,-0.1901092529296875,-10.04107666015625,0.49005126953125
1713358384139086800,4.1560869140625,-0.2954559326171875,-9.997970581054688,0.4709014892578125
1713358384149035500,4.166035400390625,-0.407989501953125,-9.899810791015625,0.4613189697265625
1713358384159014700,4.1760146484375,-0.5109405517578125,-9.825592041015625,0.4445648193359375
1713358384168994000,4.185994140625,-0.6545867919921875,-9.832778930664062,0.5020294189453125
1713358384178942700,4.195942626953125,-0.63543701171875,-9.87347412109375,0.5355377197265625
1713358384188921900,4.205921875,-0.6330413818359375,-9.875869750976562,0.5451202392578125
1713358384198901200,4.2159013671875,-0.60430908203125,-9.813629150390625,0.6720123291015625
1713358384208850000,4.225849853515625,-0.4965667724609375,-9.74658203125,0.7246856689453125
1713358384218829000,4.2358291015625,-0.4271392822265625,-9.631668090820312,0.7725677490234375
1713358384228808400,4.245808349609375,-0.345733642578125,-9.511947631835938,0.7151031494140625
1713358384238757000,4.255757080078125,-0.2810821533203125,-9.420974731445312,0.6720123291015625
1713358384248736500,4.265736572265625,-0.1206817626953125,-9.274932861328125,0.442169189453125
1713358384258715600,4.275715576171875,0.0301513671875,-9.11212158203125,0.40625
1713358384268664300,4.285664306640625,-0.029693603515625,-9.073822021484375,0.525970458984375
1713358384278643700,4.295643798828125,0.0804290771484375,-8.942138671875,0.609771728515625
1713358384288622800,4.305622802734375,0.2336578369140625,-8.887069702148438,0.8156585693359375
1713358384298571500,4.315571533203125,0.183380126953125,-8.937347412109375,1.150848388671875
1713358384308551000,4.325551025390625,0.29351806640625,-9.033111572265625,1.3663330078125
1713358384318530000,4.335530029296875,0.310272216796875,-9.1336669921875,1.4118194580078125
1713358384328478700,4.345478759765625,0.1378936767578125,-9.136062622070312,1.5865936279296875
1713358384338458000,4.3554580078125,0.0852203369140625,-9.071426391601562,1.82122802734375
1713358384348437200,4.365437255859375,-0.0057525634765625,-9.083389282226562,1.8547515869140625
1713358384358386000,4.375385986328125,-0.2427825927734375,-9.234222412109375,1.9672698974609375
1713358384368365300,4.385365234375,-0.5276947021484375,-9.490402221679688,2.04150390625
1713358384378344400,4.395344482421875,-0.7862701416015625,-9.782501220703125,2.03192138671875
1713358384388323800,4.40532373046875,-0.683319091796875,-10.050643920898438,1.984039306640625
1713358384398272500,4.4152724609375,-0.3385467529296875,-10.31640625,1.773345947265625
1713358384408251600,4.425251708984375,-0.20208740234375,-10.503158569335938,1.6632080078125
1713358384418231000,4.43523095703125,-0.5181121826171875,-10.462448120117188,1.6536407470703125
1713358384428179700,4.4451796875,-0.7503509521484375,-10.235000610351562,1.8715057373046875
1713358384438159000,4.4551591796875,-0.240386962890625,-10.646804809570312,1.9720611572265625
1713358384448138200,4.46513818359375,0.8346099853515625,-12.265289306640625,1.5482940673828125
1713358384458087000,4.4750869140625,0.920806884765625,-14.240509033203125,0.0662841796875
1713358384468066300,4.48506640625,-0.5635986328125,-14.4583740234375,-2.11004638671875
1713358384478045400,4.49504541015625,-2.0336456298828125,-12.1240234375,-3.2017974853515625
1713358384487994000,4.504994140625,-2.0503997802734375,-9.660400390625,-2.167510986328125
1713358384497973500,4.514973388671875,-1.253143310546875,-8.36273193359375,0.6815948486328125
1713358384507952600,4.52495263671875,-0.3433380126953125,-8.278945922851562,2.395843505859375
1713358384517901300,4.5349013671875,0.41082763671875,-8.913406372070312,2.810028076171875
1713358384527880700,4.544880615234375,0.5257568359375,-9.82080078125,2.5897674560546875
1713358384537859800,4.55485986328125,0.2528228759765625,-10.522308349609375,1.6871490478515625
1713358384547808800,4.564808837890625,-0.1374359130859375,-10.572586059570312,0.6504669189453125
1713358384557788000,4.574787841796875,-0.9131622314453125,-10.1368408203125,-0.6711273193359375
1713358384567767000,4.58476708984375,-1.4326934814453125,-9.562225341796875,-2.1387786865234375
1713358384577716000,4.594716064453125,-1.11187744140625,-9.018753051757812,-3.086883544921875
1713358384587695000,4.604695068359375,-0.6114959716796875,-8.717071533203125,-3.963165283203125
1713358384597674500,4.614674560546875,-0.1518096923828125,-8.67877197265625,-3.996673583984375
1713358384607623200,4.624623046875,0.061279296875,-8.798477172851562,-3.60882568359375
1713358384617602300,4.634602294921875,0.109161376953125,-9.001983642578125,-2.9216766357421875
1713358384627581700,4.644581787109375,0.257598876953125,-9.17437744140625,-1.97119140625
1713358384637560800,4.654560791015625,0.1666259765625,-9.318023681640625,-1.0039215087890625
1713358384647509500,4.664509521484375,-0.0249176025390625,-9.425765991210938,-0.551422119140625
1713358384657489000,4.674489013671875,-0.235595703125,-9.466461181640625,-0.4053802490234375
1713358384667468000,4.684468017578125,-0.293060302734375,-9.358718872070312,-0.592132568359375
1713358384677447400,4.694447509765625,-0.2427825927734375,-9.131271362304688,-0.9823760986328125
1713358384687396000,4.70439599609375,-0.029693603515625,-9.066635131835938,-1.2840423583984375
1713358384697375200,4.714375244140625,0.1259307861328125,-9.24859619140625,-1.4683990478515625
1713358384707354600,4.724354736328125,0.1331024169921875,-9.51434326171875,-1.7174072265625
1713358384717303300,4.73430322265625,-0.060821533203125,-9.5550537109375,-1.6743011474609375
1713358384727282400,4.744282470703125,-0.3385467529296875,-9.643630981445312,-1.537841796875
1713358384737261800,4.75426171875,-0.5229034423828125,-9.8399658203125,-1.458831787109375
1713358384747210500,4.76421044921875,-0.367279052734375,-10.134445190429688,-1.4420623779296875
1713358384757189600,4.774189697265625,-0.0991363525390625,-10.440902709960938,-1.628814697265625
1713358384767138600,4.784138671875,0.0181884765625,-10.555831909179688,-1.8802032470703125
1713358384777117700,4.79411767578125,0.3078765869140625,-10.26373291015625,-1.904144287109375
1713358384787097000,4.80409716796875,0.4275970458984375,-9.911788940429688,-1.8371124267578125
1713358384797045800,4.814045654296875,0.5449066162109375,-9.626876831054688,-1.8155670166015625
1713358384807025000,4.82402490234375,0.36773681640625,-9.35394287109375,-1.7174072265625
1713358384817004300,4.83400439453125,0.1163482666015625,-9.198318481445312,-1.480377197265625
1713358384826953000,4.843952880859375,-0.161376953125,-9.17437744140625,-1.12603759765625
1713358384836932000,4.85393212890625,-0.451080322265625,-9.363510131835938,-0.719024658203125
1713358384846911500,4.863911376953125,-0.7551422119140625,-9.648422241210938,-0.477203369140625
1713358384856860200,4.873860107421875,-1.0400543212890625,-9.866302490234375,-0.328765869140625
1713358384866839300,4.88383935546875,-1.265106201171875,-9.9141845703125,-0.161163330078125
1713358384876818700,4.893818603515625,-1.2986297607421875,-9.813629150390625,-0.0294952392578125
1713358384886767400,4.903767333984375,-1.16455078125,-9.669967651367188,-0.0199127197265625
1713358384896746800,4.913746826171875,-1.0927276611328125,-9.5670166015625,-0.0294952392578125
1713358384906726000,4.923725830078125,-1.14300537109375,-9.490402221679688,-0.0677947998046875
1713358384916674600,4.933674560546875,-1.18609619140625,-9.4185791015625,-0.201873779296875
1713358384926654000,4.943654052734375,-1.1956787109375,-9.430557250976562,-0.4652252197265625
1713358384936633000,4.953633056640625,-1.107086181640625,-9.461669921875,-0.7693023681640625
1713358384946612500,4.963612548828125,-1.0975189208984375,-9.578994750976562,-1.078155517578125
1713358384956591600,4.973591552734375,-1.0592041015625,-9.698699951171875,-1.4755859375
1713358384966540300,4.983540283203125,-0.87005615234375,-9.717849731445312,-1.8155670166015625
1713358384976519700,4.993519775390625,-0.7647247314453125,-9.61968994140625,-2.0166778564453125
1713358384986468400,5.00346826171875,-0.5803680419921875,-9.420974731445312,-2.03582763671875
1713358384996447500,5.013447509765625,-0.4223480224609375,-9.274932861328125,-1.9544219970703125
1713358385006427000,5.023427001953125,-0.3217926025390625,-9.310836791992188,-1.8323211669921875
1713358385016375600,5.03337548828125,-0.3122100830078125,-9.413787841796875,-1.691070556640625
1713358385026354700,5.043354736328125,-0.434326171875,-9.488006591796875,-1.638397216796875
1713358385036334000,5.053333984375,-0.5516357421875,-9.495193481445312,-1.607269287109375
1713358385046282800,5.06328271484375,-0.6114959716796875,-9.507171630859375,-1.564178466796875
1713358385056262100,5.07326220703125,-0.6114959716796875,-9.552658081054688,-1.4564361572265625
1713358385066241300,5.0832412109375,-0.5803680419921875,-9.705886840820312,-1.24334716796875
1713358385076190000,5.09318994140625,-0.5492401123046875,-9.763351440429688,-1.0757598876953125
1713358385086169300,5.10316943359375,-0.4702301025390625,-9.780105590820312,-0.8961944580078125
1713358385096148500,5.1131484375,-0.407989501953125,-9.801651000976562,-0.8387298583984375
1713358385106097200,5.12309716796875,-0.3696746826171875,-9.816024780273438,-0.84112548828125
1713358385116076500,5.13307666015625,-0.3385467529296875,-9.753768920898438,-0.910552978515625
1713358385126055700,5.1430556640625,-0.4055938720703125,-9.59814453125,-0.8961944580078125
1713358385136004400,5.15300439453125,-0.515716552734375,-9.456893920898438,-0.8961944580078125
1713358385145983700,5.162983642578125,-0.587554931640625,-9.332382202148438,-1.02069091796875
1713358385155963000,5.172962890625,-0.60430908203125,-9.236618041992188,-1.164337158203125
1713358385165911600,5.18291162109375,-0.4750213623046875,-9.107330322265625,-1.3558807373046875
1713358385175891000,5.192890869140625,-0.376861572265625,-9.124099731445312,-1.5091094970703125
1713358385185870000,5.2028701171875,-0.3074188232421875,-9.188735961914062,-1.6479644775390625
1713358385195819000,5.212819091796875,-0.2810821533203125,-9.145645141601562,-1.5928955078125
1713358385205798100,5.222798095703125,-0.3744659423828125,-9.1217041015625,-1.458831787109375
1713358385215777300,5.23277734375,-0.4534759521484375,-9.131271362304688,-1.3726348876953125
1713358385225756700,5.242756591796875,-0.4486846923828125,-9.181549072265625,-1.312774658203125
1713358385235735800,5.25273583984375,-0.3385467529296875,-9.377883911132812,-1.3510894775390625
1713358385245684700,5.262684814453125,-0.3433380126953125,-9.4808349609375,-1.1451873779296875
1713358385255663900,5.272663818359375,-0.4127655029296875,-9.60772705078125,-0.9297027587890625
1713358385265643000,5.28264306640625,-0.45587158203125,-9.717849731445312,-0.84112548828125
1713358385275592000,5.292592041015625,-0.4750213623046875,-9.739395141601562,-0.6902923583984375
1713358385285571000,5.302571044921875,-0.4606475830078125,-9.7034912109375,-0.539459228515625
1713358385295550500,5.312550537109375,-0.3720703125,-9.658004760742188,-0.398193359375
1713358385305499100,5.3224990234375,-0.2954559326171875,-9.65081787109375,-0.3790435791015625
1713358385315478300,5.332478271484375,-0.1254730224609375,-9.59814453125,-0.4436798095703125
1713358385325457700,5.342457763671875,-0.1326446533203125,-9.61968994140625,-0.486785888671875
1713358385335406300,5.35240625,-0.0895538330078125,-9.674758911132812,-0.635223388671875
1713358385345385500,5.362385498046875,-0.1637725830078125,-9.780105590820312,-0.8076019287109375
1713358385355364900,5.37236474609375,-0.1206817626953125,-9.9141845703125,-0.968017578125
1713358385365313500,5.3823134765625,-0.0368804931640625,-9.9884033203125,-1.20025634765625
1713358385375292700,5.392292724609375,0.05169677734375,-10.026702880859375,-1.173919677734375
1713358385385241600,5.40224169921875,0.0373382568359375,-9.89263916015625,-1.0733642578125
1713358385395220700,5.412220703125,0.0636749267578125,-9.748977661132812,-1.0302581787109375
1713358385405200100,5.4222001953125,-0.0416717529296875,-9.679550170898438,-1.042236328125
1713358385415148800,5.432148681640625,-0.00335693359375,-9.543075561523438,-1.0925140380859375
1713358385425128000,5.4421279296875,0.0253753662109375,-9.461669921875,-1.207427978515625
1713358385435107300,5.452107421875,0.0540924072265625,-9.516738891601562,-1.300811767578125
1713358385445056000,5.462055908203125,0.0157928466796875,-9.66278076171875,-1.3271484375
1713358385455035100,5.47203515625,-0.082366943359375,-10.00994873046875,-1.226593017578125
1713358385465014500,5.4820146484375,-0.00335693359375,-10.404983520507812,-1.1092681884765625
1713358385474963200,5.491963134765625,-0.00335693359375,-10.596527099609375,-0.932098388671875
1713358385484942300,5.5019423828125,0.0301513671875,-10.498367309570312,-0.8387298583984375
1713358385494921700,5.511921630859375,0.1594390869140625,-10.335556030273438,-0.857879638671875
1713358385504900900,5.52190087890625,0.1690216064453125,-10.194305419921875,-0.9129486083984375
1713358385514849800,5.531849853515625,0.3533782958984375,-9.993194580078125,-0.900970458984375
1713358385524829000,5.541828857421875,0.5880126953125,-9.859115600585938,-0.80999755859375
1713358385534808000,5.55180810546875,0.6981353759765625,-9.825592041015625,-0.5777587890625
1713358385544787500,5.561787353515625,0.853759765625,-9.863906860351562,-0.5226898193359375
1713358385554736000,5.571736083984375,0.7460174560546875,-9.899810791015625,-0.328765869140625
1713358385564715300,5.58171533203125,0.8178558349609375,-9.9141845703125,-0.4580535888671875
1713358385574694700,5.591694580078125,0.6287078857421875,-10.0003662109375,-0.55621337890625
1713358385584643300,5.601643310546875,0.214508056640625,-10.15838623046875,-0.6902923583984375
1713358385594622700,5.611622802734375,-0.5061492919921875,-10.428939819335938,-0.6687469482421875
1713358385604601900,5.621601806640625,-0.86767578125,-10.565399169921875,-0.6232452392578125
1713358385614550500,5.631550537109375,-1.5907135009765625,-10.606109619140625,-0.53466796875
1713358385624530000,5.641530029296875,-2.088714599609375,-10.627655029296875,-0.719024658203125
1713358385634509000,5.651509033203125,-3.108642578125,-11.1400146484375,-0.9392852783203125
1713358385644457700,5.661457763671875,-2.8548583984375,-11.345916748046875,-1.533050537109375
1713358385654437000,5.67143701171875,-2.6154327392578125,-11.38421630859375,-2.1651153564453125
1713358385664385800,5.6813857421875,-2.1557464599609375,-11.441680908203125,-2.483551025390625
1713358385674365000,5.691364990234375,-1.614654541015625,-11.618850708007812,-2.696624755859375
1713358385684344300,5.70134423828125,-1.2579193115234375,-11.561386108398438,-2.924072265625
1713358385694293000,5.71129296875,-1.023284912109375,-11.233383178710938,-2.897735595703125
1713358385704272400,5.7212724609375,-0.980194091796875,-10.608505249023438,-2.5074920654296875
1713358385714251500,5.73125146484375,-1.22918701171875,-9.89263916015625,-1.82513427734375
1713358385724200200,5.7412001953125,-1.5859222412109375,-9.330001831054688,-1.1499786376953125
1713358385734179600,5.7511796875,-2.036041259765625,-8.87030029296875,-0.55621337890625
1713358385744158700,5.76115869140625,-2.4765777587890625,-8.532730102539062,-0.3551025390625
1713358385754107400,5.771107421875,-2.73992919921875,-8.259780883789062,-0.414947509765625
1713358385764086800,5.781086669921875,-2.9578094482421875,-8.037124633789062,-0.783660888671875
1713358385774066000,5.79106591796875,-3.0009002685546875,-8.03472900390625,-1.3510894775390625
1713358385784045300,5.80104541015625,-2.797393798828125,-8.113739013671875,-2.177093505859375
1713358385793994000,5.810993896484375,-2.56036376953125,-8.10894775390625,-2.6607208251953125
1713358385803973000,5.82097314453125,-2.32574462890625,-8.18316650390625,-3.07012939453125
1713358385813952500,5.830952392578125,-2.100677490234375,-8.360336303710938,-3.11322021484375
1713358385823931600,5.840931640625,-1.7439422607421875,-8.518356323242188,-4.22174072265625
1713358385833880300,5.85088037109375,-1.4686126708984375,-8.726654052734375,-3.8961181640625
1713358385843859700,5.860859619140625,-1.38720703125,-9.193527221679688,-3.4747467041015625
1713358385853838800,5.8708388671875,-1.4374847412109375,-9.741790771484375,-3.4867095947265625
1713358385863787800,5.880787841796875,-1.5907135009765625,-9.954879760742188,-3.35504150390625
1713358385873767000,5.890766845703125,-1.72479248046875,-9.854324340820312,-2.96478271484375
1713358385883746000,5.90074609375,-2.1365966796875,-9.748977661132812,-2.3446807861328125
1713358385893695000,5.910695068359375,-2.60107421875,-9.727432250976562,-1.439666748046875
1713358385903674000,5.920674072265625,-2.83331298828125,-9.93572998046875,-1.0877227783203125
1713358385913653500,5.930653564453125,-2.732757568359375,-10.254150390625,-1.0661773681640625
1713358385923602200,5.940602294921875,-2.8907623291015625,-10.4337158203125,-0.97998046875
1713358385933581300,5.950581298828125,-2.4574127197265625,-10.493576049804688,-1.152374267578125
1713358385943560700,5.960560791015625,-1.4805908203125,-10.153594970703125,-0.8602752685546875
1713358385953509400,5.97050927734375,-0.582763671875,-9.918960571289062,-0.4795989990234375
1713358385963488500,5.980488525390625,-0.187713623046875,-9.871078491210938,-0.2186279296875
1713358385973468000,5.990468017578125,0.255218505859375,-9.581390380859375,-0.0989227294921875
1713358385983416600,6.00041650390625,0.64306640625,-9.250991821289062,0.09979248046875
1713358385993395700,6.010395751953125,0.298309326171875,-9.212677001953125,0.09979248046875
1713358386003344600,6.0203447265625,0.2216949462890625,-8.958892822265625,0.3535919189453125
1713358386013323800,6.03032373046875,0.236053466796875,-8.633285522460938,0.58343505859375
1713358386023303000,6.040302978515625,0.28155517578125,-8.338790893554688,0.4182281494140625
1713358386033251800,6.050251953125,0.2264862060546875,-8.20233154296875,0.0662841796875
1713358386043231000,6.06023095703125,0.066070556640625,-8.128097534179688,-0.2784881591796875
1713358386053210400,6.07021044921875,0.0900115966796875,-8.125717163085938,-0.666351318359375
1713358386063159000,6.080158935546875,0.35577392578125,-8.10894775390625,-0.98956298828125
1713358386073138200,6.09013818359375,0.53533935546875,-8.1304931640625,-1.2529296875
1713358386083117600,6.10011767578125,0.542510986328125,-8.16162109375,-1.343902587890625
1713358386093096700,6.1100966796875,0.657440185546875,-8.075439453125,-1.291229248046875
1713358386103076000,6.120076171875,0.8106689453125,-7.977264404296875,-1.078155517578125
1713358386113024800,6.130024658203125,1.081207275390625,-8.01318359375,-0.7645111083984375
1713358386123004000,6.14000390625,1.229644775390625,-8.14007568359375,-0.5155181884765625
1713358386132983300,6.1499833984375,1.059661865234375,-8.264572143554688,-0.434112548828125
1713358386142932000,6.159931884765625,1.0524749755859375,-8.219085693359375,-0.2425689697265625
1713358386152911000,6.1699111328125,1.11712646484375,-8.199935913085938,0.047119140625
1713358386162890500,6.179890380859375,1.1817626953125,-8.1304931640625,0.4445648193359375
1713358386172839200,6.189839111328125,1.1793670654296875,-8.058670043945312,0.9090423583984375
1713358386182818300,6.199818359375,1.23443603515625,-8.041915893554688,1.45013427734375
1713358386192797700,6.209797607421875,1.3517608642578125,-8.187957763671875,2.089385986328125
1713358386202746400,6.219746337890625,1.6031494140625,-8.441741943359375,2.8842620849609375
1713358386212725800,6.229725830078125,1.8545379638671875,-8.767349243164062,3.564208984375
1713358386222705000,6.239704833984375,1.99578857421875,-9.08099365234375,4.066986083984375
1713358386232653600,6.249653564453125,1.7659454345703125,-9.53350830078125,4.3542938232421875
1713358386242633000,6.259633056640625,1.2727508544921875,-10.110504150390625,4.308807373046875
1713358386252581600,6.26958154296875,0.8082733154296875,-10.658782958984375,3.961639404296875
1713358386262560800,6.279560791015625,0.2432403564453125,-11.245361328125,3.209869384765625
1713358386272540200,6.2895400390625,-0.249969482421875,-11.812774658203125,2.4269561767578125
1713358386282488800,6.29948876953125,-0.67852783203125,-12.320358276367188,1.5889892578125
1713358386292468000,6.309468017578125,-0.958648681640625,-12.976364135742188,0.04473876953125
1713358386302447400,6.319447265625,-0.7288055419921875,-13.534210205078125,-0.8076019287109375
1713358386312396000,6.32939599609375,-0.2667236328125,-13.541397094726562,-1.0135040283203125
1713358386322375400,6.33937548828125,0.8082733154296875,-12.875808715820312,-0.83154296875
1713358386332354600,6.3493544921875,2.728424072265625,-12.341903686523438,1.0191650390625
1713358386342303200,6.35930322265625,4.155364990234375,-12.413726806640625,2.7477874755859375
1713358386352282600,6.36928271484375,2.7164459228515625,-13.323516845703125,3.2457733154296875
1713358386362261800,6.37926171875,0.5185699462890625,-13.764053344726562,2.608917236328125
1713358386372241200,6.3892412109375,-0.56121826171875,-13.153533935546875,1.2202911376953125
1713358386382220300,6.39922021484375,-0.6545867919921875,-12.516677856445312,0.695953369140625
1713358386392169000,6.4091689453125,-0.43670654296875,-12.933273315429688,-0.223419189453125
1713358386402148400,6.4191484375,-0.4271392822265625,-14.348236083984375,-3.2592620849609375
1713358386412127500,6.42912744140625,-2.6824798583984375,-15.5477294921875,-6.003021240234375
1713358386422076200,6.439076171875,-5.1676483154296875,-14.281204223632812,-5.4882659912109375
1713358386432055600,6.4490556640625,-4.487701416015625,-11.379425048828125,-2.24652099609375
1713358386442034700,6.45903466796875,-2.77105712890625,-8.714691162109375,0.5235748291015625
1713358386451983400,6.4689833984375,-1.6290283203125,-7.1608428955078125,1.847564697265625
1713358386461962800,6.478962646484375,-1.3584747314453125,-6.4737091064453125,1.5267486572265625
1713358386471942000,6.48894189453125,-1.820556640625,-5.8703765869140625,0.394287109375
1713358386481890600,6.498890625,-2.22039794921875,-5.618988037109375,-0.3646697998046875
1713358386491870000,6.508869873046875,-1.688873291015625,-6.2414703369140625,-0.58734130859375
1713358386501849000,6.51884912109375,-1.339324951171875,-7.63250732421875,-0.9823760986328125
1713358386511798000,6.528798095703125,-0.9179534912109375,-8.822418212890625,-1.786834716796875
1713358386521777200,6.538777099609375,-0.69049072265625,-9.665176391601562,-2.991119384765625
1713358386531756300,6.54875634765625,-0.4917755126953125,-10.239791870117188,-3.8075408935546875
1713358386541705200,6.558705322265625,-0.7120513916015625,-10.321197509765625,-4.4060821533203125
1713358386551684400,6.568684326171875,-1.159759521484375,-9.993194580078125,-4.4970703125
1713358386561663700,6.578663818359375,-1.6433868408203125,-9.430557250976562,-3.8913421630859375
1713358386571612400,6.5886123046875,-1.3632659912109375,-8.882278442382812,-3.42926025390625
1713358386581591600,6.598591552734375,-0.7862701416015625,-8.650039672851562,-3.309539794921875
1713358386591540200,6.608540283203125,-0.060821533203125,-8.697921752929688,-3.2329254150390625
1713358386601519600,6.61851953125,0.3797149658203125,-8.681167602539062,-2.9743499755859375
1713358386611498800,6.628498779296875,0.4323883056640625,-8.190353393554688,-2.4715728759765625
1713358386621447700,6.63844775390625,0.4180145263671875,-7.8144683837890625,-1.873016357421875
1713358386631426800,6.6484267578125,-0.0105438232421875,-8.010787963867188,-1.1978607177734375
1713358386641406000,6.658406005859375,-0.6258544921875,-8.650039672851562,-1.037445068359375
1713358386651385300,6.66838525390625,-1.17413330078125,-9.51434326171875,-1.02069091796875
1713358386661334000,6.678333984375,-1.5045318603515625,-10.237396240234375,-0.92730712890625
1713358386671313400,6.6883134765625,-1.61944580078125,-10.531890869140625,-0.5107269287109375
1713358386681292500,6.69829248046875,-1.3991851806640625,-10.448089599609375,0.018402099609375
1713358386691267800,6.708267822265625,-1.04962158203125,-10.067413330078125,0.241058349609375
1713358386701216500,6.718216552734375,-0.8652801513671875,-9.51434326171875,0.0950164794921875
1713358386711196000,6.72819580078125,-0.7455596923828125,-9.0474853515625,0.008819580078125
1713358386721175000,6.738175048828125,-0.5923309326171875,-8.78411865234375,-0.2904510498046875
1713358386731123700,6.748123779296875,-0.388824462890625,-8.7003173828125,-0.572967529296875
1713358386741103000,6.75810302734375,-0.1637725830078125,-8.733840942382812,-0.666351318359375
1713358386751082200,6.768082275390625,0.078033447265625,-8.81524658203125,-0.6855010986328125
1713358386761031000,6.778031005859375,0.2049407958984375,-9.013961791992188,-0.6711273193359375
1713358386771010300,6.78801025390625,0.1857757568359375,-9.1959228515625,-0.5657958984375
1713358386780989400,6.797989501953125,-0.091949462890625,-9.2701416015625,-0.424530029296875
1713358386790938400,6.8079384765625,-0.556427001953125,-9.26055908203125,-0.2425689697265625
1713358386800917500,6.81791748046875,-1.023284912109375,-9.231826782226562,0.0016326904296875
1713358386810896600,6.827896728515625,-1.413543701171875,-9.066635131835938,0.3703460693359375
1713358386820845600,6.837845458984375,-1.6290283203125,-8.990020751953125,0.5666656494140625
1713358386830824700,6.84782470703125,-1.6793060302734375,-9.057052612304688,0.82763671875
1713358386840804000,6.85780419921875,-1.6433868408203125,-9.205490112304688,1.086212158203125
1713358386850752800,6.867752685546875,-1.509307861328125,-9.308441162109375,1.1891632080078125
1713358386860732000,6.87773193359375,-1.444671630859375,-9.37548828125,1.296905517578125
1713358386870680600,6.8876806640625,-1.33453369140625,-9.464065551757812,1.335205078125
1713358386880660000,6.897659912109375,-1.3369293212890625,-9.444915771484375,1.37591552734375
1713358386890639000,6.90763916015625,-1.308197021484375,-9.327606201171875,1.2993011474609375
1713358386900588000,6.917588134765625,-1.42791748046875,-9.413787841796875,1.05987548828125
1713358386910567200,6.927567138671875,-1.466217041015625,-9.51434326171875,0.7342681884765625
1713358386920546300,6.93754638671875,-1.3058013916015625,-9.744186401367188,0.367950439453125
1713358386930525700,6.947525634765625,-0.6857147216796875,-10.007553100585938,0.0543060302734375
1713358386940474400,6.957474365234375,-0.09674072265625,-10.26373291015625,-0.235382080078125
1713358386950453800,6.967453857421875,0.288726806640625,-10.404983520507812,-0.472412109375
1713358386960433000,6.977432861328125,0.8130645751953125,-10.373870849609375,-0.6112823486328125
1713358386970412000,6.987412109375,0.762786865234375,-10.1368408203125,-0.55621337890625
1713358386980361000,6.99736083984375,0.5185699462890625,-9.763351440429688,-0.223419189453125
1713358386990340000,7.007340087890625,0.0588836669921875,-9.361114501953125,0.061492919921875
1713358387000319500,7.017319580078125,-0.2858734130859375,-9.284500122070312,0.3032989501953125
1713358387010268200,7.02726806640625,-0.534881591796875,-9.40899658203125,0.41583251953125
1713358387020247300,7.037247314453125,-0.8365478515625,-9.698699951171875,0.3823089599609375
1713358387030226700,7.047226806640625,-0.989776611328125,-10.033889770507812,0.0279693603515625
1713358387040175400,7.05717529296875,-0.4869842529296875,-10.18951416015625,-0.24017333984375
1713358387050154500,7.067154541015625,0.36773681640625,-10.18951416015625,-0.4795989990234375
1713358387060134000,7.0771337890625,0.916015625,-9.866302490234375,-0.412567138671875
1713358387070082600,7.08708251953125,0.8920745849609375,-9.622085571289062,-0.1156768798828125
1713358387080061700,7.097061767578125,0.03973388671875,-9.808837890625,0.320068359375
1713358387090041000,7.107041015625,-1.147796630859375,-10.230209350585938,1.0311431884765625
1713358387099989800,7.11698974609375,-2.531646728515625,-10.534271240234375,1.6703948974609375
1713358387109969000,7.126968994140625,-3.45819091796875,-11.020294189453125,1.6009674072265625
1713358387119948300,7.1369482421875,-3.26666259765625,-11.4368896484375,0.8779144287109375
1713358387129897000,7.14689697265625,-2.478973388671875,-11.25732421875,-0.1875
1713358387139876400,7.15687646484375,-1.813385009765625,-10.462448120117188,-1.4468536376953125
1713358387149825000,7.166824951171875,-1.9498443603515625,-9.801651000976562,-2.7684478759765625
1713358387159804200,7.17680419921875,-2.215606689453125,-9.4066162109375,-4.01104736328125
1713358387169783600,7.186783447265625,-2.4095306396484375,-9.092971801757812,-5.2033538818359375
1713358387179732200,7.196732177734375,-2.56036376953125,-8.877487182617188,-6.16583251953125
1713358387189711400,7.20671142578125,-2.9434356689453125,-8.820022583007812,-6.742828369140625
1713358387199690800,7.216690673828125,-3.30975341796875,-9.138458251953125,-6.9607086181640625
1713358387209670000,7.226669921875,-3.8245086669921875,-9.969253540039062,-6.8433837890625
1713358387219618600,7.23661865234375,-3.9873199462890625,-11.154373168945312,-6.910430908203125
1713358387229598000,7.246597900390625,-3.5180511474609375,-12.169509887695312,-5.9024658203125
1713358387239577000,7.2565771484375,-2.5890960693359375,-13.088897705078125,-4.1451263427734375
1713358387249556500,7.266556396484375,-1.8899993896484375,-13.39056396484375,-2.04541015625
1713358387259505200,7.276505126953125,-2.1916656494140625,-13.057769775390625,0.1548614501953125
1713358387269484300,7.286484375,-3.7885894775390625,-12.487945556640625,1.1316986083984375
1713358387279463700,7.296463623046875,-5.4358062744140625,-12.052200317382812,1.086212158203125
1713358387289412400,7.306412353515625,-6.2713775634765625,-11.482376098632812,1.2585906982421875
1713358387299391700,7.316391845703125,-6.4030609130859375,-10.5701904296875,1.3974609375
1713358387309371000,7.326370849609375,-5.7326812744140625,-9.9261474609375,1.1891632080078125
1713358387319319600,7.336319580078125,-3.9466094970703125,-9.696304321289062,0.3511962890625
1713358387329299000,7.346298828125,-1.4734039306640625,-9.452102661132812,-0.0103302001953125
1713358387339278000,7.356278076171875,0.5712432861328125,-9.095367431640625,-0.63043212890625
1713358387349226800,7.366226806640625,1.7372283935546875,-8.75299072265625,-1.1475830078125
1713358387359206100,7.3762060546875,1.988616943359375,-8.61651611328125,-0.8650665283203125
1713358387369185300,7.386185302734375,1.3852691650390625,-8.243026733398438,-1.037445068359375
1713358387379134000,7.396134033203125,1.0572662353515625,-7.510406494140625,-0.6184539794921875
1713358387389113300,7.40611328125,0.796295166015625,-7.225494384765625,-0.7238006591796875
1713358387399092500,7.416092529296875,0.6023712158203125,-7.1656341552734375,-1.264892578125
1713358387409041400,7.42604150390625,0.509002685546875,-7.21112060546875,-1.73895263671875
1713358387419020500,7.4360205078125,0.6717987060546875,-7.1033935546875,-1.798797607421875
1713358387428999700,7.445999755859375,0.86334228515625,-7.1560516357421875,-1.9328765869140625
1713358387438948600,7.455948486328125,0.9088287353515625,-7.3356170654296875,-1.9496307373046875
1713358387448927700,7.465927734375,0.7125091552734375,-7.55828857421875,-1.75091552734375
1713358387458876400,7.47587646484375,0.3390045166015625,-7.7402496337890625,-1.5498046875
1713358387468855800,7.485855712890625,-0.0847625732421875,-7.871917724609375,-1.3151702880859375
1713358387478835000,7.4958349609375,-0.345733642578125,-7.943756103515625,-1.13800048828125
1713358387488814300,7.505814453125,-0.6019134521484375,-8.051483154296875,-0.7549285888671875
1713358387498763000,7.515762939453125,-0.2332000732421875,-7.8671417236328125,-0.5657958984375
1713358387508742100,7.5257421875,0.8968505859375,-7.6085662841796875,-0.561004638671875
1713358387518721500,7.535721435546875,1.260772705078125,-7.543914794921875,-0.635223388671875
1713358387528700700,7.54570068359375,1.30865478515625,-7.4816741943359375,-0.5107269287109375
1713358387538649300,7.5556494140625,1.4666748046875,-7.431396484375,-0.13482666015625
1713358387548628700,7.565628662109375,1.607940673828125,-7.5151824951171875,0.336822509765625
1713358387558608000,7.57560791015625,1.840179443359375,-7.627716064453125,0.9425506591796875
1713358387568556500,7.585556640625,2.072418212890625,-7.7617950439453125,1.763763427734375
1713358387578536000,7.595535888671875,2.326202392578125,-8.029937744140625,2.771728515625
1713358387588515000,7.60551513671875,2.56561279296875,-8.470474243164062,3.8850250244140625
1713358387598464000,7.615464111328125,2.7619476318359375,-9.076202392578125,5.101287841796875
1713358387608443100,7.625443115234375,2.706878662109375,-9.748977661132812,6.042205810546875
1713358387618422300,7.63542236328125,2.326202392578125,-10.440902709960938,6.2145843505859375
1713358387628371200,7.64537109375,1.2775421142578125,-11.453643798828125,5.608856201171875
1713358387638350300,7.655350341796875,0.1259307861328125,-12.607650756835938,4.2417755126953125
1713358387648329700,7.665329833984375,-0.7599334716796875,-13.606033325195312,2.3144378662109375
1713358387658278400,7.6752783203125,-0.8173980712890625,-14.080093383789062,0.38470458984375
1713358387668257500,7.685257568359375,-0.7383880615234375,-14.274017333984375,-1.7054290771484375
1713358387678237000,7.69523681640625,-0.7671051025390625,-13.938827514648438,-2.8666229248046875
1713358387688185600,7.705185546875,0.477874755859375,-12.82073974609375,-2.347076416015625
1713358387698164700,7.715164794921875,2.7164459228515625,-11.685882568359375,-0.4269256591796875
1713358387708144000,7.72514404296875,4.6916656494140625,-11.400985717773438,2.2473907470703125
1713358387718092800,7.7350927734375,4.93109130859375,-12.622024536132812,3.6671600341796875
1713358387728072000,7.745072021484375,2.3190155029296875,-15.181427001953125,3.7246246337890625
1713358387738051300,7.75505126953125,1.6582183837890625,-16.447952270507812,2.6113128662109375
1713358387748000000,7.765,1.3158416748046875,-15.037765502929688,-0.0821533203125
1713358387757979400,7.7749794921875,-1.0185089111328125,-13.352249145507812,-3.5178375244140625
1713358387767928000,7.784927978515625,-2.69683837890625,-12.612442016601562,-7.50897216796875
1713358387777907200,7.7949072265625,-4.3033447265625,-11.30999755859375,-7.365325927734375
1713358387787886600,7.804886474609375,-3.726348876953125,-9.679550170898438,-2.6128387451171875
1713358387797865700,7.81486572265625,-3.441436767578125,-9.708282470703125,-0.8243560791015625
1713358387807814400,7.824814453125,-2.395172119140625,-10.90777587890625,0.0590972900390625
1713358387817793800,7.834793701171875,-1.7894439697265625,-11.621246337890625,1.541107177734375
1713358387827789800,7.844789794921875,-2.6322021484375,-11.307601928710938,2.089385986328125
1713358387837769000,7.85476904296875,-3.917877197265625,-10.237396240234375,2.0774078369140625
1713358387847717600,7.864717529296875,-4.116607666015625,-9.15521240234375,1.6129302978515625
1713358387857697000,7.874697021484375,-2.9051361083984375,-8.302886962890625,1.170013427734375
1713358387867676200,7.88467626953125,-1.6385955810546875,-7.6205291748046875,0.05670166015625
1713358387877624800,7.894624755859375,-0.2954559326171875,-7.565460205078125,-1.6695098876953125
1713358387887604200,7.904604248046875,0.50421142578125,-8.405838012695312,-3.4962921142578125
1713358387897583400,7.914583251953125,0.9184112548828125,-9.160003662109375,-5.473907470703125
1713358387907532000,7.924531982421875,1.0333251953125,-9.358718872070312,-7.470672607421875
1713358387917511400,7.934511474609375,0.9830474853515625,-8.685958862304688,-8.129074096679688
1713358387927490600,7.944490478515625,0.5544891357421875,-7.74981689453125,-7.55206298828125
1713358387937439500,7.954439453125,-0.230804443359375,-7.0387420654296875,-5.421234130859375
1713358387947418600,7.964418701171875,-0.4965667724609375,-6.8065032958984375,-3.129974365234375
1713358387957397800,7.974397705078125,-0.230804443359375,-7.0387420654296875,-1.8538665771484375
1713358387967346700,7.9843466796875,0.0062103271484375,-7.649261474609375,-1.264892578125
1713358387977325800,7.994325927734375,0.2073211669921875,-8.3292236328125,-0.879425048828125
1713358387987305200,8.00430517578125,0.4012603759765625,-8.846359252929688,-0.98956298828125
1713358387997254000,8.01425390625,0.42041015625,-9.234222412109375,-0.9368896484375
1713358388007233000,8.02423291015625,0.0804290771484375,-9.2821044921875,-0.994354248046875
1713358388017212400,8.03421240234375,-0.7120513916015625,-8.961288452148438,-1.0230865478515625
1713358388027161000,8.0441611328125,-1.40875244140625,-8.594970703125,-0.7118377685546875
1713358388037140200,8.05414013671875,-1.53564453125,-8.283721923828125,-0.276092529296875
1713358388047119600,8.06411962890625,-1.3728485107421875,-8.302886962890625,-0.01751708984375
1713358388057068300,8.074068359375,-1.2411651611328125,-8.707504272460938,-0.2186279296875
1713358388067047400,8.08404736328125,-1.3297576904296875,-9.425765991210938,-0.2641143798828125
1713358388077026800,8.09402685546875,-1.3369293212890625,-9.930938720703125,-0.4580535888671875
1713358388087006000,8.104005859375,-1.24835205078125,-9.993194580078125,-0.7070465087890625
1713358388096955000,8.113954833984375,-0.8604888916015625,-9.75616455078125,-0.92730712890625
1713358388106934000,8.12393408203125,-0.4774169921875,-9.464065551757812,-0.74774169921875
1713358388116913200,8.1339130859375,-0.0464630126953125,-8.8487548828125,-0.56817626953125
1713358388126862000,8.143862060546875,-0.0153350830078125,-8.2047119140625,-0.1156768798828125
1713358388136841200,8.15384130859375,-0.2547607421875,-7.7593994140625,0.284149169921875
1713358388146820400,8.1638203125,-0.61627197265625,-7.596588134765625,0.60498046875
1713358388156769300,8.173769287109375,-1.042449951171875,-7.615753173828125,0.6624298095703125
1713358388166748400,8.18374853515625,-1.391998291015625,-7.950927734375,0.674407958984375
1713358388176727800,8.193727783203125,-1.497344970703125,-8.472869873046875,0.37274169921875
1713358388186676500,8.203676513671875,-1.46142578125,-9.009170532226562,0.2649993896484375
1713358388196655600,8.213655517578125,-1.360870361328125,-9.962066650390625,0.2817535400390625
1713358388206635000,8.223635009765625,-0.9394989013671875,-10.86468505859375,-0.0510406494140625
1713358388216583700,8.233583740234375,-0.6019134521484375,-11.578155517578125,-0.572967529296875
1713358388226562800,8.243562744140625,-0.4055938720703125,-11.807998657226562,-0.56817626953125
1713358388236542200,8.253542236328125,0.3270416259765625,-11.463226318359375,-0.613677978515625
1713358388246491000,8.263490966796875,1.090789794921875,-11.0035400390625,-0.6328277587890625
1713358388256470000,8.273469970703125,1.9120025634765625,-10.426544189453125,-0.3479156494140625
1713358388266449400,8.283449462890625,2.7691192626953125,-9.65081787109375,0.157257080078125
1713358388276398000,8.293398193359375,2.934326171875,-8.781723022460938,1.2011260986328125
1713358388286377500,8.30337744140625,2.496185302734375,-8.14007568359375,2.127685546875
1713358388296356600,8.313356689453125,1.66778564453125,-7.9198150634765625,2.68792724609375
1713358388306305300,8.32330517578125,1.2799224853515625,-8.223876953125,2.920166015625
1713358388316284700,8.33328466796875,1.1410675048828125,-9.24859619140625,2.4509124755859375
1713358388326263800,8.343263916015625,0.489837646484375,-10.57977294921875,1.351959228515625
1713358388336212500,8.35321240234375,0.4060516357421875,-11.37225341796875,0.2075347900390625
1713358388346192000,8.36319189453125,0.868133544921875,-11.697860717773438,-0.9512481689453125
1713358388356171000,8.3731708984375,1.1314849853515625,-11.558990478515625,-1.523468017578125
1713358388366150400,8.383150390625,0.5281524658203125,-10.98199462890625,-1.111663818359375
1713358388376099000,8.39309912109375,-0.9299163818359375,-10.4959716796875,-0.845916748046875
1713358388386078200,8.403078125,-2.395172119140625,-9.981216430664062,-0.745361328125
1713358388396057600,8.4130576171875,-3.70001220703125,-9.516738891601562,-0.3479156494140625
1713358388406006300,8.42300634765625,-4.5164337158203125,-9.253372192382812,-0.1468048095703125
1713358388415985400,8.4329853515625,-4.4206695556640625,-8.939743041992188,-0.4891815185546875
1713358388425964800,8.44296484375,-3.800567626953125,-8.599761962890625,-1.612060546875
1713358388435913500,8.45291357421875,-3.1708984375,-7.9988250732421875,-3.35504150390625
1713358388445892900,8.462892822265625,-2.967376708984375,-7.680389404296875,-4.9064788818359375
1713358388455872000,8.4728720703125,-2.97216796875,-7.802490234375,-6.5345306396484375
1713358388465820700,8.482820556640625,-3.1373748779296875,-8.460891723632812,-7.8537445068359375
1713358388475800000,8.492800048828125,-3.060760498046875,-9.660400390625,-8.631851196289062
1713358388485779200,8.502779296875,-3.125396728515625,-11.147186279296875,-9.122665405273438
1713358388495727900,8.512727783203125,-3.230743408203125,-12.751312255859375,-9.613479614257812
1713358388505707300,8.522707275390625,-3.4701690673828125,-13.97235107421875,-8.581573486328125
1713358388515686400,8.532686279296875,-3.3959503173828125,-14.661880493164062,-6.1011810302734375
1713358388525635000,8.542635009765625,-3.0224456787109375,-14.810317993164062,-3.2401123046875
1713358388535614500,8.552614501953125,-3.5395965576171875,-14.42724609375,-1.173919677734375
1713358388545593600,8.562593505859375,-4.7989501953125,-14.008270263671875,0.0327606201171875
1713358388555542500,8.57254248046875,-6.1181488037109375,-13.548583984375,0.6887664794921875
1713358388565521700,8.582521728515625,-6.5299530029296875,-12.794403076171875,1.9193878173828125
1713358388575500800,8.592500732421875,-6.549102783203125,-11.951644897460938,2.862701416015625
1713358388585449700,8.60244970703125,-6.40545654296875,-11.197463989257812,3.43731689453125
1713358388595428900,8.612428955078125,-5.057525634765625,-10.709060668945312,2.0965576171875
1713358388605408000,8.622407958984375,-2.7088165283203125,-9.954879760742188,-0.84112548828125
1713358388615357000,8.63235693359375,-0.482208251953125,-9.286895751953125,-2.411712646484375
1713358388625336000,8.642336181640625,1.1937408447265625,-8.535125732421875,-2.8785858154296875
1713358388635315500,8.6523154296875,3.81298828125,-8.379501342773438,-2.1507568359375
1713358388645264100,8.66226416015625,3.7603302001953125,-7.8623504638671875,-0.52508544921875
1713358388655243300,8.6722431640625,3.4442901611328125,-7.2398529052734375,-0.8028106689453125
1713358388665222700,8.68222265625,1.8066558837890625,-6.559906005859375,-0.1779327392578125
1713358388675201800,8.692201904296875,0.329437255859375,-6.6484832763671875,-0.2928466796875
1713358388685150500,8.702150390625,0.2049407958984375,-6.66046142578125,-0.467620849609375
1713358388695129900,8.7121298828125,0.3892822265625,-6.4258270263671875,-0.8626708984375
1713358388705109000,8.72210888671875,0.78912353515625,-6.593414306640625,-0.6184539794921875
1713358388715057700,8.7320576171875,1.1769866943359375,-6.887908935546875,-0.5011444091796875
1713358388725037000,8.742037109375,0.9471282958984375,-7.146484375,-0.1587677001953125
1713358388735016200,8.75201611328125,0.44195556640625,-7.5128021240234375,-0.297637939453125
1713358388744965000,8.761965087890625,-0.166168212890625,-7.8671417236328125,-0.6591644287109375
1713358388754944300,8.7719443359375,-0.6019134521484375,-7.9724884033203125,-0.7429656982421875
1713358388764923400,8.78192333984375,-0.8197784423828125,-8.053878784179688,-0.9967498779296875
1713358388774872300,8.791872314453125,-0.6976776123046875,-8.1304931640625,-1.41094970703125
1713358388784851500,8.8018515625,-0.0536346435546875,-8.207107543945312,-1.650360107421875
1713358388794830800,8.811830810546875,0.8034820556640625,-8.338790893554688,-1.5928955078125
1713358388804779500,8.821779541015625,1.3637237548828125,-8.523147583007812,-1.396575927734375
1713358388814758700,8.831758544921875,1.86651611328125,-8.662017822265625,-1.025482177734375
1713358388824738000,8.841738037109375,2.2232513427734375,-8.7745361328125,-0.4748077392578125
1713358388834686700,8.851686767578125,2.37408447265625,-8.7314453125,0.58343505859375
1713358388844665900,8.861665771484375,2.5464630126953125,-8.67877197265625,1.677581787109375
1713358388854645200,8.871645263671875,2.59674072265625,-8.535125732421875,3.0494537353515625
1713358388864594000,8.881593994140625,2.5416717529296875,-8.441741943359375,4.7924346923828125
1713358388874573000,8.891572998046875,2.19451904296875,-8.592575073242188,5.841094970703125
1713358388884552400,8.901552490234375,1.756378173828125,-9.265350341796875,5.7285614013671875
1713358388894501000,8.911501220703125,0.9519195556640625,-10.266128540039062,5.4268951416015625
1713358388904480500,8.92148046875,-0.2954559326171875,-11.506317138671875,3.875457763671875
1713358388914459600,8.931459716796875,-1.1094818115234375,-12.902145385742188,1.8236236572265625
1713358388924408300,8.941408203125,-0.810211181640625,-13.953201293945312,-0.5490264892578125
1713358388934387700,8.9513876953125,-0.0560302734375,-14.6068115234375,-2.727752685546875
1713358388944366800,8.961366943359375,-0.06561279296875,-15.200576782226562,-4.0709075927734375
1713358388954346200,8.97134619140625,0.1809844970703125,-14.841445922851562,-3.4627685546875
1713358388964295000,8.981294921875,1.9742431640625,-13.694625854492188,-0.5155181884765625
1713358388974274000,8.991274169921875,3.0229034423828125,-13.045791625976562,2.127685546875
1713358388984253400,9.00125341796875,1.38287353515625,-13.385772705078125,3.1188812255859375
1713358388994202000,9.0112021484375,-0.0320892333984375,-14.982711791992188,1.9026336669921875
1713358389004181200,9.02118115234375,1.746795654296875,-15.1455078125,1.62969970703125
1713358389014160600,9.03116064453125,1.6175079345703125,-13.859817504882812,0.061492919921875
1713358389024109300,9.041109375,1.313446044921875,-12.691452026367188,-4.2887725830078125
1713358389034088400,9.05108837890625,-0.39361572265625,-11.125640869140625,-6.117950439453125
1713358389044067800,9.06106787109375,-2.167724609375,-8.295700073242188,-3.0294189453125
1713358389054016500,9.0710166015625,-2.6513519287109375,-7.16802978515625,-0.38623046875
1713358389063995600,9.08099560546875,-3.108642578125,-8.463287353515625,0.8707275390625
1713358389073975000,9.09097509765625,-3.29779052734375,-10.376266479492188,1.8332061767578125
1713358389083923700,9.100923828125,-3.1900482177734375,-12.013900756835938,1.8499603271484375
1713358389093903000,9.110903076171875,-3.3025665283203125,-12.16473388671875,1.8858795166015625
1713358389103882200,9.12088232421875,-3.4605865478515625,-11.367462158203125,1.225067138671875
1713358389113831000,9.130830810546875,-2.5029144287109375,-10.179931640625,-0.0199127197265625
1713358389123810300,9.140810302734375,-1.327362060546875,-9.169586181640625,-1.24334716796875
1713358389133789400,9.15078955078125,-0.38165283203125,-8.420196533203125,-2.4548187255859375
1713358389143738000,9.160738037109375,0.0924072265625,-8.405838012695312,-3.328704833984375
1713358389153717500,9.170717529296875,0.3126678466796875,-8.53033447265625,-4.554534912109375
1713358389163696600,9.180696533203125,0.6191253662109375,-8.147262573242188,-6.424407958984375
1713358389173645300,9.190645263671875,0.5927886962890625,-7.4864654541015625,-7.2671661376953125
1713358389183624700,9.200624755859375,0.7244720458984375,-6.8495941162109375,-6.9918212890625
1713358389193603800,9.210603759765625,0.731658935546875,-6.655670166015625,-6.120330810546875
1713358389203552800,9.220552734375,0.564056396484375,-6.79931640625,-4.7532501220703125
1713358389213532000,9.230531982421875,0.4635009765625,-7.0339508056640625,-3.455596923828125
1713358389223511000,9.240510986328125,0.2073211669921875,-7.6133575439453125,-2.969573974609375
1713358389233490400,9.250490478515625,-0.2116546630859375,-8.453720092773438,-2.5960693359375
1713358389243469600,9.260469482421875,-0.5516357421875,-9.071426391601562,-2.220184326171875
1713358389253418500,9.27041845703125,-0.88922119140625,-9.507171630859375,-2.02386474609375
1713358389263397600,9.280397705078125,-1.00653076171875,-9.610122680664062,-1.7150115966796875
1713358389273346300,9.29034619140625,-0.82696533203125,-9.35394287109375,-1.3630523681640625
1713358389283325700,9.30032568359375,-0.9514617919921875,-8.958892822265625,-1.16912841796875
1713358389293304800,9.310304931640625,-1.2148284912109375,-8.594970703125,-0.963226318359375
1713358389303253500,9.32025341796875,-1.4039764404296875,-8.410614013671875,-0.893798828125
1713358389313233000,9.33023291015625,-1.4734039306640625,-8.56146240234375,-0.6400146484375
1713358389323212000,9.3402119140625,-1.3680572509765625,-8.779327392578125,-0.5226898193359375
1713358389333160700,9.35016064453125,-1.233978271484375,-8.8798828125,-0.4891815185546875
1713358389343140000,9.36014013671875,-1.2698974609375,-9.035507202148438,-0.4221343994140625
1713358389353119200,9.370119140625,-1.17413330078125,-9.160003662109375,-0.38623046875
1713358389363068200,9.380068115234375,-0.9107666015625,-9.085784912109375,-0.2114410400390625
1713358389373047300,9.39004736328125,-0.673736572265625,-8.927764892578125,0.109375
1713358389383026400,9.4000263671875,-0.5205078125,-8.817642211914062,0.4613189697265625
1713358389392975400,9.409975341796875,-0.5229034423828125,-8.702713012695312,0.748626708984375
1713358389402954500,9.41995458984375,-0.7192230224609375,-8.839187622070312,0.8515777587890625
1713358389412933600,9.42993359375,-1.0041351318359375,-9.004379272460938,0.8300323486328125
1713358389422882600,9.439882568359375,-1.265106201171875,-9.191131591796875,0.6983489990234375
1713358389432861700,9.44986181640625,-1.4638214111328125,-9.581390380859375,0.5738525390625
1713358389442841000,9.459841064453125,-1.4374847412109375,-9.959671020507812,0.379913330078125
1713358389452789800,9.469789794921875,-1.3249664306640625,-10.385833740234375,0.109375
1713358389462769000,9.479768798828125,-0.896392822265625,-10.543853759765625,-0.233001708984375
1713358389472748300,9.489748291015625,-0.6186676025390625,-10.333160400390625,-0.3670654296875
1713358389482697000,9.499697021484375,-0.3529205322265625,-10.043472290039062,-0.319183349609375
1713358389492676000,9.509676025390625,0.0301513671875,-9.677154541015625,-0.0031585693359375
1713358389502655500,9.519655517578125,0.4132232666015625,-9.267745971679688,0.253021240234375
1713358389512634600,9.529634521484375,0.870513916015625,-9.11212158203125,-0.07977294921875
1713358389522583300,9.539583251953125,1.567230224609375,-8.88946533203125,0.073455810546875
1713358389532562700,9.549562744140625,1.8641204833984375,-8.72186279296875,-0.127655029296875
1713358389542541800,9.559541748046875,1.935943603515625,-8.714691162109375,-0.1635589599609375
1713358389552521200,9.569521240234375,1.713287353515625,-8.92059326171875,0.083038330078125
1713358389562470000,9.579469970703125,1.12908935546875,-9.274932861328125,0.485260009765625
1713358389572449000,9.589448974609375,0.4132232666015625,-9.7777099609375,0.7869415283203125
1713358389582428400,9.599428466796875,0.1043701171875,-10.292465209960938,0.7198944091796875
1713358389592377000,9.609377197265625,0.0469207763671875,-10.905380249023438,0.245849609375
1713358389602356500,9.6193564453125,-0.0440673828125,-11.537445068359375,-0.22821044921875
1713358389612335600,9.629335693359375,0.657440185546875,-11.707443237304688,-0.45086669921875
1713358389622284300,9.6392841796875,1.598358154296875,-11.374649047851562,-0.4580535888671875
1713358389632263700,9.649263671875,1.6390533447265625,-11.171142578125,-0.1779327392578125
1713358389642242800,9.659242919921875,0.65264892578125,-11.264511108398438,-0.0677947998046875
1713358389652191500,9.66919140625,-0.7192230224609375,-11.377029418945312,-0.1324310302734375
1713358389662171000,9.6791708984375,-2.22039794921875,-11.1400146484375,0.0782470703125
1713358389672119600,9.68911962890625,-3.2163848876953125,-10.75933837890625,0.1381072998046875
1713358389682098700,9.6990986328125,-3.5755157470703125,-10.043472290039062,0.3272552490234375
1713358389692078000,9.709078125,-3.3624267578125,-8.738632202148438,0.26739501953125
1713358389702026800,9.71902685546875,-3.146942138671875,-7.098602294921875,-0.8554840087890625
1713358389712006100,9.729006103515625,-2.9266815185546875,-5.906280517578125,-2.5146636962890625
1713358389721985300,9.7389853515625,-2.9697723388671875,-5.40350341796875,-3.6183929443359375
1713358389731934000,9.748933837890625,-3.2259521484375,-5.6692657470703125,-4.707763671875
1713358389741913300,9.758913330078125,-3.503692626953125,-6.55511474609375,-5.9359893798828125
1713358389751892500,9.768892578125,-3.2139892578125,-7.8144683837890625,-6.5752410888671875
1713358389761841200,9.778841064453125,-2.840484619140625,-9.727432250976562,-6.7188873291015625
1713358389771820500,9.788820556640625,-2.4717864990234375,-12.28204345703125,-7.8393707275390625
1713358389781799700,9.798799560546875,-2.6034698486328125,-14.537384033203125,-8.662979125976562
1713358389791779000,9.808779052734375,-2.4765777587890625,-15.976303100585938,-7.724456787109375
1713358389801727700,9.818727783203125,-2.00970458984375,-16.617950439453125,-5.272796630859375
1713358389811707000,9.828706787109375,-2.4239044189453125,-15.868560791015625,-2.57452392578125
1713358389821686300,9.838686279296875,-4.1573028564453125,-14.604415893554688,-1.0182952880859375
1713358389831665400,9.84866552734375,-6.204345703125,-13.424072265625,0.0279693603515625
1713358389841614000,9.858614013671875,-7.066253662109375,-12.284439086914062,1.335205078125
1713358389851593500,9.868593505859375,-6.917816162109375,-11.250137329101562,2.04150390625
1713358389861572600,9.878572509765625,-7.106964111328125,-10.730606079101562,1.6512451171875
1713358389871521300,9.888521240234375,-6.4988250732421875,-10.594131469726562,0.75341796875
1713358389881500700,9.898500732421875,-4.159698486328125,-10.512725830078125,0.590606689453125
1713358389891479800,9.908479736328125,-1.3896026611328125,-10.450485229492188,0.411041259765625
1713358389901428700,9.9184287109375,0.8513641357421875,-10.076980590820312,0.3009185791015625
1713358389911407900,9.928407958984375,2.9367218017578125,-9.538284301757812,0.2147216796875
1713358389921356500,9.9383564453125,3.3964080810546875,-9.097763061523438,0.3440093994140625
1713358389931336000,9.9483359375,2.71405029296875,-8.659622192382812,0.305694580078125
1713358389941315000,9.958315185546875,2.1514129638671875,-8.135284423828125,0.399078369140625
1713358389951263700,9.968263671875,1.5001983642578125,-7.8886871337890625,-0.07977294921875
1713358389961243100,9.9782431640625,0.7723541259765625,-7.53912353515625,-0.52508544921875
1713358389971222300,9.98822216796875,0.3773193359375,-7.110565185546875,-0.5753631591796875
1713358389981171000,9.9981708984375,0.2695770263671875,-6.9070587158203125,-0.6711273193359375
1713358389991150300,10.008150390625,0.2288818359375,-6.844818115234375,-0.94647216796875
1713358390001129500,10.01812939453125,0.3342132568359375,-6.87115478515625,-1.0973052978515625
1713358390011078400,10.028078369140625,0.44195556640625,-7.0124053955078125,-1.365447998046875
1713358390021057500,10.0380576171875,0.3701324462890625,-7.141693115234375,-1.798797607421875
1713358390031036700,10.04803662109375,0.18817138671875,-7.294921875,-2.0956878662109375
1713358390040985600,10.057985595703125,0.0062103271484375,-7.3930816650390625,-2.14117431640625
1713358390050964700,10.06796484375,-0.012939453125,-7.417022705078125,-2.177093505859375
1713358390060944100,10.077944091796875,0.0732574462890625,-7.330841064453125,-2.1651153564453125
1713358390070923300,10.08792333984375,0.4706878662109375,-7.2183074951171875,-2.1746978759765625
1713358390080872000,10.097871826171875,0.8729095458984375,-7.0962066650390625,-2.057373046875
1713358390090851300,10.107851318359375,1.1266937255859375,-7.05072021484375,-1.798797607421875
1713358390100830500,10.11783056640625,1.4259796142578125,-7.057891845703125,-1.537841796875
1713358390110809900,10.127809814453125,1.768341064453125,-7.129730224609375,-0.94647216796875
1713358390120758500,10.137758544921875,2.20648193359375,-7.3595733642578125,-0.192291259765625
1713358390130737700,10.147737548828125,2.587158203125,-7.859954833984375,0.7941131591796875
1713358390140717000,10.157717041015625,2.83856201171875,-8.472869873046875,2.0343170166015625
1713358390150665700,10.167665771484375,2.845733642578125,-9.368301391601562,3.475616455078125
1713358390160644900,10.177644775390625,2.5847625732421875,-10.371475219726562,4.509918212890625
1713358390170624300,10.187624267578125,1.9646759033203125,-11.324371337890625,4.837921142578125
1713358390180573000,10.197572998046875,0.9615020751953125,-12.114456176757812,4.531463623046875
1713358390190552000,10.207552001953125,0.0110015869140625,-12.593292236328125,2.7406005859375
1713358390200531500,10.217531494140625,-0.6114959716796875,-12.921295166015625,1.4549102783203125
1713358390210480000,10.227480224609375,-0.642608642578125,-12.734542846679688,0.77496337890625
1713358390220459500,10.23745947265625,-0.5061492919921875,-12.614837646484375,-0.9608306884765625
1713358390230438700,10.247438720703125,-0.3002471923828125,-12.739334106445312,-2.0813140869140625
1713358390240387300,10.25738720703125,-0.1422271728515625,-12.681869506835938,-2.2872161865234375
1713358390250366700,10.26736669921875,0.5880126953125,-12.380203247070312,-0.2808837890625
1713358390260345900,10.277345947265625,2.9223480224609375,-12.677093505859375,1.742218017578125
1713358390270294500,10.28729443359375,4.7012481689453125,-13.481536865234375,3.5211181640625
1713358390280274000,10.29727392578125,3.836944580078125,-15.056930541992188,4.1148681640625
1713358390290222600,10.30722265625,1.12908935546875,-16.766387939453125,3.348724365234375
1713358390300201700,10.31720166015625,0.3270416259765625,-16.297119140625,1.689544677734375
1713358390310181000,10.32718115234375,-0.0009613037109375,-13.807144165039062,-0.0893402099609375
1713358390320129800,10.3371298828125,-0.1422271728515625,-11.819961547851562,-3.1156158447265625
1713358390330109000,10.34710888671875,-0.2906646728515625,-9.950088500976562,-6.5584716796875
1713358390340088300,10.35708837890625,-1.78704833984375,-8.333999633789062,-6.498626708984375
1713358390350037000,10.367037109375,-2.986541748046875,-7.5343475341796875,-3.139556884765625
1713358390360016400,10.377016357421875,-3.6497344970703125,-7.996429443359375,-1.3774261474609375
1713358390369995500,10.38699560546875,-2.9362640380859375,-9.1025390625,-0.170745849609375
1713358390379974700,10.396974609375,-1.9881591796875,-10.278091430664062,0.578643798828125
1713358390389954000,10.4069541015625,-2.0647735595703125,-10.558212280273438,0.959320068359375
1713358390399902700,10.41690283203125,-2.4717864990234375,-9.986007690429688,0.770172119140625
1713358390409882000,10.426882080078125,-2.4957275390625,-9.614898681640625,-0.0510406494140625
1713358390419861200,10.436861328125,-2.1389923095703125,-9.459274291992188,-0.8698577880859375
1713358390429810000,10.446809814453125,-1.6098785400390625,-9.550262451171875,-1.7796478271484375
1713358390439789300,10.456789306640625,-1.17413330078125,-9.71307373046875,-2.557769775390625
1713358390449768400,10.4667685546875,-0.582763671875,-9.665176391601562,-3.62078857421875
1713358390459717000,10.476717041015625,-0.2691192626953125,-9.26055908203125,-4.123565673828125
1713358390469696500,10.486696533203125,-0.27630615234375,-8.693130493164062,-4.69818115234375
1713358390479675600,10.496675537109375,-0.1733551025390625,-8.147262573242188,-4.935211181640625
1713358390489624300,10.506624267578125,-0.101531982421875,-7.7713623046875,-4.9543609619140625
1713358390499603700,10.516603759765625,-0.17095947265625,-7.596588134765625,-5.13153076171875
1713358390509582800,10.526582763671875,-0.3265838623046875,-7.649261474609375,-4.9711151123046875
1713358390519531800,10.53653173828125,-0.6186676025390625,-7.7929229736328125,-4.4060821533203125
1713358390529511000,10.546510986328125,-0.5659942626953125,-7.9269866943359375,-3.9775238037109375
1713358390539459600,10.55645947265625,-0.4319305419921875,-8.302886962890625,-3.297576904296875
1713358390549439000,10.56643896484375,-0.1063079833984375,-8.7314453125,-2.684661865234375
1713358390559418000,10.576418212890625,0.109161376953125,-9.104934692382812,-2.34228515625
1713358390569366800,10.58636669921875,0.0924072265625,-9.26055908203125,-2.093292236328125
1713358390579346200,10.59634619140625,0.044525146484375,-9.150436401367188,-1.8155670166015625
1713358390589325300,10.6063251953125,-0.3577117919921875,-8.860733032226562,-1.413330078125
1713358390599274000,10.61627392578125,-0.800628662109375,-8.49920654296875,-0.5897369384765625
1713358390609253400,10.62625341796875,-1.22918701171875,-8.377105712890625,0.02557373046875
1713358390619232500,10.636232421875,-1.5859222412109375,-8.609344482421875,0.22430419921875
1713358390629181400,10.646181396484375,-1.6218414306640625,-9.0594482421875,0.0758514404296875
1713358390639160600,10.65616064453125,-1.3776397705078125,-9.495193481445312,0.0638885498046875
1713358390649139700,10.6661396484375,-0.968231201171875,-9.856719970703125,0.358367919921875
1713358390659119000,10.676119140625,-0.5444488525390625,-10.014739990234375,0.45892333984375
1713358390669067800,10.68606787109375,-0.3122100830078125,-9.727432250976562,0.4709014892578125
1713358390679047200,10.696047119140625,-0.1278533935546875,-9.341964721679688,0.4996337890625
1713358390689026300,10.7060263671875,-0.082366943359375,-8.884674072265625,0.559478759765625
1713358390699005400,10.71600537109375,-0.63543701171875,-8.57342529296875,0.3488006591796875
1713358390708954400,10.725954345703125,-1.011322021484375,-8.333999633789062,0.4541473388671875
1713358390718933500,10.73593359375,-1.26031494140625,-8.233444213867188,0.612152099609375
1713358390728912600,10.74591259765625,-1.3848114013671875,-8.401046752929688,0.7414398193359375
1713358390738861600,10.755861572265625,-1.645782470703125,-9.030715942382812,1.064666748046875
1713358390748840700,10.7658408203125,-1.559600830078125,-9.50238037109375,0.7103271484375
1713358390758820000,10.775820068359375,-1.57635498046875,-9.732223510742188,0.4182281494140625
1713358390768768800,10.785768798828125,-1.4470672607421875,-10.134445190429688,0.23626708984375
1713358390778748000,10.795747802734375,-0.9442901611328125,-10.282882690429688,0.0662841796875
1713358390788727300,10.805727294921875,-0.35052490234375,-10.2110595703125,0.18359375
1713358390798676000,10.815676025390625,0.2695770263671875,-10.076980590820312,-0.108489990234375
1713358390808655000,10.825655029296875,0.9662933349609375,-9.69390869140625,-0.359893798828125
1713358390818604000,10.83560400390625,1.7755279541015625,-9.1767578125,-0.70465087890625
1713358390828583200,10.845583251953125,2.433929443359375,-8.515960693359375,-0.7884521484375
1713358390838562300,10.855562255859375,2.3764801025390625,-7.9150238037109375,-0.424530029296875
1713358390848511200,10.86551123046875,1.5911712646484375,-7.7617950439453125,0.135711669921875
1713358390858490400,10.875490478515625,0.669403076171875,-8.302886962890625,0.832427978515625
1713358390868469800,10.8854697265625,0.0540924072265625,-9.612503051757812,1.3854827880859375
1713358390878418400,10.89541845703125,0.0181884765625,-11.053817749023438,1.5075836181640625
1713358390888397600,10.9053974609375,0.408447265625,-12.052200317382812,0.832427978515625
1713358390898377000,10.915376953125,0.3892822265625,-12.593292236328125,0.5762481689453125
1713358390908325600,10.92532568359375,0.9998016357421875,-12.459213256835938,0.123748779296875
1713358390918304800,10.9353046875,1.842559814453125,-12.054595947265625,-0.2569427490234375
1713358390928284200,10.9452841796875,1.74200439453125,-11.396194458007812,-0.0079345703125
1713358390938263300,10.95526318359375,0.6933441162109375,-10.349929809570312,0.691162109375
1713358390948212000,10.9652119140625,-0.831756591796875,-9.559844970703125,0.9928436279296875
1713358390958191400,10.97519140625,-2.3496856689453125,-9.339569091796875,1.191558837890625
1713358390968170500,10.98517041015625,-3.419891357421875,-9.76812744140625,1.1843719482421875
1713358390978150000,10.99514990234375,-3.6928253173828125,-10.450485229492188,0.171630859375
1713358390988098600,11.0050986328125,-3.218780517578125,-10.785675048828125,-1.353485107421875
1713358390998077700,11.01507763671875,-2.6034698486328125,-10.479217529296875,-2.548187255859375
1713358391008057000,11.02505712890625,-2.10546875,-9.763351440429688,-3.5800933837890625
1713358391018005800,11.035005859375,-2.0001220703125,-8.918197631835938,-4.44439697265625
1713358391027985200,11.044985107421875,-2.100677490234375,-8.207107543945312,-5.426025390625
1713358391037964300,11.05496435546875,-2.320953369140625,-7.797698974609375,-6.266387939453125
1713358391047913000,11.064912841796875,-2.680084228515625,-7.67559814453125,-6.9798583984375
1713358391057892400,11.074892333984375,-2.98175048828125,-7.7929229736328125,-7.3102569580078125
1713358391067871500,11.08487158203125,-3.1708984375,-8.317245483398438,-7.18096923828125
1713358391077820200,11.094820068359375,-3.388763427734375,-9.29168701171875,-6.9176025390625
1713358391087799600,11.104799560546875,-3.29779052734375,-10.563003540039062,-6.3860931396484375
1713358391097748200,11.114748291015625,-2.912322998046875,-11.757720947265625,-4.966339111328125
1713358391107727400,11.124727294921875,-2.478973388671875,-12.832717895507812,-3.2640533447265625
1713358391117706800,11.134706787109375,-2.1342010498046875,-13.79278564453125,-1.861053466796875
1713358391127655400,11.144655517578125,-2.51727294921875,-14.271621704101562,-1.1451873779296875
1713358391137634600,11.154634521484375,-3.9418182373046875,-14.149520874023438,-0.968017578125
1713358391147614000,11.164614013671875,-5.883514404296875,-13.682647705078125,-0.8387298583984375
1713358391157562600,11.174562744140625,-6.5610809326171875,-12.839889526367188,1.02874755859375
1713358391167542000,11.1845419921875,-6.4461517333984375,-11.628433227539062,1.9074249267578125
1713358391177521200,11.194521240234375,-6.4078521728515625,-10.91973876953125,0.865936279296875
1713358391187469800,11.2044697265625,-5.047943115234375,-10.175140380859375,0.22430419921875
1713358391197449200,11.21444921875,-2.871612548828125,-9.722640991210938,-0.5155181884765625
1713358391207428400,11.224428466796875,-0.5755767822265625,-9.370697021484375,-0.9752044677734375
1713358391217407700,11.23440771484375,1.87847900390625,-9.36590576171875,-0.6902923583984375
1713358391227356400,11.2443564453125,3.1809234619140625,-9.303665161132812,-0.233001708984375
1713358391237335600,11.25433544921875,3.140228271484375,-8.992416381835938,-0.161163330078125
1713358391247315000,11.26431494140625,2.3022613525390625,-8.527938842773438,-0.0582122802734375
1713358391257294000,11.274294189453125,1.4211883544921875,-8.073043823242188,-0.0390625
1713358391267242800,11.28424267578125,0.9351654052734375,-7.8312225341796875,-0.2521514892578125
1713358391277222100,11.29422216796875,0.9447479248046875,-7.6085662841796875,-0.434112548828125
1713358391287201300,11.304201171875,1.22247314453125,-7.3882904052734375,-0.60888671875
1713358391297150000,11.31414990234375,0.93756103515625,-7.364349365234375,-0.15399169921875
1713358391307129300,11.32412939453125,0.5999755859375,-7.3978729248046875,-0.0701904296875
1713358391317108500,11.3341083984375,0.0900115966796875,-7.4673004150390625,-0.486785888671875
1713358391327057400,11.344057373046875,-0.3289794921875,-7.505615234375,-0.845916748046875
1713358391337036500,11.35403662109375,-0.5659942626953125,-7.5941925048828125,-1.30560302734375
1713358391346985200,11.363985107421875,-0.5923309326171875,-7.543914794921875,-1.4755859375
1713358391356964600,11.373964599609375,-0.2523651123046875,-7.4242095947265625,-1.6312103271484375
1713358391366943700,11.38394384765625,0.183380126953125,-7.2542266845703125,-1.650360107421875
1713358391376892400,11.393892333984375,0.6717987060546875,-7.1488800048828125,-1.6958465576171875
1713358391386871800,11.403871826171875,1.069244384765625,-7.1919708251953125,-1.66473388671875
1713358391396851000,11.413850830078125,1.3924560546875,-7.3356170654296875,-1.3558807373046875
1713358391406799600,11.423799560546875,1.6773681640625,-7.618133544921875,-0.8123931884765625
1713358391416779000,11.433779052734375,2.0245208740234375,-7.96051025390625,0.0782470703125
1713358391426758100,11.443758056640625,2.2471923828125,-8.27655029296875,1.129302978515625
1713358391436707000,11.45370703125,2.4770355224609375,-8.506393432617188,2.333587646484375
1713358391446686200,11.463686279296875,2.623077392578125,-8.685958862304688,3.57379150390625
1713358391456665300,11.473665283203125,2.6206817626953125,-8.99481201171875,4.6966705322265625
1713358391466614300,11.4836142578125,2.105926513671875,-9.58856201171875,5.13958740234375
1713358391476593400,11.493593505859375,0.927978515625,-10.349929809570312,4.9097442626953125
1713358391486572800,11.50357275390625,-0.1949005126953125,-11.051422119140625,4.246551513671875
1713358391496521500,11.513521484375,-0.8987884521484375,-11.908554077148438,2.9919891357421875
1713358391506500600,11.52350048828125,-0.9131622314453125,-12.705825805664062,1.4333648681640625
1713358391516480000,11.53347998046875,-0.02252197265625,-12.861434936523438,-0.233001708984375
1713358391526459100,11.543459228515625,0.509002685546875,-13.127197265625,-2.0286407470703125
1713358391536438300,11.553438232421875,0.078033447265625,-13.811935424804688,-2.45721435546875
1713358391546387200,11.56338720703125,-0.24517822265625,-14.357818603515625,-1.3271484375
1713358391556366300,11.573366455078125,1.155426025390625,-14.238113403320312,1.35675048828125
1713358391566315000,11.58331494140625,3.3078155517578125,-14.338668823242188,3.8586883544921875
1713358391576294400,11.59329443359375,2.91278076171875,-15.633926391601562,4.2441558837890625
1713358391586273500,11.6032734375,-0.2547607421875,-17.594772338867188,2.5993499755859375
1713358391596222200,11.61322216796875,-1.54522705078125,-17.843780517578125,-1.042236328125
1713358391606201600,11.62320166015625,-0.5061492919921875,-15.952362060546875,-4.6000213623046875
1713358391616180700,11.6331806640625,1.20330810546875,-13.055374145507812,-6.615936279296875
1713358391626129700,11.643129638671875,0.8106689453125,-8.642852783203125,-8.10992431640625
1713358391636108800,11.65310888671875,-1.0352630615234375,-5.128173828125,-6.3430023193359375
1713358391646088000,11.663087890625,-2.10546875,-4.1920318603515625,-2.272857666015625
1713358391656036900,11.673036865234375,-2.828521728515625,-5.4178619384765625,0.5139923095703125
1713358391666016000,11.68301611328125,-2.5843048095703125,-8.092193603515625,2.0869903564453125
1713358391675995400,11.692995361328125,-2.246734619140625,-10.902984619140625,2.407806396484375
1713358391685944000,11.702944091796875,-3.0847015380859375,-12.6507568359375,1.9289703369140625
1713358391695923200,11.712923095703125,-4.3895416259765625,-12.691452026367188,0.8252410888671875
1713358391705902600,11.722902587890625,-4.583465576171875,-11.810394287109375,-0.546630859375
1713358391715851300,11.732851318359375,-3.52044677734375,-10.445693969726562,-1.6790924072265625
1713358391725830400,11.742830322265625,-1.9761810302734375,-9.2078857421875,-2.39495849609375
1713358391735809800,11.752809814453125,-0.9035797119140625,-8.571029663085938,-2.9743499755859375
1713358391745758500,11.762758544921875,-0.2906646728515625,-8.233444213867188,-4.0709075927734375
1713358391755737600,11.772737548828125,-0.0057525634765625,-7.9006500244140625,-5.0070343017578125
1713358391765717000,11.782717041015625,0.372528076171875,-7.58941650390625,-5.6103668212890625
1713358391775665700,11.792665771484375,0.8130645751953125,-7.077056884765625,-5.84979248046875
1713358391785645000,11.80264501953125,0.7364501953125,-6.7442626953125,-5.6678314208984375
1713358391795624200,11.812624267578125,0.4850616455078125,-6.56707763671875,-4.9615478515625
1713358391805603300,11.822603271484375,-0.087158203125,-6.72509765625,-4.2408905029296875
1713358391815552300,11.83255224609375,-0.599517822265625,-7.1800079345703125,-3.5753021240234375
1713358391825531400,11.842531494140625,-1.011322021484375,-7.9269866943359375,-3.0198516845703125
1713358391835510800,11.8525107421875,-1.212432861328125,-8.726654052734375,-2.6152191162109375
1713358391845490000,11.862489990234375,-1.200469970703125,-9.4066162109375,-2.2991943359375
1713358391855438600,11.8724384765625,-0.822174072265625,-9.643630981445312,-1.9328765869140625
1713358391865418000,11.88241796875,-0.293060302734375,-9.425765991210938,-1.724578857421875
1713358391875397000,11.892397216796875,-0.2643280029296875,-8.946914672851562,-1.4995269775390625
1713358391885345800,11.902345703125,-0.5947265625,-8.451324462890625,-1.05419921875
1713358391895325200,11.9123251953125,-0.9466705322265625,-8.24542236328125,-0.5777587890625
1713358391905273900,11.92227392578125,-1.1358184814453125,-8.396255493164062,-0.0701904296875
1713358391915253000,11.9322529296875,-1.339324951171875,-8.812850952148438,-0.0462493896484375
1713358391925232400,11.942232421875,-1.2675018310546875,-9.377883911132812,0.104583740234375
1713358391935181000,11.95218115234375,-1.0783538818359375,-9.82080078125,0.41583251953125
1713358391945160400,11.962160400390625,-0.8987884521484375,-9.933334350585938,0.2769775390625
1713358391955139600,11.9721396484375,-1.0041351318359375,-9.827987670898438,0.468505859375
1713358391965088300,11.982088134765625,-0.9969635009765625,-9.511947631835938,0.4445648193359375
1713358391975067600,11.992067626953125,-0.958648681640625,-9.1217041015625,0.485260009765625
1713358391985046800,12.002046875,-0.8389434814453125,-8.702713012695312,0.8467864990234375
1713358391994995500,12.011995361328125,-0.656982421875,-8.4896240234375,0.89227294921875
1713358392004974800,12.021974853515625,-0.4008026123046875,-8.537506103515625,0.98565673828125
1713358392014954000,12.0319541015625,-0.463043212890625,-8.733840942382812,0.9832611083984375
1713358392024902700,12.041902587890625,-0.630645751953125,-8.978042602539062,0.73187255859375
1713358392034882000,12.051882080078125,-0.831756591796875,-9.373092651367188,0.8467864990234375
1713358392044861200,12.061861083984375,-0.879638671875,-9.796859741210938,0.705535888671875
1713358392054809900,12.071809814453125,-1.0568084716796875,-10.251754760742188,0.3392181396484375
1713358392064789200,12.081789306640625,-1.3513031005859375,-10.529495239257812,0.0662841796875
1713358392074768400,12.091768310546875,-1.4159393310546875,-10.543853759765625,-0.175537109375
1713358392084747800,12.101747802734375,-1.2411651611328125,-10.275711059570312,-0.2042694091796875
1713358392094696400,12.111696533203125,-0.8556976318359375,-9.844741821289062,-0.2162322998046875
1713358392104675600,12.121675537109375,-0.3002471923828125,-9.387451171875,-0.1372222900390625
1713358392114655000,12.131655029296875,0.4515380859375,-9.18634033203125,-0.3119964599609375
1713358392124603600,12.141603759765625,1.5121612548828125,-9.341964721679688,-0.51312255859375
1713358392134583000,12.1515830078125,2.29986572265625,-9.373092651367188,-0.546630859375
1713358392144562200,12.161562255859375,2.216064453125,-9.160003662109375,-0.56817626953125
1713358392154510800,12.1715107421875,1.174591064453125,-8.99481201171875,-0.323974609375
1713358392164490200,12.181490234375,0.0684661865234375,-9.001983642578125,-0.09173583984375
1713358392174469400,12.191469482421875,-0.1278533935546875,-9.413787841796875,0.2865447998046875
1713358392184418000,12.20141796875,-0.0680084228515625,-10.170364379882812,0.4493560791015625
1713358392194397400,12.2113974609375,0.2121124267578125,-10.450485229492188,-0.0510406494140625
1713358392204376600,12.22137646484375,-0.1206817626953125,-10.7808837890625,0.1117706298828125
1713358392214325200,12.2313251953125,0.9351654052734375,-11.005935668945312,0.4349822998046875
1713358392224304600,12.2413046875,0.784332275390625,-11.44647216796875,0.8396148681640625
1713358392234283800,12.25128369140625,-0.38165283203125,-12.0067138671875,0.727081298828125
1713358392244232700,12.261232666015625,-1.466217041015625,-12.001922607421875,0.0207977294921875
1713358392254211800,12.2712119140625,-2.280242919921875,-11.305206298828125,-0.51312255859375
1713358392264191000,12.28119091796875,-3.2882080078125,-10.704269409179688,-0.7285919189453125
1713358392274140000,12.291139892578125,-3.7191619873046875,-9.696304321289062,-0.7812652587890625
1713358392284119000,12.301119140625,-3.537200927734375,-8.307662963867188,-1.1308135986328125
1713358392294098400,12.311098388671875,-3.12060546875,-7.3236541748046875,-2.631988525390625
1713358392304047000,12.321047119140625,-3.1397705078125,-7.1656341552734375,-4.1930084228515625
1713358392314026200,12.331026123046875,-3.13018798828125,-7.4984283447265625,-5.390106201171875
1713358392324005600,12.341005615234375,-2.9362640380859375,-8.28851318359375,-6.879302978515625
1713358392333954300,12.350954345703125,-2.945831298828125,-9.660400390625,-8.33258056640625
1713358392343933400,12.360933349609375,-2.7734527587890625,-11.566177368164062,-8.933517456054688
1713358392353912800,12.370912841796875,-2.5675506591796875,-13.677871704101562,-8.021331787109375
1713358392363892000,12.38089208984375,-2.289825439453125,-15.337051391601562,-6.1107635498046875
1713358392373840600,12.390840576171875,-2.565155029296875,-15.8326416015625,-3.23052978515625
1713358392383820000,12.400820068359375,-3.7550811767578125,-15.63153076171875,-1.195465087890625
1713358392393799200,12.410799072265625,-5.97210693359375,-15.380142211914062,-0.414947509765625
1713358392403778600,12.420778564453125,-7.63128662109375,-14.793563842773438,1.3591461181640625
1713358392413727200,12.430727294921875,-7.8563385009765625,-13.057769775390625,3.25775146484375
1713358392423706400,12.440706298828125,-7.61932373046875,-11.101699829101562,3.4564666748046875
1713358392433685800,12.450685791015625,-6.33123779296875,-9.902206420898438,2.5586395263671875
1713358392443634400,12.460634521484375,-3.8340911865234375,-9.14324951171875,1.7613677978515625
1713358392453613600,12.470613525390625,-0.1182861328125,-8.884674072265625,0.928192138671875
1713358392463593000,12.480593017578125,2.74517822265625,-8.712295532226562,0.9329833984375
1713358392473541600,12.490541748046875,4.4426727294921875,-8.729049682617188,0.3009185791015625
1713358392483521000,12.50052099609375,4.334930419921875,-8.475265502929688,-0.1827239990234375
1713358392493469700,12.5104697265625,3.468231201171875,-8.111343383789062,-0.7693023681640625
1713358392503448800,12.52044873046875,2.369293212890625,-7.955718994140625,-0.5155181884765625
1713358392513428200,12.53042822265625,1.51934814453125,-7.6732025146484375,-0.4580535888671875
1713358392523377000,12.540376953125,0.7029266357421875,-7.7043304443359375,-1.2888336181640625
1713358392533356000,12.55035595703125,-0.0201263427734375,-7.807281494140625,-1.6982421875
1713358392543335400,12.56033544921875,-0.21405029296875,-7.71630859375,-1.5354461669921875
1713358392553284000,12.5702841796875,-0.03448486328125,-7.658843994140625,-1.4013671875
1713358392563263200,12.58026318359375,-0.091949462890625,-7.6516571044921875,-1.4947357177734375
1713358392573242600,12.59024267578125,-0.2739105224609375,-7.6420745849609375,-1.5354461669921875
1713358392583191300,12.60019140625,-0.43670654296875,-7.67559814453125,-1.4755859375
1713358392593170700,12.610170654296875,-0.472625732421875,-7.5295562744140625,-1.4300994873046875
1713358392603149800,12.62014990234375,-0.4438934326171875,-7.3763275146484375,-1.5426177978515625
1713358392613098500,12.630098388671875,-0.4750213623046875,-7.357177734375,-1.8466796875
1713358392623078000,12.640077880859375,0.9974212646484375,-6.9022674560546875,-2.26806640625
1713358392633057000,12.65005712890625,1.6031494140625,-6.4832916259765625,-2.5817108154296875
1713358392643005700,12.660005615234375,1.6007537841796875,-6.1840057373046875,-2.6583251953125
1713358392652985000,12.669985107421875,1.69891357421875,-5.9445953369140625,-2.696624755859375
1713358392662964200,12.679964111328125,1.555267333984375,-5.9493865966796875,-2.6032562255859375
1713358392672943600,12.689943603515625,1.493011474609375,-6.1840057373046875,-2.1028594970703125
1713358392682922800,12.6999228515625,1.6318817138671875,-6.4832916259765625,-1.2624969482421875
1713358392692871400,12.709871337890625,1.9598846435546875,-6.9381866455078125,-0.0199127197265625
1713358392702850800,12.719850830078125,2.26873779296875,-7.48406982421875,1.6536407470703125
1713358392712799500,12.729799560546875,2.465057373046875,-8.3411865234375,3.3607025146484375
1713358392722778600,12.739778564453125,2.4889984130859375,-9.401824951171875,4.9193267822265625
1713358392732758000,12.749758056640625,1.8976287841796875,-10.603713989257812,5.778839111328125
1713358392742706700,12.759706787109375,0.4587249755859375,-11.968399047851562,5.3359222412109375
1713358392752686000,12.76968603515625,-1.60748291015625,-13.2325439453125,3.9161529541015625
1713358392762665200,12.779665283203125,-2.912322998046875,-14.065719604492188,1.88348388671875
1713358392772614000,12.78961376953125,-2.627410888671875,-14.12078857421875,-0.4748077392578125
1713358392782593300,12.79959326171875,-0.8126068115234375,-13.230148315429688,-1.78204345703125
1713358392792572400,12.809572509765625,0.192962646484375,-13.270843505859375,-3.2951812744140625
1713358392802521000,12.81952099609375,0.4180145263671875,-13.486328125,-3.8458404541015625
1713358392812500500,12.82950048828125,1.4307708740234375,-13.323516845703125,-1.9592132568359375
1713358392822479600,12.839479736328125,3.626251220703125,-13.548583984375,1.9553070068359375
1713358392832428300,12.84942822265625,4.9191131591796875,-14.537384033203125,4.7876434326171875
1713358392842407700,12.85940771484375,3.405975341796875,-16.134323120117188,4.553009033203125
1713358392852386800,12.86938671875,-0.735992431640625,-17.56365966796875,3.3870391845703125
1713358392862335500,12.87933544921875,-2.29461669921875,-17.00579833984375,0.051910400390625
1713358392872315000,12.88931494140625,-1.16455078125,-15.356201171875,-3.1850433349609375
1713358392882294000,12.8992939453125,-0.336151123046875,-13.122406005859375,-6.13470458984375
1713358392892243000,12.909242919921875,-0.8126068115234375,-9.392242431640625,-8.792266845703125
1713358392902222000,12.91922216796875,-2.538818359375,-6.4210357666015625,-6.4770660400390625
1713358392912201200,12.929201171875,-3.2690582275390625,-5.32928466796875,-1.6886749267578125
1713358392922150100,12.939150146484375,-2.9841461181640625,-5.5710906982421875,1.076629638671875
