time,seconds_elapsed,z,y,x
1713358560980019200,0.182019287109375,7.5695037841796875,4.8843841552734375,-3.1730804443359375
1713358560989998300,0.191998291015625,7.0882568359375,4.565948486328125,-3.97991943359375
1713358560999977500,0.2019775390625,5.7882080078125,2.3225860595703125,-4.7963409423828125
1713358561009956900,0.211956787109375,6.214385986328125,0.7807159423828125,-5.5936126708984375
1713358561019936000,0.22193603515625,9.173614501953125,1.238006591796875,-5.2584228515625
1713358561029885000,0.231885009765625,12.544647216796875,2.229217529296875,-2.897735595703125
1713358561039874800,0.241874755859375,14.160736083984375,3.2252044677734375,0.92340087890625
1713358561049854200,0.251854248046875,14.646759033203125,3.857269287109375,2.4102020263671875
1713358561059833300,0.261833251953125,13.389801025390625,5.9929046630859375,1.5770263671875
1713358561069812700,0.271812744140625,9.551895141601562,5.6601104736328125,-0.3838348388671875
1713358561079761400,0.281761474609375,9.70751953125,2.4853973388671875,-0.9297027587890625
1713358561089740500,0.291740478515625,11.529510498046875,2.32977294921875,-1.4947357177734375
1713358561099720000,0.301719970703125,10.148056030273438,2.6817169189453125,-2.4667816162109375
1713358561109668600,0.311668701171875,8.816879272460938,1.9275360107421875,-2.6152191162109375
1713358561119647700,0.321647705078125,8.927017211914062,2.9091644287109375,-1.1188507080078125
1713358561129609000,0.33160888671875,8.824066162109375,4.53961181640625,-0.5370635986328125
1713358561139558000,0.341557861328125,8.828842163085938,5.578704833984375,0.071075439453125
1713358561149544200,0.351544189453125,9.504013061523438,5.6864471435546875,-0.2210235595703125
1713358561159523300,0.3615234375,10.00439453125,4.9059295654296875,-0.67352294921875
1713358561169491200,0.3714912109375,10.650833129882812,4.395965576171875,-1.078155517578125
1713358561179485200,0.381485107421875,10.940536499023438,4.6162261962890625,-1.628814697265625
1713358561189464600,0.391464599609375,10.2462158203125,5.1764678955078125,-2.51226806640625
1713358561199443700,0.401443603515625,8.3643798828125,5.24591064453125,-2.26806640625
1713358561209422800,0.4114228515625,6.8249053955078125,4.6856689453125,-0.984771728515625
1713358561219371800,0.421371826171875,6.755462646484375,4.7311553955078125,-0.393402099609375
1713358561229351000,0.431350830078125,7.758636474609375,5.5619354248046875,-0.56817626953125
1713358561239330300,0.441330322265625,8.388320922851562,5.25787353515625,-0.3215789794921875
1713358561249279000,0.451279052734375,8.668441772460938,4.4151153564453125,-0.2306060791015625
1713358561259227600,0.4612275390625,9.22149658203125,4.427093505859375,-0.5155181884765625
1713358561269176300,0.47117626953125,9.829620361328125,4.4869384765625,-0.6591644287109375
1713358561279155700,0.48115576171875,9.757797241210938,4.027252197265625,-0.8028106689453125
1713358561289104400,0.4911044921875,9.8248291015625,3.8692474365234375,-0.95843505859375
1713358561299083500,0.50108349609375,10.507186889648438,3.8117828369140625,-1.5498046875
1713358561309032400,0.511032470703125,10.327621459960938,3.8764190673828125,-1.2984161376953125
1713358561319011600,0.521011474609375,9.604568481445312,3.5029296875,-1.3702392578125
1713358561328960300,0.530960205078125,8.800125122070312,3.550811767578125,-1.5162811279296875
1713358561338939600,0.540939697265625,8.716323852539062,4.3145599365234375,-1.5091094970703125
1713358561348888300,0.550888427734375,8.120162963867188,5.07830810546875,-1.4013671875
1713358561358867500,0.560867431640625,7.4114837646484375,5.1022491455078125,-1.7413482666015625
1713358561368816400,0.57081640625,6.6501312255859375,5.420684814453125,-1.6790924072265625
1713358561378795500,0.58079541015625,6.2191619873046875,5.71038818359375,-1.2720794677734375
1713358561388744200,0.590744140625,6.9733428955078125,6.234710693359375,-0.941680908203125
1713358561398723600,0.6007236328125,7.768218994140625,5.8995208740234375,-0.709442138671875
1713358561408672300,0.61067236328125,7.8304595947265625,5.7941741943359375,-0.91534423828125
1713358561418651400,0.6206513671875,7.3851470947265625,5.559539794921875,-1.0829315185546875
1713358561428630800,0.630630859375,7.4641571044921875,5.5499725341796875,-1.0111083984375
1713358561438579500,0.640579345703125,6.41070556640625,5.7008056640625,-0.845916748046875
1713358561448558600,0.65055859375,6.11383056640625,5.959381103515625,-0.910552978515625
1713358561458538000,0.6605380859375,6.76025390625,5.7462921142578125,-0.7716827392578125
1713358561468486700,0.670486572265625,7.5383758544921875,5.822906494140625,-0.520294189453125
1713358561478466000,0.680466064453125,7.5072479248046875,5.3536529541015625,-0.762115478515625
1713358561488445200,0.690445068359375,5.728363037109375,4.015289306640625,-1.1020965576171875
1713358561498424300,0.70042431640625,7.2103729248046875,5.126190185546875,-1.7006378173828125
1713358561508373200,0.710373291015625,5.5990753173828125,3.0240936279296875,-3.3765869140625
1713358561518352400,0.720352294921875,5.3883819580078125,2.8876190185546875,-1.5091094970703125
1713358561528331800,0.730331787109375,4.272674560546875,4.19964599609375,-1.190673828125
1713358561538311000,0.740310791015625,5.3309173583984375,3.033660888671875,-1.3774261474609375
1713358561548268300,0.750268310546875,5.48175048828125,1.312225341796875,-1.5474090576171875
1713358561558247400,0.760247314453125,5.0077056884765625,0.560455322265625,-1.406158447265625
1713358561568196000,0.770196044921875,6.0419921875,0.28033447265625,-1.185882568359375
1713358561578175500,0.780175537109375,7.3228912353515625,0.3138580322265625,-0.6759185791015625
1713358561588154600,0.790154541015625,8.21832275390625,0.24920654296875,0.1740264892578125
1713358561598103300,0.800103271484375,9.314865112304688,0.213287353515625,1.1364898681640625
1713358561608082700,0.810082763671875,10.239028930664062,0.3832855224609375,1.37591552734375
1713358561618061800,0.820061767578125,16.715347290039062,1.1757659912109375,0.0662841796875
1713358561628010800,0.8300107421875,15.515853881835938,4.4007568359375,-1.5809326171875
1713358561637990000,0.839989990234375,8.278182983398438,8.588211059570312,-7.312652587890625
1713358561647969000,0.849968994140625,17.318695068359375,0.75677490234375,-7.7268524169921875
1713358561657918000,0.85991796875,14.476776123046875,-2.525665283203125,-13.166473388671875
1713358561667897000,0.86989697265625,24.958587646484375,-7.3667449951171875,-15.92938232421875
1713358561677845800,0.879845703125,27.72149658203125,-6.8424224853515625,-11.648544311523438
1713358561687825200,0.8898251953125,20.658599853515625,-8.460891723632812,-3.7668304443359375
1713358561697804300,0.89980419921875,13.657958984375,-10.804824829101562,1.1795806884765625
1713358561707747800,0.909747802734375,6.7363128662109375,-10.737777709960938,4.0310821533203125
1713358561717727000,0.91972705078125,2.44830322265625,-8.946914672851562,4.023895263671875
1713358561727706400,0.929706298828125,-0.1326446533203125,-7.955718994140625,2.6065216064453125
1713358561737655000,0.939655029296875,-0.1110992431640625,-6.4617462158203125,3.2601470947265625
1713358561747634400,0.949634521484375,-0.546844482421875,-5.271820068359375,4.9887542724609375
1713358561757613600,0.959613525390625,-1.602691650390625,-5.726715087890625,6.9543914794921875
1713358561767592700,0.9695927734375,-0.314605712890625,-5.4178619384765625,9.863357543945312
1713358561777541600,0.979541748046875,1.713287353515625,-3.270263671875,13.974197387695312
1713358561787520800,0.989520751953125,3.35809326171875,-3.0332489013671875,16.169677734375
1713358561797493200,0.9994931640625,3.585540771484375,-3.6485595703125,14.4793701171875
1713358561807480800,1.009480712890625,1.8760833740234375,-0.6294708251953125,23.603683471679688
1713358561817414000,1.019413818359375,2.9319305419921875,7.501251220703125,35.584259033203125
1713358561827393000,1.02939306640625,0.1259307861328125,5.3656158447265625,31.370468139648438
1713358561837372200,1.0393720703125,0.9088287353515625,0.5413055419921875,18.889495849609375
1713358561847314700,1.049314697265625,5.096282958984375,-3.222381591796875,4.624847412109375
1713358561857293800,1.0592939453125,8.464935302734375,-2.662139892578125,0.485260009765625
1713358561867242500,1.069242431640625,10.085800170898438,0.3689117431640625,1.2945098876953125
1713358561877222000,1.079221923828125,10.5,2.77508544921875,0.20513916015625
1713358561887201000,1.089200927734375,5.709197998046875,-1.0101470947265625,-7.8920440673828125
1713358561897150000,1.09914990234375,12.480010986328125,3.5101165771484375,-4.2983551025390625
1713358561907129000,1.109129150390625,8.251846313476562,1.163787841796875,-7.693328857421875
1713358561917108200,1.119108154296875,8.381134033203125,2.767913818359375,-1.0302581787109375
1713358561927057200,1.12905712890625,8.50323486328125,1.7790985107421875,1.1101531982421875
1713358561937036300,1.139036376953125,10.389862060546875,1.49658203125,3.489990234375
1713358561947015700,1.149015625,10.1719970703125,0.919586181640625,5.6687164306640625
1713358561956964400,1.15896435546875,8.776168823242188,1.2284393310546875,9.662246704101562
1713358561966943500,1.168943603515625,6.6932220458984375,0.6634063720703125,12.47064208984375
1713358561976923000,1.1789228515625,5.5224609375,0.9746551513671875,15.015670776367188
1713358561986871600,1.18887158203125,5.94622802734375,2.3752593994140625,21.93731689453125
1713358561996850700,1.1988505859375,8.452957153320312,1.12548828125,24.982742309570312
1713358562006799600,1.208799560546875,5.390777587890625,1.2356109619140625,22.30841064453125
1713358562016778800,1.21877880859375,-0.46783447265625,-1.3237762451171875,6.5354156494140625
1713358562026758000,1.2287578125,-4.88275146484375,1.19012451171875,8.067703247070312
1713358562036737300,1.2387373046875,-9.03668212890625,2.3704681396484375,12.40838623046875
1713358562046686000,1.24868603515625,-7.942535400390625,3.3209686279296875,17.08905029296875
1713358562056665300,1.258665283203125,-3.5922698974609375,2.31060791015625,16.52880859375
1713358562066644500,1.26864453125,1.9024200439453125,1.10394287109375,14.656539916992188
1713358562076623600,1.27862353515625,3.542449951171875,-1.098724365234375,13.734771728515625
1713358562086572500,1.288572509765625,3.59033203125,-2.4107513427734375,12.219253540039062
1713358562096551700,1.2985517578125,5.5535736083984375,-2.9279022216796875,10.543304443359375
1713358562106531000,1.308531005859375,8.548721313476562,-2.77227783203125,7.9096832275390625
1713358562116479700,1.318479736328125,11.723434448242188,-2.417938232421875,6.5545654296875
1713358562126459000,1.328458984375,9.142486572265625,-1.1059112548828125,6.09967041015625
1713358562136438300,1.338438232421875,8.637313842773438,0.0624542236328125,6.5617523193359375
1713358562146387000,1.348386962890625,8.273391723632812,1.204498291015625,8.299942016601562
1713358562156366000,1.358365966796875,8.484085083007812,0.96746826171875,11.90081787109375
1713358562166345500,1.368345458984375,8.529571533203125,-1.3908233642578125,14.441070556640625
1713358562176294100,1.378294189453125,11.06982421875,-6.0068359375,14.745132446289062
1713358562186273300,1.388273193359375,13.90216064453125,-10.91973876953125,14.687667846679688
1713358562196222200,1.39822216796875,19.028152465820312,-12.859054565429688,12.326980590820312
1713358562206201300,1.408201416015625,24.020065307617188,-10.670745849609375,8.168258666992188
1713358562216180700,1.4181806640625,22.710433959960938,-8.233444213867188,6.6287841796875
1713358562226129400,1.42812939453125,15.35064697265625,-6.476104736328125,8.936798095703125
1713358562236108500,1.438108642578125,7.885528564453125,-3.25830078125,12.034896850585938
1713358562246088000,1.448087890625,2.2974700927734375,-2.72918701171875,14.972579956054688
1713358562256036600,1.45803662109375,-0.4774169921875,-4.721160888671875,15.681259155273438
1713358562266015700,1.468015625,1.2104949951171875,-6.5575103759765625,14.44586181640625
1713358562275995100,1.4779951171875,4.2798614501953125,-8.001205444335938,13.224807739257812
1713358562285943800,1.48794384765625,6.475341796875,-9.219863891601562,12.204879760742188
1713358562295923000,1.4979228515625,7.155303955078125,-9.061843872070312,10.169815063476562
1713358562305902300,1.50790234375,6.326904296875,-8.21429443359375,9.355789184570312
1713358562315870200,1.5178701171875,1.78271484375,-9.057052612304688,9.494644165039062
1713358562325849300,1.527849365234375,-4.7055816650390625,-9.813629150390625,7.8235015869140625
1713358562335828700,1.537828857421875,-8.15802001953125,-7.4768829345703125,10.215301513671875
1713358562345808000,1.547807861328125,-6.230682373046875,-2.7172088623046875,12.686111450195312
1713358562355756500,1.557756591796875,-5.2729949951171875,-3.55517578125,11.99658203125
1713358562365736000,1.56773583984375,-3.937042236328125,-6.0666961669921875,10.490631103515625
1713358562375715000,1.577715087890625,-6.4581298828125,-6.0882415771484375,9.599990844726562
1713358562385663700,1.587663818359375,-9.031890869140625,-4.3069610595703125,9.69097900390625
1713358562395643100,1.59764306640625,-8.263351440429688,-3.495330810546875,8.958343505859375
1713358562405622300,1.607622314453125,-6.774169921875,-1.63262939453125,8.91046142578125
1713358562415601700,1.6176015625,-3.704803466796875,-1.0723876953125,9.066085815429688
1713358562425550300,1.62755029296875,5.814544677734375,-1.8553009033203125,7.995880126953125
1713358562435529500,1.637529541015625,14.412124633789062,-3.7467193603515625,8.630340576171875
1713358562445478400,1.647478515625,3.4131622314453125,-4.6876373291015625,10.730056762695312
1713358562455457500,1.65745751953125,3.5927276611328125,-0.8114166259765625,9.805892944335938
1713358562465437000,1.66743701171875,4.3684539794921875,0.05767822265625,9.40606689453125
1713358562475385600,1.677385498046875,1.80426025390625,0.359344482421875,9.212127685546875
1713358562485364700,1.68736474609375,0.90643310546875,0.4096221923828125,8.2760009765625
1713358562495344000,1.69734423828125,2.0029754638671875,-0.01416015625,6.695831298828125
1713358562505292800,1.707292724609375,3.8153839111328125,0.392852783203125,6.2409210205078125
1713358562515276500,1.717276611328125,4.864044189453125,-0.38525390625,7.2225494384765625
1713358562525255700,1.727255615234375,2.35491943359375,-0.7371978759765625,8.285568237304688
1713358562535204600,1.73720458984375,-5.586639404296875,1.0823822021484375,9.13311767578125
1713358562545183700,1.747183837890625,-26.634063720703125,3.287445068359375,10.73724365234375
1713358562555132400,1.75713232421875,-7.106964111328125,4.61383056640625,10.964691162109375
1713358562565111800,1.76711181640625,0.35577392578125,2.2339935302734375,8.268814086914062
1713358562575091000,1.777091064453125,-2.924285888671875,-1.5177154541015625,8.922439575195312
1713358562585039600,1.78703955078125,-0.7383880615234375,0.7639617919921875,10.224884033203125
1713358562595019000,1.79701904296875,-1.5667724609375,-0.806640625,5.905731201171875
1713358562604998100,1.806998046875,0.69573974609375,-1.21844482421875,4.5745697021484375
1713358562614977500,1.8169775390625,1.86651611328125,-1.6565704345703125,4.430908203125
1713358562624926200,1.82692626953125,3.3916168212890625,-1.8145904541015625,7.0645294189453125
1713358562634905300,1.8369052734375,4.038055419921875,-2.3484954833984375,8.58245849609375
1713358562644884700,1.846884765625,1.5408935546875,-3.497711181640625,9.837020874023438
1713358562654864000,1.85686376953125,1.270355224609375,-3.6581268310546875,9.520980834960938
1713358562664812500,1.8668125,1.1506500244140625,-2.3484954833984375,9.973480224609375
1713358562674792000,1.8767919921875,-0.029693603515625,-2.2790679931640625,16.121795654296875
1713358562684771000,1.88677099609375,-0.0895538330078125,-2.95184326171875,14.958221435546875
1713358562694720000,1.896719970703125,0.0924072265625,-4.261474609375,10.912017822265625
1713358562704699100,1.90669921875,-0.9227294921875,-4.8767852783203125,11.1610107421875
1713358562714678300,1.91667822265625,0.109161376953125,-4.6708831787109375,10.5792236328125
1713358562724627200,1.926627197265625,0.329437255859375,-4.062744140625,10.081222534179688
1713358562734606300,1.9366064453125,0.3485870361328125,-3.9645843505859375,8.757232666015625
1713358562744585700,1.946585693359375,-1.020904541015625,-4.036407470703125,7.5074615478515625
1713358562754534400,1.956534423828125,-1.1980743408203125,-3.9765625,7.2800140380859375
1713358562764513500,1.966513427734375,-1.3632659912109375,-4.2734375,8.802719116210938
1713358562774462200,1.976462158203125,-0.1278533935546875,-3.433074951171875,9.99981689453125
1713358562784441600,1.986441650390625,0.350982666015625,-3.3301239013671875,9.599990844726562
1713358562794420700,1.996420654296875,-0.2667236328125,-3.6533355712890625,8.797927856445312
1713358562804369700,2.00636962890625,-0.2547607421875,-4.3644256591796875,7.974334716796875
1713358562814348800,2.016348876953125,-0.78387451171875,-4.0435943603515625,8.802719116210938
1713358562824328000,2.026327880859375,-0.714447021484375,-3.71319580078125,8.450775146484375
1713358562834276900,2.03627685546875,-0.8461151123046875,-4.448211669921875,7.6606903076171875
1713358562844256000,2.046256103515625,-0.3050384521484375,-3.6413726806640625,7.90728759765625
1713358562854235400,2.0562353515625,-0.3074188232421875,-3.9167022705078125,6.4779510498046875
1713358562864184000,2.06618408203125,0.276763916015625,-5.2694244384765625,5.704620361328125
1713358562874163200,2.0761630859375,2.8265838623046875,-5.7123565673828125,4.213043212890625
1713358562884142600,2.086142578125,-1.444671630859375,-4.3668212890625,10.155441284179688
1713358562894121700,2.096121826171875,-0.9083709716796875,-4.395538330078125,5.6591339111328125
1713358562904070400,2.1060703125,-1.255523681640625,-3.813751220703125,6.6311798095703125
1713358562914049800,2.1160498046875,-0.656982421875,-3.1649169921875,9.465911865234375
1713358562924029000,2.12602880859375,2.0819854736328125,-4.5607452392578125,10.744415283203125
1713358562933977600,2.1359775390625,-0.3433380126953125,-5.652496337890625,11.326217651367188
1713358562943957000,2.14595703125,1.9766387939453125,-5.6046142578125,9.130722045898438
1713358562953936100,2.15593603515625,-0.3050384521484375,-4.943817138671875,9.588027954101562
1713358562963915500,2.16591552734375,-0.144622802734375,-4.0220489501953125,8.817092895507812
1713358562973864200,2.1758642578125,-1.0615997314453125,-3.6725006103515625,7.9360198974609375
1713358562983843300,2.18584326171875,1.0524749755859375,-4.0579681396484375,8.2760009765625
1713358562993822700,2.19582275390625,2.71405029296875,-3.495330810546875,6.32232666015625
1713358563003771400,2.205771484375,-2.6776885986328125,-3.0021209716796875,5.1348114013671875
1713358563013750500,2.21575048828125,6.4035186767578125,-6.3946990966796875,11.793075561523438
1713358563023699500,2.225699462890625,3.0755767822265625,-3.40673828125,6.401336669921875
1713358563033678600,2.2356787109375,-3.0679473876953125,-3.1457672119140625,4.0047454833984375
1713358563043658000,2.245657958984375,-3.9681549072265625,-2.09710693359375,4.3159942626953125
1713358563053606700,2.255606689453125,-1.813385009765625,-4.5439910888671875,6.14276123046875
1713358563063585800,2.265585693359375,-0.28826904296875,-3.200836181640625,6.1595306396484375
1713358563073565200,2.275565185546875,3.3820343017578125,-1.3692779541015625,2.9177703857421875
1713358563083513900,2.285513916015625,0.0540924072265625,-4.4170989990234375,3.36309814453125
1713358563093493000,2.295492919921875,-7.806060791015625,-1.9462738037109375,3.48040771484375
1713358563103472400,2.305472412109375,-2.036041259765625,0.0768280029296875,3.76531982421875
1713358563113421000,2.315421142578125,-0.7240142822265625,-6.44976806640625,3.49957275390625
1713358563123400200,2.325400146484375,5.6278076171875,-13.182266235351562,6.0326385498046875
1713358563133349000,2.33534912109375,-2.0551910400390625,-18.190933227539062,12.41796875
1713358563143328300,2.345328369140625,1.3804931640625,-23.532394409179688,15.808151245117188
1713358563153307600,2.3553076171875,-4.41827392578125,-22.85723876953125,9.463516235351562
1713358563163256300,2.36525634765625,-1.18609619140625,-18.365707397460938,12.398818969726562
1713358563173235500,2.3752353515625,2.338165283203125,-16.316268920898438,9.856170654296875
1713358563183214800,2.38521484375,-3.9298553466796875,-10.75933837890625,11.982223510742188
1713358563193194000,2.395194091796875,-3.08709716796875,-9.737014770507812,10.813858032226562
1713358563203142700,2.405142578125,-2.12701416015625,-8.147262573242188,4.553009033203125
1713358563213122000,2.4151220703125,-1.79901123046875,-7.342803955078125,2.470062255859375
1713358563223101200,2.42510107421875,-1.1956787109375,-6.138519287109375,2.0917816162109375
1713358563233080600,2.43508056640625,-0.367279052734375,-4.7451019287109375,2.819610595703125
1713358563243029200,2.445029296875,0.9471282958984375,-2.4490509033203125,3.90179443359375
1713358563253008400,2.45500830078125,-3.568328857421875,-4.522430419921875,7.08367919921875
1713358563262987800,2.46498779296875,-0.93231201171875,-6.9741058349609375,7.57928466796875
1713358563272936400,2.4749365234375,0.437164306640625,-8.707504272460938,5.692657470703125
1713358563282915600,2.48491552734375,0.415618896484375,-8.927764892578125,5.185089111328125
1713358563292895000,2.49489501953125,-0.93231201171875,-8.609344482421875,5.5466156005859375
1713358563302843600,2.50484375,-0.86767578125,-8.875091552734375,4.878631591796875
1713358563312823000,2.514822998046875,-0.7072601318359375,-9.212677001953125,4.0358734130859375
1713358563322802200,2.52480224609375,-0.4486846923828125,-7.7737579345703125,4.4428863525390625
1713358563332750800,2.534750732421875,-0.3744659423828125,-6.612579345703125,6.3151397705078125
1713358563342730200,2.544730224609375,0.25042724609375,-9.021148681640625,6.1403656005859375
1713358563352679000,2.554678955078125,-0.757537841796875,-10.804824829101562,3.985595703125
1713358563362658000,2.564657958984375,0.482666015625,-8.475265502929688,5.5681610107421875
1713358563372637400,2.574637451171875,-0.2906646728515625,-8.190353393554688,4.646392822265625
1713358563382586000,2.584586181640625,-0.261932373046875,-8.401046752929688,5.0102996826171875
1713358563392565200,2.594565185546875,-0.5492401123046875,-7.8096771240234375,5.2042388916015625
1713358563402544600,2.604544677734375,-0.656982421875,-6.365966796875,5.4963226318359375
1713358563412493300,2.614493408203125,0.3605499267578125,-6.243865966796875,6.0086822509765625
1713358563422472700,2.62447265625,0.4922332763671875,-7.0818328857421875,6.1236114501953125
1713358563432451800,2.634451904296875,0.19775390625,-8.017974853515625,5.027069091796875
1713358563442400500,2.644400390625,0.4706878662109375,-5.6596832275390625,4.5745697021484375
1713358563452380000,2.6543798828125,0.2264862060546875,-1.6230621337890625,5.967987060546875
1713358563462359000,2.664359130859375,-0.1733551025390625,2.5931243896484375,8.374160766601562
1713358563472307700,2.6743076171875,-0.546844482421875,3.8692474365234375,8.23529052734375
1713358563482287000,2.684287109375,-0.64739990234375,-0.1649932861328125,6.992706298828125
1713358563492266200,2.694266357421875,0.1115570068359375,-7.3930816650390625,5.0821380615234375
1713358563502245600,2.70424560546875,-2.811767578125,-16.84539794921875,3.3080291748046875
1713358563512194300,2.7141943359375,-0.398406982421875,-18.042495727539062,4.119659423828125
1713358563522176800,2.7241767578125,2.47943115234375,-11.128036499023438,6.5258331298828125
1713358563532156200,2.73415625,1.4690704345703125,-5.587860107421875,8.187408447265625
1713358563542104800,2.744104736328125,-1.3896026611328125,-8.503997802734375,8.65667724609375
1713358563552084000,2.754083984375,-1.71282958984375,-9.361114501953125,8.948776245117188
1713358563562063400,2.7640634765625,-0.0153350830078125,-6.56707763671875,10.636688232421875
1713358563572012000,2.774011962890625,0.0924072265625,-8.231048583984375,8.632736206054688
1713358563581991200,2.7839912109375,0.4922332763671875,-10.589340209960938,5.35028076171875
1713358563591970600,2.793970458984375,-0.6450042724609375,-9.4185791015625,5.15875244140625
1713358563601919200,2.803919189453125,-1.1454010009765625,-8.587799072265625,6.073333740234375
1713358563611898600,2.813898681640625,-1.5859222412109375,-9.71307373046875,6.59527587890625
1713358563621877800,2.823877685546875,-1.66015625,-7.7474212646484375,6.930450439453125
1713358563631826400,2.833826416015625,-1.2315826416015625,-8.23583984375,7.229736328125
1713358563641805800,2.843805908203125,-0.4534759521484375,-5.3651885986328125,8.479507446289062
1713358563651785000,2.853784912109375,-0.25714111328125,-7.71868896484375,6.9759521484375
1713358563661733600,2.863733642578125,-0.716827392578125,-4.816925048828125,7.3590240478515625
1713358563671713000,2.873713134765625,0.5185699462890625,-5.980499267578125,7.1052398681640625
1713358563681661700,2.88366162109375,-0.6234588623046875,-8.453720092773438,5.45562744140625
1713358563691640800,2.893640869140625,-0.915557861328125,-6.6269378662109375,7.1052398681640625
1713358563701620200,2.9036201171875,-0.1158905029296875,-10.321197509765625,5.884185791015625
1713358563711569000,2.91356884765625,-0.8078155517578125,-8.3411865234375,6.8634185791015625
1713358563721548300,2.92354833984375,-0.8485107421875,-8.154434204101562,7.3757781982421875
1713358563731527400,2.93352734375,-0.230804443359375,-8.39385986328125,7.303955078125
1713358563741476000,2.94347607421875,0.1115570068359375,-7.2637939453125,7.203399658203125
1713358563751455500,2.95345556640625,0.3797149658203125,-7.3451995849609375,6.7652587890625
1713358563761434600,2.9634345703125,0.6909637451171875,-6.638916015625,6.54498291015625
1713358563771414000,2.9734140625,0.2695770263671875,-6.4737091064453125,6.8059539794921875
1713358563781393200,2.98339306640625,0.42041015625,-6.8735504150390625,6.2696533203125
1713358563791341800,2.993341796875,0.140289306640625,-5.5591278076171875,7.426055908203125
1713358563801321200,3.0033212890625,1.1051483154296875,-7.2518310546875,4.9720001220703125
1713358563811300400,3.01330029296875,0.1666259765625,-6.4521636962890625,4.9384765625
1713358563821249000,3.0232490234375,-0.175750732421875,-6.9549407958984375,5.714202880859375
1713358563831228400,3.033228515625,-1.03765869140625,-6.4042816162109375,3.0973358154296875
1713358563841207600,3.04320751953125,0.9615020751953125,-6.50244140625,8.4244384765625
1713358563851156200,3.05315625,-0.336151123046875,-7.0818328857421875,4.7277984619140625
1713358563861135600,3.063135498046875,0.4443511962890625,-7.010009765625,8.893707275390625
1713358563871114800,3.07311474609375,0.5592803955078125,-7.543914794921875,8.163467407226562
1713358563881063400,3.0830634765625,-1.2315826416015625,-7.072265625,5.2688751220703125
1713358563891042800,3.093042724609375,-3.020050048828125,-9.030715942382812,11.438735961914062
1713358563901022000,3.10302197265625,-4.1261749267578125,-8.42498779296875,9.901657104492188
1713358563910971000,3.112970947265625,0.8465728759765625,-8.1927490234375,10.349380493164062
1713358563920950000,3.122949951171875,2.7523651123046875,-7.8216400146484375,6.3773956298828125
1713358563930898700,3.132898681640625,0.372528076171875,-6.9214324951171875,4.99114990234375
1713358563940878000,3.142878173828125,-1.4901580810546875,-6.602996826171875,5.491546630859375
1713358563950857200,3.152857177734375,-1.69366455078125,-7.0531005859375,6.05657958984375
1713358563960806000,3.162805908203125,-1.04962158203125,-7.3811187744140625,6.3343048095703125
1713358563970785300,3.172785400390625,0.595184326171875,-7.3260498046875,5.77166748046875
1713358563980764400,3.182764404296875,-0.0632171630859375,-7.627716064453125,6.31036376953125
1713358563990713000,3.192713134765625,-0.862884521484375,-7.785736083984375,6.327117919921875
1713358564000692500,3.2026923828125,-0.6689453125,-7.73785400390625,6.2505035400390625
1713358564010671600,3.212671630859375,-0.6641693115234375,-7.522369384765625,6.432464599609375
1713358564020620500,3.22262060546875,-0.8461151123046875,-7.3715362548828125,6.3821868896484375
1713358564030599700,3.232599609375,-0.6138763427734375,-6.7011566162109375,6.0063018798828125
1713358564040578800,3.242578857421875,1.3924560546875,-6.464141845703125,4.751739501953125
1713358564050558200,3.25255810546875,-0.209259033203125,-6.4952545166015625,5.0677642822265625
1713358564060507000,3.2625068359375,-2.32574462890625,-6.9429779052734375,5.8698272705078125
1713358564070486300,3.272486328125,-0.74078369140625,-7.1608428955078125,7.5601348876953125
1713358564080465400,3.28246533203125,-1.0831451416015625,-6.8735504150390625,8.697372436523438
1713358564090414000,3.2924140625,-1.1094818115234375,-6.9669189453125,7.574493408203125
1713358564100393500,3.3023935546875,-0.8030242919921875,-7.4625091552734375,6.9879150390625
1713358564110372600,3.31237255859375,-0.9514617919921875,-8.008392333984375,7.8618011474609375
1713358564120352000,3.32235205078125,-0.8461151123046875,-7.5941925048828125,7.5984344482421875
1713358564130300700,3.33230078125,-0.240386962890625,-8.231048583984375,6.6287841796875
1713358564140279800,3.34227978515625,0.056488037109375,-5.71954345703125,8.26641845703125
1713358564150228500,3.352228515625,-0.714447021484375,-6.69158935546875,6.8251190185546875
1713358564160208000,3.362207763671875,-0.735992431640625,-7.1656341552734375,7.215362548828125
1713358564170187000,3.37218701171875,-1.200469970703125,-7.4768829345703125,7.0597381591796875
1713358564180136000,3.382135986328125,-0.5229034423828125,-7.8575592041015625,6.4827423095703125
1713358564190115000,3.392114990234375,-0.1589813232421875,-7.6875762939453125,6.8107452392578125
1713358564200094200,3.40209423828125,-0.6761322021484375,-7.2661895751953125,7.2177581787109375
1713358564210043100,3.412043212890625,-1.42791748046875,-7.1440887451171875,7.172271728515625
1713358564220022300,3.422022216796875,-1.6002960205078125,-6.8687591552734375,7.3015594482421875
1713358564230001700,3.432001708984375,-1.1621551513671875,-6.3085174560546875,7.3590240478515625
1713358564239950300,3.441950439453125,-1.2363739013671875,-6.58624267578125,7.14593505859375
1713358564249929500,3.451929443359375,-0.3864288330078125,-6.7370758056640625,7.2057952880859375
1713358564259878100,3.461878173828125,0.3222503662109375,-6.5886383056640625,6.6718902587890625
1713358564269857500,3.471857421875,0.3126678466796875,-5.7913665771484375,6.1236114501953125
1713358564279836700,3.481836669921875,-0.27630615234375,-5.95416259765625,6.5234375
1713358564289785600,3.49178564453125,-0.18292236328125,-6.327667236328125,6.803558349609375
1713358564299764700,3.5017646484375,0.1786041259765625,-5.9302215576171875,7.361419677734375
1713358564309743900,3.511743896484375,-0.8293609619140625,-6.550323486328125,5.9655914306640625
1713358564319692800,3.52169287109375,-0.7718963623046875,-6.9908599853515625,8.058120727539062
1713358564329672000,3.531671875,-0.953857421875,-6.5359649658203125,7.181854248046875
1713358564339651000,3.541651123046875,-1.550018310546875,-7.1776123046875,6.6263885498046875
1713358564349630500,3.55163037109375,-1.5524139404296875,-8.611740112304688,6.21697998046875
1713358564359579100,3.5615791015625,-1.286651611328125,-9.167190551757812,6.57611083984375
1713358564369558500,3.57155859375,-1.76788330078125,-9.634063720703125,6.82989501953125
1713358564379537700,3.58153759765625,-2.2970123291015625,-9.009170532226562,7.2967681884765625
1713358564389516800,3.591516845703125,-2.59149169921875,-9.432937622070312,7.2105712890625
1713358564399465700,3.6014658203125,-0.4055938720703125,-8.290908813476562,7.89532470703125
1713358564409444900,3.61144482421875,-0.8126068115234375,-5.6046142578125,5.005523681640625
1713358564419424300,3.62142431640625,0.11395263671875,-5.841644287109375,12.00616455078125
1713358564429373000,3.631373046875,1.5696258544921875,-1.699676513671875,3.3822479248046875
1713358564439352000,3.64135205078125,-1.23876953125,-4.3811798095703125,8.158676147460938
1713358564449331500,3.65133154296875,-1.39678955078125,-6.339630126953125,6.5210418701171875
1713358564459280100,3.661280029296875,-0.187713623046875,-7.6396942138671875,6.231353759765625
1713358564469259300,3.67125927734375,0.27197265625,-7.5415191650390625,6.20501708984375
1713358564479208200,3.681208251953125,-0.1494140625,-8.367523193359375,6.0326385498046875
1713358564489187300,3.691187255859375,-0.8197784423828125,-7.785736083984375,5.7860260009765625
1713358564499166500,3.70116650390625,0.0421295166015625,-5.10662841796875,3.67913818359375
1713358564509115400,3.711115478515625,2.864898681640625,0.823822021484375,-1.834716796875
1713358564519094500,3.721094482421875,-4.423065185546875,-7.28533935546875,8.45556640625
1713358564529074000,3.731073974609375,0.1690216064453125,-10.730606079101562,8.165863037109375
1713358564539022600,3.741022705078125,0.942352294921875,-9.425765991210938,9.382125854492188
1713358564549001700,3.751001708984375,0.509002685546875,-8.345977783203125,11.733230590820312
1713358564558981000,3.760981201171875,-1.301025390625,-7.089019775390625,8.335845947265625
1713358564568929800,3.7709296875,-1.296234130859375,-7.0267791748046875,6.2576904296875
1713358564578909000,3.780908935546875,-0.93231201171875,-7.1129608154296875,5.4316864013671875
1713358564588888300,3.790888427734375,-2.08392333984375,-6.7753753662109375,5.5322418212890625
1713358564598837000,3.8008369140625,-2.258697509765625,-5.1640777587890625,6.882568359375
1713358564608816000,3.810816162109375,-1.107086181640625,-3.2942047119140625,5.776458740234375
1713358564618795500,3.82079541015625,-3.324127197265625,-4.2806243896484375,5.4532318115234375
1713358564628744200,3.830744140625,-3.66888427734375,-4.4338531494140625,3.2457733154296875
1713358564638723600,3.8407236328125,-1.176513671875,-8.520751953125,4.7086334228515625
1713358564648702700,3.85070263671875,3.9829864501953125,-11.681106567382812,7.65350341796875
1713358564658681900,3.860681884765625,4.33013916015625,-12.231765747070312,16.198410034179688
1713358564668630800,3.870630859375,-0.101531982421875,-7.93896484375,12.403594970703125
1713358564678610000,3.88060986328125,0.0062103271484375,-8.458511352539062,5.249725341796875
1713358564688589300,3.89058935546875,1.208099365234375,-6.1457061767578125,5.788421630859375
1713358564698538000,3.9005380859375,0.3868865966796875,-3.93585205078125,6.6718902587890625
1713358564708517000,3.91051708984375,0.1546478271484375,-4.0747222900390625,7.2105712890625
1713358564718496500,3.92049658203125,0.56884765625,-5.01324462890625,7.5649261474609375
1713358564728445200,3.930445068359375,0.8130645751953125,-5.535186767578125,7.4763336181640625
1713358564738424300,3.94042431640625,0.3916778564453125,-5.937408447265625,7.636749267578125
1713358564748403700,3.95040380859375,-0.249969482421875,-6.3109130859375,6.6144256591796875
1713358564758352400,3.960352294921875,-0.4774169921875,-6.729888916015625,8.943984985351562
1713358564768331500,3.97033154296875,-0.5635986328125,-7.438568115234375,9.243255615234375
1713358564778311000,3.980310791015625,-0.240386962890625,-7.6468658447265625,8.534576416015625
1713358564788259600,3.990259521484375,-0.70965576171875,-8.104156494140625,7.7612457275390625
1713358564798238700,4.00023876953125,-0.99456787109375,-7.84320068359375,8.639923095703125
1713358564808218000,4.010218017578125,-0.0201263427734375,-7.3715362548828125,7.7612457275390625
1713358564818166800,4.020166748046875,-0.0272979736328125,-6.77777099609375,7.5649261474609375
1713358564828146200,4.030146240234375,1.423583984375,-6.50244140625,7.1124114990234375
1713358564838125300,4.040125244140625,1.3924560546875,-5.3915252685546875,7.2656402587890625
1713358564848074000,4.050073974609375,-0.70965576171875,-3.0906982421875,7.6247711181640625
1713358564858053400,4.060053466796875,0.6191253662109375,-4.0388031005859375,10.406845092773438
1713358564868002000,4.070001953125,0.1259307861328125,-5.757843017578125,8.383743286132812
1713358564877981200,4.079981201171875,0.669403076171875,-6.1768341064453125,8.374160766601562
1713358564887960600,4.089960693359375,0.5664520263671875,-5.978118896484375,8.290359497070312
1713358564897939700,4.099939697265625,0.1594390869140625,-5.863189697265625,8.706954956054688
1713358564907888400,4.109888427734375,0.1426849365234375,-5.9709320068359375,8.544143676757812
1713358564917867800,4.11986767578125,0.0373382568359375,-6.1145782470703125,8.007843017578125
1713358564927847000,4.129846923828125,0.2169036865234375,-6.3468170166015625,7.7373046875
1713358564937826300,4.139826416015625,0.382110595703125,-6.3875274658203125,7.6080169677734375
1713358564947775000,4.14977490234375,0.3964691162109375,-6.423431396484375,7.426055908203125
1713358564957754000,4.159754150390625,0.3150634765625,-6.4521636962890625,7.1124114990234375
1713358564967733500,4.1697333984375,0.267181396484375,-6.380340576171875,7.0118560791015625
1713358564977682200,4.17968212890625,0.372528076171875,-6.3779449462890625,7.0070648193359375
1713358564987661600,4.18966162109375,0.2336578369140625,-6.3683624267578125,7.0334014892578125
1713358564997640700,4.199640625,0.149871826171875,-6.339630126953125,7.023834228515625
1713358565007589400,4.20958935546875,0.10198974609375,-6.2486572265625,6.92327880859375
1713358565017568800,4.21956884765625,0.0804290771484375,-6.0810546875,6.882568359375
1713358565027548000,4.2295478515625,0.1331024169921875,-5.906280517578125,6.89215087890625
1713358565037496600,4.23949658203125,0.257598876953125,-5.7961578369140625,7.031005859375
1713358565047476000,4.24947607421875,0.2216949462890625,-5.779388427734375,7.0908660888671875
1713358565057455000,4.259455078125,0.078033447265625,-5.87994384765625,7.2177581787109375
1713358565067403800,4.26940380859375,-0.17095947265625,-6.0834503173828125,7.2656402587890625
1713358565077383200,4.279383056640625,-0.302642822265625,-6.212738037109375,7.4021148681640625
1713358565087331800,4.289331787109375,-0.345733642578125,-6.2103424072265625,7.531402587890625
1713358565097311200,4.299311279296875,-0.3577117919921875,-6.1002197265625,7.4811248779296875
1713358565107290400,4.309290283203125,-0.3481292724609375,-6.0619049072265625,7.5146484375
1713358565117239000,4.319239013671875,-0.398406982421875,-6.1002197265625,7.5194244384765625
1713358565127218400,4.329218505859375,-0.503753662109375,-6.15289306640625,7.4811248779296875
1713358565137197600,4.339197509765625,-0.4965667724609375,-6.1624603271484375,7.4811248779296875
1713358565147146200,4.349146240234375,-0.589935302734375,-6.138519287109375,7.3805694580078125
1713358565157125600,4.359125732421875,-0.434326171875,-6.12176513671875,7.4021148681640625
1713358565167104800,4.369104736328125,-0.7742919921875,-6.13134765625,7.3590240478515625
1713358565177053400,4.379053466796875,-0.6761322021484375,-5.937408447265625,7.3494415283203125
1713358565187032800,4.38903271484375,-0.82696533203125,-5.73150634765625,7.330291748046875
1713358565197012000,4.399011962890625,-0.6497955322265625,-5.398712158203125,7.452392578125
1713358565206991400,4.408991455078125,-0.7000732421875,-5.1473236083984375,7.43084716796875
1713358565216970500,4.418970458984375,-0.2260284423828125,-4.8001708984375,7.6080169677734375
1713358565226919200,4.428919189453125,0.034942626953125,-4.5296173095703125,7.8426513671875
1713358565236898600,4.438898681640625,0.0636749267578125,-4.479339599609375,8.218536376953125
1713358565246877700,4.448877685546875,0.14508056640625,-4.5272216796875,8.503448486328125
1713358565256826400,4.458826416015625,0.267181396484375,-4.69482421875,8.716537475585938
1713358565266805800,4.4688056640625,0.140289306640625,-4.8839569091796875,8.702163696289062
1713358565276785000,4.478784912109375,0.044525146484375,-5.061126708984375,8.714141845703125
1713358565286733800,4.48873388671875,-0.1063079833984375,-5.2742156982421875,8.735687255859375
1713358565296713000,4.498712890625,-0.1901092529296875,-5.547149658203125,8.83624267578125
1713358565306692000,4.508692138671875,-0.534881591796875,-5.8871307373046875,8.9320068359375
1713358565316641000,4.51864111328125,-0.5755767822265625,-6.0499420166015625,9.09002685546875
1713358565326620200,4.5286201171875,-0.5492401123046875,-6.1887969970703125,9.197769165039062
1713358565336568800,4.53856884765625,-0.5659942626953125,-6.401885986328125,9.403671264648438
1713358565346548200,4.54854833984375,-0.5588226318359375,-6.49285888671875,9.525772094726562
1713358565356527400,4.55852734375,-0.6378326416015625,-6.7107391357421875,9.631118774414062
1713358565366476000,4.56847607421875,-0.1110992431640625,-6.98846435546875,9.2049560546875
1713358565376455400,4.578455322265625,-0.915557861328125,-7.282958984375,9.173828125
1713358565386434600,4.5884345703125,-1.4255218505859375,-7.3021087646484375,9.475494384765625
1713358565396383500,4.598383544921875,-1.2363739013671875,-7.03155517578125,10.299102783203125
1713358565406362600,4.608362548828125,-0.642608642578125,-6.7227020263671875,11.043701171875
1713358565416341800,4.618341796875,1.0716400146484375,-6.0188140869140625,11.946304321289062
1713358565426290700,4.628290771484375,2.34295654296875,-5.3699798583984375,12.2384033203125
1713358565436269800,4.638269775390625,2.85052490234375,-5.573486328125,11.740402221679688
1713358565446218500,4.648218505859375,3.1545867919921875,-6.538360595703125,11.175369262695312
1713358565456198000,4.658197998046875,3.5496368408203125,-7.4984283447265625,10.311065673828125
1713358565466177000,4.668177001953125,3.4969635009765625,-8.152053833007812,9.032562255859375
1713358565476156400,4.678156494140625,3.09234619140625,-8.602157592773438,7.9096832275390625
1713358565486105000,4.68810498046875,2.5560455322265625,-8.992416381835938,7.0166473388671875
1713358565496084200,4.698084228515625,2.2926788330078125,-9.224655151367188,5.862640380859375
1713358565506063600,4.708063720703125,2.12030029296875,-9.380279541015625,4.8762359619140625
1713358565516042800,4.718042724609375,2.0293121337890625,-9.559844970703125,3.8634796142578125
1713358565525991400,4.727991455078125,2.359710693359375,-9.535888671875,3.22662353515625
1713358565535970800,4.737970703125,2.560821533203125,-9.667572021484375,3.28887939453125
1713358565545950000,4.747949951171875,2.570404052734375,-9.847137451171875,4.1029052734375
1713358565555899000,4.75789892578125,2.137054443359375,-10.124862670898438,4.7038421630859375
1713358565565878000,4.7678779296875,1.9550933837890625,-10.3475341796875,5.1826934814453125
1713358565575857200,4.777857177734375,2.512939453125,-10.376266479492188,5.683074951171875
1713358565585806000,4.78780615234375,3.4011993408203125,-10.23260498046875,5.7644805908203125
1713358565595785200,4.79778515625,3.731597900390625,-10.100921630859375,5.460418701171875
1713358565605764400,4.807764404296875,3.1162872314453125,-9.993194580078125,5.364654541015625
1713358565615713300,4.81771337890625,1.87847900390625,-9.906997680664062,5.850677490234375
1713358565625692400,4.8276923828125,0.7029266357421875,-9.476043701171875,6.590484619140625
1713358565635671800,4.837671875,-0.472625732421875,-8.8487548828125,7.3925323486328125
1713358565645620500,4.847620361328125,-0.6282501220703125,-8.405838012695312,8.153900146484375
1713358565655599600,4.857599609375,-0.35052490234375,-8.21429443359375,8.7835693359375
1713358565665548300,4.86754833984375,-0.18292236328125,-7.8336181640625,8.9320068359375
1713358565675527700,4.877527587890625,-0.6378326416015625,-7.71868896484375,8.620758056640625
1713358565685506800,4.8875068359375,-0.6976776123046875,-7.19915771484375,8.620758056640625
1713358565695455700,4.897455810546875,-0.3265838623046875,-6.79693603515625,8.26641845703125
1713358565705435000,4.907434814453125,-0.3170013427734375,-6.433013916015625,7.531402587890625
1713358565715414000,4.9174140625,-0.2667236328125,-5.82489013671875,6.75567626953125
1713358565725363000,4.927363037109375,-0.2523651123046875,-5.26702880859375,6.284027099609375
1713358565735342000,4.937342041015625,-0.3529205322265625,-5.0204315185546875,6.164306640625
1713358565745321500,4.947321533203125,-0.3577117919921875,-4.7618560791015625,5.5226593017578125
1713358565755300600,4.957300537109375,0.2384490966796875,-4.5990447998046875,5.1946563720703125
1713358565765249300,4.967249267578125,0.1474761962890625,-4.4601898193359375,4.732574462890625
1713358565775228700,4.977228759765625,-0.39361572265625,-4.3117523193359375,4.426116943359375
1713358565785207800,4.987207763671875,-0.673736572265625,-4.182464599609375,4.09332275390625
1713358565795187200,4.997187255859375,-0.853302001953125,-4.1561279296875,3.130859375
1713358565805136000,5.007135986328125,-1.222015380859375,-3.9119110107421875,2.48681640625
1713358565815115000,5.017114990234375,-1.581146240234375,-3.528839111328125,2.194732666015625
1713358565825094400,5.027094482421875,-1.624237060546875,-3.2271728515625,2.6065216064453125
1713358565835043000,5.03704296875,-1.655364990234375,-2.9805755615234375,2.810028076171875
1713358565845022200,5.047022216796875,-1.676910400390625,-3.052398681640625,3.46844482421875
1713358565855001600,5.057001708984375,-1.5428314208984375,-3.380401611328125,4.055023193359375
1713358565864950300,5.0669501953125,-1.633819580078125,-3.665313720703125,4.4333038330078125
1713358565874929400,5.076929443359375,-2.036041259765625,-3.7108001708984375,4.4213409423828125
1713358565884908800,5.08690869140625,-2.9434356689453125,-3.7371368408203125,4.4285125732421875
1713358565894857500,5.096857421875,-4.0352020263671875,-3.88079833984375,4.615264892578125
1713358565904836900,5.1068369140625,-4.9593658447265625,-3.856842041015625,5.311981201171875
1713358565914816000,5.11681591796875,-5.4262237548828125,-3.717987060546875,6.082916259765625
1713358565924764700,5.1267646484375,-5.280181884765625,-3.7108001708984375,7.2225494384765625
1713358565934744000,5.136744140625,-4.961761474609375,-3.70361328125,8.891311645507812
1713358565944692700,5.146692626953125,-4.4996795654296875,-3.9334564208984375,10.768356323242188
1713358565954671900,5.156671875,-3.843658447265625,-4.405120849609375,12.434722900390625
1713358565964651300,5.1666513671875,-3.304962158203125,-5.3436431884765625,13.265518188476562
1713358565974600000,5.176599853515625,-3.5563507080078125,-7.0483245849609375,13.6749267578125
1713358565984579000,5.1865791015625,-4.1932220458984375,-8.750595092773438,14.184890747070312
1713358565994558500,5.196558349609375,-3.5922698974609375,-10.450485229492188,12.853713989257812
1713358566004507100,5.206507080078125,-3.2738494873046875,-12.43048095703125,8.453170776367188
1713358566014486500,5.216486572265625,-4.561920166015625,-13.89813232421875,4.3806304931640625
1713358566024465700,5.226465576171875,-6.8579559326171875,-12.44964599609375,3.4875946044921875
1713358566034414300,5.236414306640625,-8.57220458984375,-9.241409301757812,4.8642578125
1713358566044393700,5.246393798828125,-8.79248046875,-5.7841796875,7.2871856689453125
1713358566054372900,5.256372802734375,-9.197097778320312,-5.1114044189453125,9.676605224609375
1713358566064352000,5.26635205078125,-7.67437744140625,-7.689971923828125,10.97186279296875
1713358566074301000,5.276301025390625,-4.085479736328125,-10.979598999023438,11.232833862304688
1713358566084280000,5.286280029296875,-1.2076416015625,-14.410491943359375,12.319808959960938
1713358566094259500,5.296259521484375,2.1825408935546875,-17.57562255859375,11.321426391601562
1713358566104208100,5.3062080078125,5.9534149169921875,-17.166213989257812,10.141082763671875
1713358566114187300,5.316187255859375,5.223175048828125,-11.444076538085938,8.0653076171875
1713358566124166700,5.326166748046875,-0.747955322265625,-6.3851318359375,4.97918701171875
1713358566134145800,5.336145751953125,-3.958587646484375,-5.0563507080078125,3.082977294921875
1713358566144094500,5.346094482421875,-2.4550323486328125,-4.563140869140625,2.31683349609375
1713358566154073900,5.356073974609375,0.90643310546875,-3.200836181640625,3.90179443359375
1713358566164022500,5.3660224609375,2.991790771484375,-2.1210479736328125,5.5466156005859375
1713358566174001700,5.376001708984375,3.5400543212890625,-1.685302734375,7.6918182373046875
1713358566183981000,5.38598095703125,4.409149169921875,-2.2790679931640625,8.369369506835938
1713358566193929700,5.3959296875,5.32135009765625,-3.6198272705078125,8.089248657226562
1713358566203909000,5.4059091796875,6.089874267578125,-5.2790069580078125,7.4595794677734375
1713358566213888300,5.41588818359375,4.6078643798828125,-7.522369384765625,6.252899169921875
1713358566223837000,5.4258369140625,1.0333251953125,-9.79925537109375,5.1922607421875
1713358566233816300,5.43581640625,-2.1557464599609375,-10.302047729492188,4.605682373046875
1713358566243795500,5.44579541015625,-3.577911376953125,-9.423370361328125,3.1500091552734375
1713358566253744000,5.455744140625,-3.5563507080078125,-7.8671417236328125,1.730255126953125
1713358566263723500,5.4657236328125,-2.4191131591796875,-6.6317291259765625,1.404632568359375
1713358566273702700,5.47570263671875,-1.169342041015625,-6.05950927734375,1.830810546875
1713358566283651300,5.4856513671875,-0.4127655029296875,-5.894317626953125,2.5634307861328125
1713358566293630700,5.495630615234375,-0.249969482421875,-6.0810546875,3.114105224609375
1713358566303579400,5.505579345703125,0.2288818359375,-6.6700286865234375,5.0629730224609375
1713358566313558800,5.515558837890625,1.05487060546875,-7.7593994140625,7.574493408203125
1713358566323538000,5.525537841796875,1.8138427734375,-8.829605102539062,9.94476318359375
1713358566333517000,5.53551708984375,1.334991455078125,-9.131271362304688,10.689346313476562
1713358566343466000,5.545466064453125,-0.1110992431640625,-8.053878784179688,9.123550415039062
1713358566353445000,5.555445068359375,-1.1717376708984375,-6.7490386962890625,6.9807281494140625
1713358566363424500,5.565424560546875,-1.0975189208984375,-5.98529052734375,5.96319580078125
1713358566373403600,5.575403564453125,-0.7934417724609375,-5.50885009765625,5.3407135009765625
1713358566383352300,5.585352294921875,-0.568389892578125,-5.2646331787109375,5.1922607421875
1713358566393331700,5.595331787109375,-0.2858734130859375,-5.281402587890625,5.587310791015625
1713358566403310800,5.605310791015625,-0.3409423828125,-5.2694244384765625,6.3127593994140625
1713358566413259500,5.615259521484375,-0.556427001953125,-5.2909698486328125,6.844268798828125
1713358566423239000,5.625239013671875,-0.683319091796875,-5.271820068359375,6.82989501953125
1713358566433218000,5.635218017578125,-0.5061492919921875,-4.9725494384765625,6.2145843505859375
1713358566443166700,5.645166748046875,-0.1302490234375,-4.922271728515625,6.813140869140625
1713358566453146000,5.65514599609375,-0.9730072021484375,-4.838470458984375,5.7165985107421875
1713358566463125200,5.665125244140625,-1.2627105712890625,-5.1784515380859375,5.1036834716796875
1713358566473074000,5.675073974609375,-1.423126220703125,-5.7171478271484375,5.091705322265625
1713358566483053300,5.68505322265625,-1.6481781005859375,-5.958953857421875,5.587310791015625
1713358566493032400,5.695032470703125,-1.3297576904296875,-6.2821807861328125,5.8961639404296875
1713358566502981400,5.7049814453125,-1.301025390625,-6.7274932861328125,6.2289581298828125
1713358566512960500,5.71496044921875,-1.698455810546875,-7.151275634765625,6.2409210205078125
1713358566522909200,5.7249091796875,-1.9187164306640625,-7.531951904296875,7.3374786376953125
1713358566532888600,5.734888671875,-2.3448944091796875,-7.491241455078125,9.200164794921875
1713358566542867700,5.74486767578125,-2.871612548828125,-6.698760986328125,9.441970825195312
1713358566552816400,5.75481640625,-1.9857635498046875,-5.535186767578125,10.531341552734375
1713358566562795800,5.764795654296875,-1.1262359619140625,-4.49371337890625,11.386062622070312
1713358566572775000,5.77477490234375,-0.9825897216796875,-3.50250244140625,11.716461181640625
1713358566582723600,5.7847236328125,-0.589935302734375,-2.6262359619140625,11.788299560546875
1713358566592703000,5.794702880859375,0.805877685546875,-2.1306304931640625,11.532119750976562
1713358566602682000,5.80468212890625,1.7803192138671875,-1.594329833984375,10.873703002929688
1713358566612661500,5.81466162109375,2.512939453125,-2.080352783203125,11.69970703125
1713358566622610200,5.824610107421875,1.5265350341796875,-3.6054534912109375,11.481842041015625
1713358566632589300,5.83458935546875,0.245635986328125,-5.788970947265625,12.156997680664062
1713358566642568700,5.844568603515625,-0.4774169921875,-7.977264404296875,11.989410400390625
1713358566652547800,5.8545478515625,-0.2475738525390625,-9.114517211914062,11.785903930664062
1713358566662496800,5.864496826171875,0.4635009765625,-9.138458251953125,12.061233520507812
1713358566672476000,5.874475830078125,-0.3720703125,-9.219863891601562,11.42437744140625
1713358566682455000,5.884455078125,0.11395263671875,-10.26373291015625,10.270370483398438
1713358566692404000,5.894404052734375,1.270355224609375,-10.364288330078125,10.045318603515625
1713358566702383000,5.904383056640625,1.80426025390625,-10.175140380859375,8.443588256835938
1713358566712362500,5.914362548828125,2.328582763671875,-10.48638916015625,6.57611083984375
1713358566722311200,5.924311279296875,2.711669921875,-10.891006469726562,4.7924346923828125
1713358566732290300,5.934290283203125,2.2471923828125,-10.8551025390625,3.600128173828125
1713358566742269700,5.944269775390625,1.006988525390625,-10.946075439453125,2.4413299560546875
1713358566752218400,5.95421826171875,0.6406707763671875,-11.29803466796875,1.5435028076171875
1713358566762197500,5.964197509765625,0.827423095703125,-11.460830688476562,1.7996826171875
1713358566772146400,5.974146484375,0.1666259765625,-11.867843627929688,2.7837066650390625
1713358566782125600,5.98412548828125,-1.00653076171875,-12.466400146484375,4.4380950927734375
1713358566792104700,5.994104736328125,-1.1884918212890625,-12.528640747070312,6.295989990234375
1713358566802053600,6.0040537109375,0.1522674560546875,-12.114456176757812,7.1579132080078125
1713358566812032800,6.01403271484375,2.4075927734375,-11.393798828125,7.701385498046875
1713358566822012200,6.02401220703125,3.7244110107421875,-10.235000610351562,8.029388427734375
1713358566831960800,6.0339609375,3.6549835205078125,-9.200714111328125,7.6128082275390625
1713358566841940000,6.04393994140625,2.1562042236328125,-8.451324462890625,7.7684326171875
1713358566851919400,6.05391943359375,0.2001495361328125,-7.8791046142578125,8.309524536132812
1713358566861868000,6.063867919921875,-0.2212371826171875,-7.469696044921875,8.817092895507812
1713358566871847200,6.07384716796875,-0.1637725830078125,-7.0483245849609375,9.535354614257812
1713358566881796000,6.083796142578125,0.408447265625,-6.380340576171875,10.205718994140625
1713358566891775200,6.093775146484375,-0.0751953125,-5.8033294677734375,9.686187744140625
1713358566901754400,6.10375439453125,-0.953857421875,-5.0994415283203125,9.578445434570312
1713358566911733800,6.113733642578125,-0.989776611328125,-4.6828460693359375,8.666259765625
1713358566921713000,6.123712890625,-0.779083251953125,-4.6780548095703125,7.763641357421875
1713358566931661600,6.13366162109375,-0.6067047119140625,-5.202392578125,6.580902099609375
1713358566941641000,6.143640869140625,-0.4534759521484375,-5.37237548828125,5.8386993408203125
1713358566951620000,6.1536201171875,-0.3050384521484375,-5.006072998046875,5.3694305419921875
1713358566961569000,6.163569091796875,-0.09674072265625,-4.922271728515625,4.926513671875
1713358566971548200,6.173548095703125,0.07086181640625,-4.56793212890625,4.794830322265625
1713358566981527300,6.18352734375,0.0804290771484375,-3.9526214599609375,4.5290679931640625
1713358566991506700,6.193506591796875,0.1259307861328125,-3.5527801513671875,3.9784088134765625
1713358567001455400,6.203455322265625,0.0062103271484375,-3.1338043212890625,3.432525634765625
1713358567011434800,6.213434814453125,-0.2379913330078125,-2.9398651123046875,3.1739501953125
1713358567021383400,6.223383544921875,-0.695281982421875,-2.9662017822265625,2.819610595703125
1713358567031362600,6.233362548828125,-0.8652801513671875,-3.1146392822265625,2.3671112060546875
1713358567041342000,6.243342041015625,-1.0089263916015625,-3.2271728515625,2.0989532470703125
1713358567051290600,6.25329052734375,-1.212432861328125,-3.2343597412109375,2.079803466796875
1713358567061269800,6.263269775390625,-1.38720703125,-3.2870330810546875,2.407806396484375
1713358567071249200,6.273249267578125,-1.4925537109375,-3.4929351806640625,3.00396728515625
1713358567081197800,6.28319775390625,-1.8516845703125,-3.71319580078125,3.3870391845703125
1713358567091177000,6.293177001953125,-2.59149169921875,-3.919097900390625,3.6623687744140625
1713358567101156400,6.30315625,-3.6545257568359375,-4.20880126953125,4.055023193359375
1713358567111105000,6.31310498046875,-4.7342987060546875,-4.5439910888671875,4.5338592529296875
1713358567121084400,6.32308447265625,-5.4788970947265625,-4.9629669189453125,5.20184326171875
1713358567131033000,6.333033203125,-5.337646484375,-5.4489898681640625,6.3989410400390625
1713358567141012200,6.34301220703125,-5.0383758544921875,-5.884735107421875,8.376556396484375
1713358567150991600,6.35299169921875,-4.6529083251953125,-6.2941436767578125,10.715682983398438
1713358567160940300,6.362940185546875,-3.738311767578125,-6.962127685546875,13.109893798828125
1713358567170919400,6.37291943359375,-2.9578094482421875,-8.113739013671875,14.56317138671875
1713358567180898800,6.38289892578125,-2.6322021484375,-9.614898681640625,14.740341186523438
1713358567190878000,6.3928779296875,-2.8548583984375,-10.74017333984375,13.00933837890625
1713358567200826600,6.40282666015625,-3.1517333984375,-10.23260498046875,10.244033813476562
1713358567210806000,6.412805908203125,-4.1620941162109375,-9.057052612304688,8.08685302734375
1713358567220785200,6.42278515625,-5.349609375,-7.5822296142578125,6.6575164794921875
1713358567230764500,6.4327646484375,-6.4772796630859375,-5.566314697265625,6.348663330078125
1713358567240713200,6.442713134765625,-7.3320159912109375,-3.2918243408203125,7.002288818359375
1713358567250692400,6.4526923828125,-8.904998779296875,-2.164154052734375,8.754837036132812
1713358567260671700,6.462671630859375,-10.379837036132812,-4.584686279296875,11.2352294921875
1713358567270620400,6.472620361328125,-8.172378540039062,-9.370697021484375,12.520919799804688
1713358567280599800,6.482599853515625,-2.9147186279296875,-13.474349975585938,13.255935668945312
1713358567290579000,6.492578857421875,1.904815673828125,-18.310638427734375,13.488174438476562
1713358567300527600,6.502527587890625,6.5711212158203125,-21.214813232421875,11.180160522460938
1713358567310507000,6.512507080078125,9.214309692382812,-17.221282958984375,8.596817016601562
1713358567320486100,6.522486083984375,3.4706268310546875,-10.512725830078125,7.4907073974609375
1713358567330434800,6.532434814453125,-5.07427978515625,-7.282958984375,4.778076171875
1713358567340414200,6.542414306640625,-6.7765655517578125,-5.2790069580078125,1.4477386474609375
1713358567350393300,6.552393310546875,-3.3432769775390625,-3.263092041015625,0.2482452392578125
1713358567360342000,6.562342041015625,0.868133544921875,-2.9925384521484375,1.0933990478515625
1713358567370321400,6.5723212890625,3.4969635009765625,-3.148162841796875,1.82122802734375
1713358567380270000,6.58227001953125,4.9717864990234375,-2.6860809326171875,4.3542938232421875
1713358567390249200,6.592249267578125,6.310150146484375,-2.947052001953125,6.5402069091796875
1713358567400228600,6.602228515625,6.91827392578125,-4.1058502197265625,8.220932006835938
1713358567410177300,6.61217724609375,5.089111328125,-6.9118499755859375,8.40289306640625
1713358567420156700,6.62215673828125,1.0716400146484375,-10.699478149414062,7.155517578125
1713358567430135800,6.6321357421875,-2.7997894287109375,-12.193466186523438,6.54498291015625
1713358567440084500,6.64208447265625,-4.224334716796875,-10.625259399414062,5.4221038818359375
1713358567450064000,6.65206396484375,-3.1517333984375,-8.025161743164062,3.748565673828125
1713358567460043000,6.66204296875,-1.286651611328125,-6.3994903564453125,2.28570556640625
1713358567469991700,6.67199169921875,-0.029693603515625,-5.499267578125,1.4908294677734375
1713358567479971000,6.68197119140625,0.5664520263671875,-5.101837158203125,1.636871337890625
1713358567489950200,6.6919501953125,0.9088287353515625,-5.1569061279296875,2.2210693359375
1713358567499929600,6.7019296875,1.6318817138671875,-5.7841796875,3.46844482421875
1713358567509878300,6.711878173828125,2.199310302734375,-6.8160858154296875,5.9608001708984375
1713358567519857400,6.721857421875,1.8018646240234375,-8.152053833007812,9.571258544921875
1713358567529836800,6.7318369140625,0.434783935546875,-9.042694091796875,12.5352783203125
1713358567539785500,6.741785400390625,-1.1406097412109375,-8.331619262695312,12.32220458984375
1713358567549764600,6.7517646484375,-1.8325347900390625,-7.089019775390625,8.975112915039062
1713358567559744000,6.761743896484375,-2.093505859375,-6.9429779052734375,6.537811279296875
1713358567569723100,6.77172314453125,-1.8971710205078125,-6.6580657958984375,6.2145843505859375
1713358567579672000,6.781672119140625,-1.69366455078125,-5.978118896484375,6.6718902587890625
1713358567589651200,6.791651123046875,-1.0663909912109375,-5.7219390869140625,6.30078125
1713358567599630300,6.80163037109375,-0.3912200927734375,-5.3005523681640625,5.9488372802734375
1713358567609579300,6.811579345703125,-0.6545867919921875,-5.0252227783203125,6.0757293701171875
1713358567619558400,6.821558349609375,-0.7718963623046875,-4.860015869140625,6.1882476806640625
1713358567629507000,6.831507080078125,-0.4008026123046875,-4.7929840087890625,6.078125
1713358567639486500,6.841486572265625,-0.161376953125,-4.955780029296875,5.630401611328125
1713358567649465600,6.851465576171875,-0.9131622314453125,-5.0036773681640625,5.429290771484375
1713358567659414300,6.861414306640625,-1.83013916015625,-5.3101348876953125,5.0941009521484375
1713358567669393700,6.8713935546875,-1.782257080078125,-5.6908111572265625,4.7924346923828125
1713358567679372800,6.881372802734375,-1.4374847412109375,-5.8224945068359375,4.7756805419921875
1713358567689321700,6.89132177734375,-1.9809722900390625,-5.7434844970703125,5.0821380615234375
1713358567699300900,6.90130078125,-1.782257080078125,-5.920654296875,5.7213897705078125
1713358567709280000,6.911280029296875,-1.597900390625,-6.0930328369140625,6.8730010986328125
1713358567719229000,6.92122900390625,-2.613037109375,-6.09063720703125,7.98150634765625
1713358567729208000,6.9312080078125,-2.5627593994140625,-6.021209716796875,9.169036865234375
1713358567739156700,6.94115673828125,-2.818939208984375,-5.578277587890625,10.552886962890625
1713358567749136100,6.95113623046875,-1.7008514404296875,-4.3596343994140625,11.711685180664062
1713358567759115300,6.961115234375,-0.166168212890625,-3.6725006103515625,12.109115600585938
1713358567769094700,6.9710947265625,-0.218841552734375,-3.5863037109375,12.044479370117188
1713358567779073800,6.98107373046875,0.0732574462890625,-3.40673828125,11.570419311523438
1713358567789022500,6.9910224609375,0.9447479248046875,-3.1290130615234375,10.943145751953125
1713358567799001900,7.001001953125,1.275146484375,-3.1768951416015625,10.2200927734375
1713358567808981000,7.01098095703125,1.121917724609375,-3.8831787109375,10.576828002929688
1713358567818929700,7.0209296875,0.64306640625,-5.2382965087890625,10.73724365234375
1713358567828909000,7.030908935546875,-1.04962158203125,-6.593414306640625,9.20733642578125
1713358567838875000,7.040875,-1.6122589111328125,-8.06585693359375,9.542526245117188
1713358567848854000,7.05085400390625,-3.2690582275390625,-9.160003662109375,10.34698486328125
1713358567858803000,7.060802978515625,-2.7519073486328125,-9.789688110351562,10.490631103515625
1713358567868782000,7.070781982421875,-0.609100341796875,-9.47125244140625,9.7987060546875
1713358567878730800,7.080730712890625,1.545684814453125,-8.17120361328125,8.80511474609375
1713358567888710100,7.090710205078125,3.932708740234375,-7.4936370849609375,9.516189575195312
1713358567898689300,7.100689208984375,4.3995819091796875,-7.6205291748046875,9.372543334960938
1713358567908638000,7.110637939453125,3.944671630859375,-8.472869873046875,7.6247711181640625
1713358567918617300,7.120617431640625,3.4706268310546875,-9.760955810546875,5.718994140625
1713358567928596500,7.130596435546875,3.0971221923828125,-11.01312255859375,4.995941162109375
1713358567938545400,7.14054541015625,1.852142333984375,-11.987564086914062,3.92333984375
1713358567948524500,7.150524658203125,-0.0991363525390625,-12.96917724609375,2.0989532470703125
1713358567958503700,7.160503662109375,-0.9873809814453125,-13.440841674804688,1.646453857421875
1713358567968452600,7.17045263671875,-1.39678955078125,-13.682647705078125,2.5682220458984375
1713358567978431700,7.180431640625,-1.6649322509765625,-13.7281494140625,4.7182159423828125
1713358567988380400,7.19038037109375,-1.6290283203125,-13.378585815429688,6.444427490234375
1713358567998359800,7.20035986328125,-0.082366943359375,-12.806381225585938,7.722930908203125
1713358568008339000,7.2103388671875,2.4051971435546875,-11.949249267578125,8.244873046875
1713358568018287600,7.22028759765625,4.519287109375,-10.713836669921875,7.943206787109375
1713358568028267000,7.23026708984375,5.4266815185546875,-8.942138671875,7.46197509765625
1713358568038246100,7.24024609375,3.7244110107421875,-7.4505462646484375,7.246490478515625
1713358568048225500,7.2502255859375,0.76995849609375,-6.59820556640625,7.955169677734375
1713358568058174200,7.26017431640625,-1.6050872802734375,-6.5167999267578125,8.886520385742188
1713358568068153300,7.2701533203125,-1.71282958984375,-6.413848876953125,11.2232666015625
1713358568078132700,7.2801328125,-1.4566497802734375,-7.0076141357421875,11.601547241210938
1713358568088111900,7.29011181640625,-1.181304931640625,-7.606170654296875,10.986236572265625
1713358568098060800,7.300060791015625,-0.8868255615234375,-7.871917724609375,9.55450439453125
1713358568108040000,7.3100400390625,-0.57318115234375,-7.859954833984375,8.225723266601562
1713358568118019000,7.32001904296875,-0.4438934326171875,-7.5822296142578125,6.9735565185546875
1713358568127968000,7.329968017578125,-0.28826904296875,-7.084228515625,5.8123626708984375
1713358568137947100,7.339947021484375,-0.0009613037109375,-6.274993896484375,4.277679443359375
1713358568147926500,7.349926513671875,-0.5588226318359375,-4.922271728515625,5.0941009521484375
1713358568157875200,7.359875244140625,-0.336151123046875,-4.3859710693359375,4.6655426025390625
1713358568167854300,7.369854248046875,-0.0991363525390625,-3.9047393798828125,4.5386505126953125
1713358568177833700,7.379833740234375,0.1809844970703125,-3.543212890625,4.4428863525390625
1713358568187782400,7.389782470703125,0.245635986328125,-3.2391510009765625,3.8802490234375
1713358568197761500,7.399761474609375,0.2288818359375,-2.990142822265625,3.4397125244140625
1713358568207710500,7.40971044921875,0.0421295166015625,-2.745941162109375,3.0638275146484375
1713358568217689600,7.419689697265625,-0.39361572265625,-2.6118621826171875,2.4844207763671875
1713358568227668700,7.429668701171875,-1.09033203125,-2.556793212890625,2.31683349609375
1713358568237617700,7.43961767578125,-1.7367706298828125,-2.4945526123046875,2.1181182861328125
1713358568247596800,7.4495966796875,-2.067169189453125,-2.8441009521484375,2.40301513671875
1713358568257576000,7.459575927734375,-1.8971710205078125,-3.0715484619140625,2.946502685546875
1713358568267524900,7.46952490234375,-1.667327880859375,-3.1553497314453125,3.12127685546875
1713358568277504000,7.47950390625,-1.772674560546875,-3.1074676513671875,3.2170562744140625
1713358568287483400,7.4894833984375,-2.534027099609375,-3.0859222412109375,3.2194366455078125
1713358568297432000,7.49943212890625,-3.8388671875,-3.17449951171875,3.3607025146484375
1713358568307411200,7.5094111328125,-5.14849853515625,-3.34210205078125,3.791656494140625
1713358568317359900,7.51935986328125,-5.7374725341796875,-3.4354705810546875,4.9983367919921875
1713358568327339300,7.52933935546875,-4.784576416015625,-3.4785614013671875,6.940032958984375
1713358568337318400,7.539318359375,-2.97216796875,-3.897552490234375,9.025390625
1713358568347297800,7.5492978515625,-1.75592041015625,-5.0036773681640625,11.10833740234375
1713358568357277000,7.55927685546875,-2.2706756591796875,-6.8017120361328125,12.994964599609375
1713358568367225600,7.5692255859375,-3.1158294677734375,-9.001983642578125,13.909561157226562
1713358568377205000,7.579205078125,-3.6401519775390625,-11.082550048828125,13.598312377929688
1713358568387184000,7.58918408203125,-4.2219390869140625,-12.978759765625,11.8792724609375
1713358568397133000,7.599133056640625,-4.3272857666015625,-14.381759643554688,8.642318725585938
1713358568407112200,7.6091123046875,-5.411865234375,-13.79278564453125,5.7022247314453125
1713358568417091300,7.61909130859375,-7.267364501953125,-10.5390625,4.9935455322265625
1713358568427070700,7.62907080078125,-8.24420166015625,-6.200775146484375,6.147552490234375
1713358568437019400,7.639019287109375,-8.77093505859375,-2.9422607421875,7.2871856689453125
1713358568446998800,7.648998779296875,-8.986404418945312,-1.8983917236328125,8.393310546875
1713358568456947500,7.658947509765625,-8.028732299804688,-4.3668212890625,9.992645263671875
1713358568466926600,7.668926513671875,-5.99365234375,-9.710678100585938,10.639068603515625
1713358568476906000,7.678906005859375,-3.4174957275390625,-14.776809692382812,11.936737060546875
1713358568486854700,7.688854736328125,-2.225189208984375,-18.111923217773438,14.994125366210938
1713358568496833800,7.698833740234375,1.6318817138671875,-19.4981689453125,14.955825805664062
1713358568506813200,7.708813232421875,5.9869232177734375,-15.49267578125,11.43634033203125
1713358568516761900,7.718761962890625,3.700469970703125,-7.9533233642578125,7.54815673828125
1713358568526741000,7.728740966796875,-2.36883544921875,-3.876007080078125,3.6504058837890625
1713358568536720400,7.738720458984375,-3.5228424072265625,-2.7315673828125,2.1564178466796875
1713358568546669000,7.7486689453125,-0.2739105224609375,-2.851287841796875,3.169158935546875
1713358568556648400,7.7586484375,1.90960693359375,-3.68206787109375,4.2106475830078125
1713358568566627600,7.768627685546875,1.7228546142578125,-3.7993927001953125,5.596893310546875
1713358568576576300,7.778576171875,1.5744171142578125,-3.7467193603515625,6.865814208984375
1713358568586555600,7.7885556640625,2.9175567626953125,-3.9167022705078125,8.1826171875
1713358568596504300,7.79850439453125,5.0675506591796875,-4.2854156494140625,9.0804443359375
1713358568606483500,7.8084833984375,5.929473876953125,-5.504058837890625,9.003829956054688
1713358568616462800,7.818462890625,5.5464019775390625,-7.364349365234375,8.314300537109375
1713358568626442000,7.82844189453125,2.08917236328125,-9.327606201171875,7.3278961181640625
1713358568636421400,7.83842138671875,-2.1342010498046875,-9.547866821289062,6.200225830078125
1713358568646370000,7.8483701171875,-3.71197509765625,-8.10894775390625,4.4333038330078125
1713358568656349200,7.85834912109375,-2.9051361083984375,-6.686798095703125,2.9393157958984375
1713358568666328600,7.86832861328125,-2.0503997802734375,-6.2151336669921875,1.3998565673828125
1713358568676277200,7.87827734375,-1.8971710205078125,-6.20556640625,1.4118194580078125
1713358568686256400,7.88825634765625,-2.2706756591796875,-6.8328399658203125,1.8715057373046875
1713358568696235800,7.89823583984375,-2.141387939453125,-7.5080108642578125,2.4772491455078125
1713358568706184400,7.908184326171875,-1.4566497802734375,-7.7929229736328125,4.213043212890625
1713358568716163600,7.91816357421875,-0.197296142578125,-8.01318359375,6.516265869140625
1713358568726143000,7.92814306640625,0.56884765625,-8.322036743164062,7.7181549072265625
1713358568736091600,7.938091552734375,0.753204345703125,-7.86474609375,8.55133056640625
1713358568746071000,7.948071044921875,0.9255828857421875,-6.91424560546875,9.180999755859375
1713358568756050200,7.95805029296875,0.2911224365234375,-5.91107177734375,8.608795166015625
1713358568765998800,7.967998779296875,-0.5109405517578125,-5.0467681884765625,7.119598388671875
1713358568775978200,7.977978271484375,-0.716827392578125,-4.7834014892578125,5.4652099609375
1713358568785957400,7.987957275390625,-0.582763671875,-4.974945068359375,4.2369842529296875
1713358568795906000,7.997906005859375,-0.7192230224609375,-5.3364715576171875,3.93292236328125
1713358568805885400,8.007885498046875,-1.243560791015625,-5.7961578369140625,4.72540283203125
1713358568815864600,8.017864501953126,-1.593109130859375,-6.20556640625,6.073333740234375
1713358568825813200,8.027813232421876,-1.597900390625,-6.2773895263671875,6.9807281494140625
1713358568835792600,8.037792724609375,-1.3417205810546875,-5.946990966796875,6.9735565185546875
1713358568845741300,8.0477412109375,-0.9131622314453125,-5.346038818359375,6.59527587890625
1713358568855720700,8.057720703125,-0.9825897216796875,-4.781005859375,6.0613555908203125
1713358568865699800,8.067699951171875,-0.99456787109375,-4.5703277587890625,5.93206787109375
1713358568875648500,8.0776484375,-0.779083251953125,-4.7139739990234375,6.295989990234375
1713358568885628000,8.0876279296875,-1.24835205078125,-4.974945068359375,6.6192169189453125
1713358568895607000,8.09760693359375,-1.571563720703125,-5.2430877685546875,6.8011627197265625
1713358568905586400,8.10758642578125,-1.435089111328125,-5.5016632080078125,6.918487548828125
1713358568915535000,8.11753515625,-1.317779541015625,-5.7650299072265625,6.9472198486328125
1713358568925514200,8.12751416015625,-2.05279541015625,-5.994873046875,6.9472198486328125
1713358568935493600,8.13749365234375,-2.364044189453125,-6.04754638671875,7.08367919921875
1713358568945472800,8.14747265625,-1.5859222412109375,-6.0571136474609375,7.5577392578125
1713358568955421400,8.15742138671875,-1.2794647216796875,-5.9302215576171875,8.45556640625
1713358568965400800,8.16740087890625,-1.116668701171875,-5.4274444580078125,9.655059814453125
1713358568975380000,8.1773798828125,-0.3696746826171875,-5.0419769287109375,10.866531372070312
1713358568985328600,8.18732861328125,-0.4031982421875,-4.5463714599609375,11.99658203125
1713358568995308000,8.19730810546875,0.1283111572265625,-3.765869140625,12.271926879882812
1713358569005287200,8.207287109375,1.6222991943359375,-2.956634521484375,12.044479370117188
1713358569015236000,8.217236083984375,2.2878875732421875,-3.02606201171875,11.328598022460938
1713358569025215200,8.22721533203125,0.8034820556640625,-4.0651397705078125,11.285507202148438
1713358569035194400,8.2371943359375,-0.1494140625,-6.09063720703125,11.49859619140625
1713358569045143300,8.247143310546875,-1.1142730712890625,-8.195144653320312,11.137069702148438
1713358569055122400,8.257122314453126,-1.5739593505859375,-9.061843872070312,11.340576171875
1713358569065101800,8.267101806640625,-0.735992431640625,-8.942138671875,12.140243530273438
1713358569075050500,8.277050537109375,1.5313262939453125,-8.480056762695312,10.931167602539062
1713358569085029600,8.287029541015626,2.1083221435546875,-8.56146240234375,9.19537353515625
1713358569094978300,8.296978271484376,2.56561279296875,-9.013961791992188,9.83941650390625
1713358569104957700,8.306957763671875,4.2774658203125,-9.341964721679688,8.97271728515625
1713358569114936800,8.316936767578126,3.8991851806640625,-10.12725830078125,7.045379638671875
1713358569124885800,8.3268857421875,2.2519683837890625,-11.336334228515625,5.371826171875
1713358569134865000,8.336864990234375,1.73004150390625,-12.193466186523438,3.6408233642578125
1713358569144844000,8.346843994140626,0.9303741455078125,-12.27008056640625,2.280914306640625
1713358569154793000,8.35679296875,-0.113494873046875,-12.095291137695312,1.682373046875
1713358569164772000,8.366772216796875,-0.240386962890625,-11.894180297851562,2.2617645263671875
1713358569174751200,8.376751220703126,-0.6330413818359375,-11.918121337890625,3.6360321044921875
1713358569184700200,8.3867001953125,-0.9514617919921875,-12.025863647460938,5.7165985107421875
1713358569194679300,8.39667919921875,-0.3122100830078125,-12.1240234375,7.4499969482421875
1713358569204658700,8.40665869140625,1.7061004638671875,-12.191070556640625,8.189804077148438
1713358569214637800,8.416637939453125,3.9997406005859375,-11.78643798828125,7.9623565673828125
1713358569224586500,8.42658642578125,5.11065673828125,-10.663558959960938,7.552947998046875
1713358569234566000,8.43656591796875,4.3756256103515625,-9.124099731445312,7.330291748046875
1713358569244545000,8.446544921875,2.20648193359375,-7.6660308837890625,7.054962158203125
1713358569254493700,8.45649365234375,-0.3385467529296875,-7.1919708251953125,7.2752227783203125
1713358569264473000,8.46647314453125,-1.72479248046875,-7.014801025390625,8.884124755859375
1713358569274452200,8.4764521484375,-1.7535247802734375,-7.24224853515625,10.255996704101562
1713358569284431600,8.486431640625,-1.423126220703125,-7.299713134765625,11.093978881835938
1713358569294380300,8.49638037109375,-1.301025390625,-7.4194183349609375,11.007781982421875
1713358569304359400,8.506359375,-1.023284912109375,-7.2542266845703125,9.930389404296875
1713358569314338800,8.5163388671875,-0.800628662109375,-7.1081695556640625,8.587249755859375
1713358569324287500,8.52628759765625,-0.4486846923828125,-6.8950958251953125,7.3542327880859375
1713358569334266600,8.5362666015625,0.0277557373046875,-6.3611907958984375,6.0134735107421875
1713358569344215600,8.546215576171875,0.530548095703125,-5.630950927734375,4.7876434326171875
1713358569354194700,8.556194580078126,0.4443511962890625,-4.484130859375,4.9360809326171875
1713358569364174000,8.566174072265625,0.942352294921875,-3.674896240234375,4.282470703125
1713358569374122800,8.576122802734375,0.9830474853515625,-3.0045166015625,3.8203887939453125
1713358569384102000,8.586101806640626,0.911224365234375,-2.77227783203125,3.1380462646484375
1713358569394081300,8.596081298828125,0.616729736328125,-2.6741180419921875,2.575408935546875
1713358569404030000,8.606030029296875,0.17620849609375,-2.5328521728515625,2.2665557861328125
1713358569414009000,8.616009033203126,-0.472625732421875,-2.408355712890625,2.18994140625
1713358569423988500,8.625988525390625,-0.8556976318359375,-2.7387542724609375,2.60174560546875
1713358569433937200,8.635937255859375,-1.0185089111328125,-2.6477813720703125,2.2881011962890625
1713358569443916300,8.645916259765626,-1.14300537109375,-2.7196044921875,2.4006195068359375
1713358569453865200,8.655865234375,-1.31298828125,-2.8680419921875,2.7789154052734375
1713358569463844400,8.66584423828125,-1.5548095703125,-3.1290130615234375,3.114105224609375
1713358569473823700,8.67582373046875,-2.0336456298828125,-3.3133697509765625,3.3295745849609375
1713358569483803000,8.685802978515625,-2.7159881591796875,-3.6102447509765625,3.5929412841796875
1713358569493782000,8.695781982421876,-3.6976165771484375,-4.1058502197265625,3.84912109375
1713358569503731000,8.70573095703125,-4.85162353515625,-4.6349639892578125,4.2226104736328125
1713358569513710000,8.7157099609375,-5.4358062744140625,-5.1425323486328125,5.0725555419921875
1713358569523689500,8.725689453125,-5.28497314453125,-5.3819580078125,6.6623077392578125
1713358569533638100,8.73563818359375,-4.6864166259765625,-5.451385498046875,8.90087890625
1713358569543617300,8.7456171875,-3.7670440673828125,-5.767425537109375,11.084396362304688
1713358569553596700,8.7555966796875,-3.05596923828125,-6.9214324951171875,12.827377319335938
1713358569563575800,8.765575927734375,-2.828521728515625,-8.918197631835938,13.490570068359375
1713358569573524500,8.7755244140625,-2.9913330078125,-11.11846923828125,12.5975341796875
1713358569583504000,8.78550390625,-3.5108642578125,-13.045791625976562,10.797088623046875
1713358569593452500,8.79545263671875,-3.7335357666015625,-14.824691772460938,7.0214385986328125
1713358569603431700,8.805431640625,-4.233917236328125,-14.613998413085938,3.5666046142578125
1713358569613411000,8.8154111328125,-6.283355712890625,-11.91094970703125,3.07818603515625
1713358569623359700,8.82535986328125,-7.6288909912109375,-7.723480224609375,5.3215484619140625
1713358569633339000,8.8353388671875,-8.684738159179688,-4.2638702392578125,7.8354644775390625
1713358569643318300,8.845318359375,-9.4915771484375,-2.6884765625,9.183395385742188
1713358569653267000,8.855266845703126,-9.441299438476562,-4.3668212890625,10.648651123046875
1713358569663246300,8.865246337890625,-6.853179931640625,-9.37548828125,11.369308471679688
1713358569673225500,8.8752255859375,-1.6002960205078125,-13.407318115234375,12.5352783203125
1713358569683174100,8.885174072265626,0.36773681640625,-15.796737670898438,15.769851684570312
1713358569693153500,8.895153564453125,2.4842071533203125,-16.87652587890625,15.870407104492188
1713358569703102200,8.905102294921875,5.8624267578125,-13.711380004882812,10.9503173828125
1713358569713081300,8.915081298828126,4.270294189453125,-7.203948974609375,5.8602447509765625
1713358569723060700,8.925060791015625,-1.327362060546875,-3.8257293701171875,2.350341796875
1713358569733009400,8.935009521484375,-2.8357086181640625,-3.6006622314453125,1.0886077880859375
1713358569742988500,8.944988525390626,-0.49896240234375,-3.914306640625,3.1236724853515625
1713358569752968000,8.954968017578125,0.96868896484375,-3.8855743408203125,5.5466156005859375
1713358569762947000,8.964947021484376,0.3174591064453125,-3.75628662109375,7.0070648193359375
1713358569772896000,8.97489599609375,1.7707366943359375,-3.634185791015625,7.675048828125
1713358569782875100,8.984875244140625,4.1888885498046875,-3.612640380859375,8.829055786132812
1713358569792854300,8.994854248046876,6.0491790771484375,-4.2183685302734375,9.465911865234375
1713358569802833700,9.004833740234375,7.514434814453125,-5.113800048828125,10.172210693359375
1713358569812782300,9.0147822265625,6.501678466796875,-7.7474212646484375,8.795547485351562
1713358569822761700,9.02476171875,1.387664794921875,-10.258941650390625,6.4875335693359375
1713358569832740900,9.034740966796875,-3.1541290283203125,-10.165573120117188,5.1683197021484375
1713358569842689500,9.044689453125,-4.159698486328125,-8.645248413085938,3.7150421142578125
1713358569852669000,9.0546689453125,-3.4390411376953125,-7.3882904052734375,2.163604736328125
1713358569862648000,9.06464794921875,-2.77105712890625,-6.9214324951171875,1.2107086181640625
1713358569872596700,9.0745966796875,-2.227569580078125,-7.005218505859375,1.160430908203125
1713358569882576100,9.084576171875,-1.6481781005859375,-7.321258544921875,1.095794677734375
1713358569892555300,9.09455517578125,-1.4039764404296875,-7.256622314453125,1.636871337890625
1713358569902504000,9.10450390625,-0.8509063720703125,-7.084228515625,3.178741455078125
1713358569912483300,9.1144833984375,0.135498046875,-7.0531005859375,5.7333526611328125
1713358569922462500,9.12446240234375,1.76116943359375,-7.3140716552734375,8.570480346679688
1713358569932411400,9.134411376953125,2.6685638427734375,-7.6301116943359375,11.738006591796875
1713358569942390500,9.144390625,1.9335479736328125,-7.4122314453125,13.047637939453125
1713358569952369700,9.15436962890625,0.11395263671875,-6.253448486328125,9.767593383789062
1713358569962318600,9.164318603515625,-1.18609619140625,-5.2837982177734375,5.0079193115234375
1713358569972297700,9.174297607421876,-1.0400543212890625,-5.2095794677734375,2.999176025390625
1713358569982246400,9.184246337890626,-0.5205078125,-5.1712646484375,2.48681640625
1713358569992225800,9.194225830078125,-0.6689453125,-5.092254638671875,2.28570556640625
1713358570002205000,9.204204833984376,-0.879638671875,-5.1593017578125,3.188323974609375
1713358570012153600,9.214153564453126,-0.747955322265625,-5.5758819580078125,5.09649658203125
1713358570022133000,9.224133056640625,-0.6857147216796875,-5.89910888671875,6.896942138671875
1713358570032112000,9.234112060546876,-0.673736572265625,-5.8272705078125,7.4547882080078125
1713358570042060800,9.244060791015626,-0.5803680419921875,-5.6668701171875,6.956787109375
1713358570052040200,9.254040283203125,-0.5851593017578125,-5.6596832275390625,6.389373779296875
1713358570062019300,9.264019287109376,-0.927520751953125,-5.7171478271484375,6.2768402099609375
1713358570071998700,9.273998779296875,-1.0831451416015625,-5.7650299072265625,6.50189208984375
1713358570081977900,9.283977783203126,-1.360870361328125,-5.968536376953125,6.686248779296875
1713358570091926500,9.293926513671876,-1.667327880859375,-6.222320556640625,6.803558349609375
1713358570101906000,9.303906005859375,-1.528472900390625,-6.5742645263671875,6.9998931884765625
1713358570111885000,9.313885009765626,-1.518890380859375,-7.010009765625,7.3063507080078125
1713358570121834000,9.323833984375,-1.9378814697265625,-7.225494384765625,7.7516632080078125
1713358570131813000,9.333813232421875,-2.2347564697265625,-6.9669189453125,8.134735107421875
1713358570141792300,9.343792236328126,-2.1389923095703125,-6.1935882568359375,8.778778076171875
1713358570151741200,9.3537412109375,-1.75592041015625,-5.1521148681640625,9.69097900390625
1713358570161720300,9.36372021484375,-1.1956787109375,-4.3165283203125,10.459503173828125
1713358570171699700,9.37369970703125,-0.494171142578125,-3.8688201904296875,10.8760986328125
1713358570181648400,9.3836484375,0.35577392578125,-3.263092041015625,11.263961791992188
1713358570191627500,9.39362744140625,1.5480804443359375,-2.56158447265625,11.534500122070312
1713358570201607000,9.40360693359375,2.6901092529296875,-2.5472259521484375,11.369308471679688
1713358570211555600,9.4135556640625,2.19451904296875,-3.6605224609375,11.314239501953125
1713358570221534700,9.42353466796875,0.8441925048828125,-5.4968719482421875,10.895248413085938
1713358570231483600,9.433483642578125,-1.265106201171875,-7.89825439453125,9.916030883789062
1713358570241462800,9.443462890625,-3.0416107177734375,-9.772918701171875,9.750823974609375
1713358570251442000,9.45344189453125,-4.3727874755859375,-10.790451049804688,10.102767944335938
1713358570261390800,9.463390869140625,-3.66888427734375,-10.711441040039062,10.469085693359375
1713358570271370000,9.473369873046876,-0.74078369140625,-10.249374389648438,10.222488403320312
1713358570281349400,9.483349365234375,1.794677734375,-9.119308471679688,10.617523193359375
1713358570291298000,9.493298095703125,3.784271240234375,-8.053878784179688,10.768356323242188
1713358570301277200,9.503277099609376,4.9837646484375,-7.7929229736328125,8.577667236328125
1713358570311256600,9.513256591796875,4.741943359375,-7.9844512939453125,6.4133148193359375
1713358570321205200,9.523205322265625,3.8441162109375,-8.472869873046875,5.06536865234375
1713358570331184400,9.533184326171876,2.6996917724609375,-9.18634033203125,4.3135986328125
1713358570341163800,9.543163818359375,1.629486083984375,-10.20147705078125,3.7940521240234375
1713358570351143000,9.553142822265626,0.5664520263671875,-11.530258178710938,3.8179931640625
1713358570361091600,9.563091552734376,-0.7599334716796875,-12.674697875976562,3.949676513671875
1713358570371071000,9.573071044921875,-1.6481781005859375,-13.309158325195312,4.763702392578125
1713358570381050000,9.583050048828126,-1.8588714599609375,-13.541397094726562,5.87701416015625
1713358570390999000,9.5929990234375,-0.6857147216796875,-13.618011474609375,6.6287841796875
1713358570400978200,9.602978271484375,1.2248687744140625,-13.25408935546875,7.0789031982421875
1713358570410957300,9.612957275390626,3.1761322021484375,-12.3658447265625,6.7891998291015625
1713358570420936700,9.622936767578125,4.3947906494140625,-10.77130126953125,6.5832977294921875
1713358570430885400,9.632885498046875,3.63104248046875,-9.009170532226562,6.6168212890625
1713358570440864500,9.642864501953126,2.084381103515625,-7.689971923828125,6.4947052001953125
1713358570450844000,9.652843994140625,0.3437957763671875,-6.866363525390625,7.308746337890625
1713358570460792600,9.66279248046875,-1.17413330078125,-6.433013916015625,9.056503295898438
1713358570470772000,9.67277197265625,-2.1437835693359375,-6.296539306640625,10.88568115234375
1713358570480720600,9.682720703125,-2.0815277099609375,-6.739471435546875,11.228042602539062
1713358570490699800,9.69269970703125,-1.46142578125,-7.256622314453125,10.18896484375
1713358570500679200,9.70267919921875,-0.642608642578125,-7.4864654541015625,7.749267578125
1713358570510627800,9.7126279296875,-0.5444488525390625,-6.993255615234375,6.971160888671875
1713358570520607000,9.72260693359375,-0.209259033203125,-6.7418670654296875,6.252899169921875
1713358570530586400,9.73258642578125,-0.103912353515625,-5.9326171875,5.8482818603515625
1713358570540535000,9.74253515625,-0.06561279296875,-4.7977752685546875,6.0230560302734375
1713358570550514200,9.75251416015625,0.15704345703125,-3.8712158203125,5.723785400390625
1713358570560493600,9.76249365234375,0.631103515625,-3.17449951171875,5.1060791015625
1713358570570442200,9.772442138671876,1.2368316650390625,-2.8321380615234375,4.2369842529296875
1713358570580421600,9.782421630859375,1.3637237548828125,-2.60467529296875,3.3391571044921875
1713358570590370300,9.792370361328125,1.01177978515625,-2.7650909423828125,2.2952880859375
1713358570600349400,9.802349365234376,0.33660888671875,-2.8752288818359375,2.048675537109375
1713358570610328800,9.812328857421875,-0.4846038818359375,-2.9614105224609375,2.0989532470703125
1713358570620308000,9.822307861328126,-1.0927276611328125,-3.1338043212890625,2.058258056640625
1713358570630256600,9.832256591796876,-1.4925537109375,-3.3181610107421875,1.9074249267578125
1713358570640236000,9.842236083984375,-1.6170501708984375,-3.4354705810546875,2.2330322265625
1713358570650215200,9.852215087890626,-1.5667724609375,-3.5240478515625,2.61370849609375
1713358570660194600,9.862194580078125,-1.6290283203125,-3.56475830078125,2.934539794921875
1713358570670143200,9.872143310546875,-1.9713897705078125,-3.5312347412109375,3.1165008544921875
1713358570680122400,9.882122314453126,-2.8572540283203125,-3.6317901611328125,3.293670654296875
1713358570690101800,9.892101806640625,-4.322509765625,-3.876007080078125,3.55462646484375
1713358570700081000,9.902080810546876,-5.8571929931640625,-4.1920318603515625,4.4644317626953125
1713358570710029600,9.912029541015626,-6.822052001953125,-4.467376708984375,5.9871368408203125
1713358570720009000,9.922009033203125,-5.797332763671875,-4.5344085693359375,7.8785552978515625
1713358570729957600,9.93195751953125,-3.8340911865234375,-4.4458160400390625,9.779556274414062
1713358570739937000,9.94193701171875,-2.500518798828125,-5.3053436279296875,11.39324951171875
1713358570749916200,9.951916259765625,-2.3448944091796875,-7.1919708251953125,12.980606079101562
1713358570759864800,9.96186474609375,-2.172515869140625,-9.191131591796875,14.029266357421875
1713358570769844200,9.97184423828125,-1.9378814697265625,-11.767288208007812,13.406768798828125
1713358570779823400,9.9818232421875,-2.280242919921875,-15.023406982421875,10.428390502929688
1713358570789772000,9.99177197265625,-3.7957763671875,-16.198959350585938,6.9639739990234375
1713358570799751400,10.00175146484375,-6.69036865234375,-13.608428955078125,5.0558013916015625
1713358570809700000,10.0117001953125,-8.361526489257812,-8.247817993164062,6.0805206298828125
1713358570819679200,10.02167919921875,-8.780502319335938,-3.559967041015625,7.7971649169921875
1713358570829658600,10.03165869140625,-9.048660278320312,-0.8042449951171875,8.711746215820312
1713358570839607300,10.041607177734376,-8.938522338867188,-1.4434967041015625,9.64068603515625
1713358570849586700,10.051586669921875,-7.73663330078125,-6.12176513671875,10.447540283203125
1713358570859565800,10.06156591796875,-4.0184326171875,-11.633209228515625,10.514572143554688
1713358570869514500,10.071514404296876,-0.9442901611328125,-15.404083251953125,13.6868896484375
1713358570879494000,10.081493896484375,1.588775634765625,-18.94989013671875,16.021240234375
1713358570889473000,10.09147314453125,5.718780517578125,-18.33697509765625,12.961456298828125
1713358570899421700,10.101421630859376,6.2383270263671875,-10.81439208984375,7.86419677734375
1713358570909401000,10.111401123046875,0.509002685546875,-5.89910888671875,4.47161865234375
1713358570919380200,10.121380126953126,-3.7454986572265625,-4.8719940185546875,1.8547515869140625
1713358570929359600,10.131359619140625,-2.5412139892578125,-4.129791259765625,2.2258453369140625
1713358570939338800,10.1413388671875,0.25042724609375,-3.6988372802734375,4.0358734130859375
1713358570949287400,10.151287353515626,1.387664794921875,-3.5264434814453125,5.4628143310546875
1713358570959266800,10.161266845703125,2.591949462890625,-3.5144805908203125,5.967987060546875
1713358570969246000,10.171245849609376,4.39239501953125,-3.993316650390625,6.264862060546875
1713358570979194600,10.181194580078126,5.94622802734375,-4.1537322998046875,7.9360198974609375
1713358570989174000,10.191174072265625,6.98052978515625,-4.85284423828125,8.759628295898438
1713358570999153200,10.201153076171876,6.4969024658203125,-6.7059478759765625,8.44598388671875
1713358571009101800,10.211101806640626,2.17535400390625,-9.564620971679688,6.4396514892578125
1713358571019081200,10.221081298828125,-2.4406585693359375,-10.416961669921875,5.45562744140625
1713358571029060400,10.231060302734376,-3.937042236328125,-9.595748901367188,4.5290679931640625
1713358571039009300,10.24100927734375,-3.6281890869140625,-8.621307373046875,2.8746795654296875
1713358571048988400,10.250988525390625,-3.0799102783203125,-7.8958740234375,2.194732666015625
1713358571058967600,10.260967529296876,-2.5699462890625,-7.6085662841796875,2.070220947265625
1713358571068916500,10.27091650390625,-2.0288543701171875,-7.3667449951171875,2.175567626953125
1713358571078895600,10.2808955078125,-1.308197021484375,-6.9022674560546875,2.8052520751953125
1713358571088844300,10.29084423828125,-0.46783447265625,-6.69158935546875,3.8993988037109375
1713358571098823700,10.30082373046875,0.7340545654296875,-6.9645233154296875,5.62322998046875
1713358571108802800,10.310802734375,2.0125579833984375,-7.565460205078125,7.806732177734375
1713358571118751500,10.32075146484375,2.749969482421875,-7.9006500244140625,10.394866943359375
1713358571128731000,10.33073095703125,1.7899017333984375,-7.7953033447265625,11.9415283203125
1713358571138710000,10.3407099609375,-0.1925048828125,-6.55511474609375,10.943145751953125
1713358571148659000,10.350658935546875,-1.54522705078125,-5.573486328125,7.2129669189453125
1713358571158638000,10.36063818359375,-1.7654876708984375,-5.4537811279296875,4.531463623046875
1713358571168617200,10.3706171875,-1.42791748046875,-5.4801177978515625,4.1053009033203125
1713358571178566100,10.380566162109375,-0.8030242919921875,-5.14971923828125,3.9520721435546875
1713358571188545300,10.390545166015626,-0.7671051025390625,-4.9773406982421875,4.0167083740234375
1713358571198524700,10.400524658203125,-1.128631591796875,-5.08746337890625,4.1005096435546875
1713358571208503800,10.41050390625,-1.032867431640625,-5.1569061279296875,4.732574462890625
1713358571218452500,10.420452392578126,-0.2332000732421875,-5.2837982177734375,5.3909912109375
1713358571228432000,10.430431884765625,-0.1781463623046875,-5.3268890380859375,6.015869140625
1713358571238411000,10.440410888671876,-0.67852783203125,-5.3651885986328125,5.8698272705078125
1713358571248359700,10.450359619140626,-1.3680572509765625,-5.4489898681640625,5.65673828125
1713358571258339000,10.460339111328125,-1.6266326904296875,-5.53997802734375,5.73095703125
1713358571268318200,10.470318115234376,-1.7750701904296875,-5.714752197265625,5.9871368408203125
1713358571278297600,10.480297607421875,-2.3137664794921875,-5.94219970703125,6.5306243896484375
1713358571288246300,10.490246337890625,-2.0743408203125,-6.160064697265625,7.3853607177734375
1713358571298225400,10.500225341796876,-1.39678955078125,-6.6269378662109375,7.8785552978515625
1713358571308204800,10.510204833984375,-1.6362152099609375,-6.643707275390625,8.50823974609375
1713358571318153500,10.520153564453125,-1.5835418701171875,-6.2606201171875,9.145095825195312
1713358571328132600,10.530132568359376,-1.6529693603515625,-5.3580169677734375,9.98785400390625
1713358571338081500,10.54008154296875,-1.1573638916015625,-4.4170989990234375,10.739639282226562
1713358571348060700,10.550060791015625,-0.429534912109375,-3.9765625,11.189743041992188
1713358571358039800,10.560039794921876,-0.599517822265625,-3.7108001708984375,11.591964721679688
1713358571367988700,10.56998876953125,-0.135040283203125,-3.275054931640625,11.821807861328125
1713358571377967900,10.5799677734375,1.1458587646484375,-3.02606201171875,11.814620971679688
1713358571387947300,10.589947265625,2.1394500732421875,-2.956634521484375,11.754776000976562
1713358571397896000,10.59989599609375,2.486602783203125,-3.5791168212890625,11.733230590820312
1713358571407875000,10.609875,1.5432891845703125,-4.8767852783203125,11.448318481445312
1713358571417854500,10.6198544921875,0.4060516357421875,-6.6149749755859375,11.03411865234375
1713358571427803100,10.62980322265625,-1.6122589111328125,-8.594970703125,10.78033447265625
1713358571437782300,10.6397822265625,-3.5659332275390625,-9.643630981445312,10.739639282226562
1713358571447731200,10.649731201171875,-2.4358673095703125,-10.287673950195312,10.500213623046875
1713358571457710300,10.65971044921875,-1.6409912109375,-10.843124389648438,8.747650146484375
1713358571467689500,10.669689453125,-0.3648834228515625,-10.733001708984375,8.01263427734375
1713358571477668900,10.6796689453125,2.189727783203125,-10.141632080078125,9.231277465820312
1713358571487617500,10.689617431640626,3.8153839111328125,-9.665176391601562,8.592025756835938
1713358571497597000,10.699596923828125,3.8824310302734375,-9.4185791015625,6.4611968994140625
1713358571507576000,10.709576171875,3.9183349609375,-9.444915771484375,5.0342559814453125
1713358571517555200,10.71955517578125,3.34613037109375,-9.76812744140625,3.760528564453125
1713358571527504100,10.729504150390625,1.734832763671875,-10.440902709960938,2.0941619873046875
1713358571537483300,10.739483154296876,0.33660888671875,-11.163955688476562,1.2993011474609375
1713358571547462700,10.749462646484375,-0.7120513916015625,-11.872634887695312,1.3543548583984375
1713358571557441800,10.75944189453125,-1.4781951904296875,-12.7991943359375,2.2665557861328125
1713358571567390500,10.769390380859376,-1.8804168701171875,-12.993118286132812,4.30401611328125
1713358571577369900,10.779369873046875,-1.3943939208984375,-12.708206176757812,5.8339080810546875
1713358571587318500,10.789318603515625,0.6933441162109375,-12.28204345703125,7.1363525390625
1713358571597297700,10.799297607421876,2.833770751953125,-11.568572998046875,8.199386596679688
1713358571607277000,10.809277099609375,3.27191162109375,-10.357101440429688,8.850601196289062
1713358571617225700,10.819225830078125,2.486602783203125,-8.887069702148438,9.082839965820312
1713358571627204900,10.829204833984376,1.1051483154296875,-7.637298583984375,9.607177734375
1713358571637184300,10.839184326171875,-0.642608642578125,-6.4832916259765625,9.973480224609375
1713358571647133000,10.8491328125,-0.630645751953125,-5.958953857421875,10.28472900390625
1713358571657112300,10.8591123046875,0.044525146484375,-5.6644744873046875,11.64703369140625
1713358571667091500,10.869091552734375,-0.441497802734375,-6.1241607666015625,11.4459228515625
1713358571677040000,10.8790400390625,-1.226806640625,-6.866363525390625,10.55767822265625
1713358571687019500,10.88901953125,-0.7240142822265625,-7.290130615234375,9.212127685546875
1713358571696968200,10.89896826171875,-0.384033203125,-7.405059814453125,7.4595794677734375
1713358571706947300,10.908947265625,-0.6713409423828125,-7.110565185546875,5.8434906005859375
1713358571716926700,10.9189267578125,-1.1406097412109375,-6.3228759765625,5.534637451171875
1713358571726875400,10.92887548828125,-1.1501922607421875,-5.535186767578125,4.8235626220703125
1713358571736854500,10.9388544921875,-0.8604888916015625,-4.816925048828125,4.4213409423828125
1713358571746834000,10.948833984375,-0.355316162109375,-4.340484619140625,4.1962738037109375
1713358571756782600,10.958782470703126,-0.012939453125,-3.9957122802734375,3.9376983642578125
1713358571766761700,10.96876171875,0.161834716796875,-3.4139251708984375,4.0741729736328125
1713358571776741000,10.9787412109375,0.171417236328125,-3.0188751220703125,3.9424896240234375
1713358571786720300,10.98872021484375,0.257598876953125,-2.899169921875,3.65997314453125
1713358571796699600,10.99869970703125,0.034942626953125,-2.7220001220703125,2.8698883056640625
1713358571806648300,11.0086484375,-0.5229034423828125,-2.745941162109375,2.228240966796875
1713358571816627500,11.01862744140625,-0.949066162109375,-2.903961181640625,1.9983978271484375
1713358571826606800,11.02860693359375,-1.0568084716796875,-3.17449951171875,2.1396636962890625
1713358571836555500,11.038555419921876,-1.0304718017578125,-3.2894287109375,2.58258056640625
1713358571846535000,11.048534912109375,-1.1454010009765625,-3.24871826171875,2.8387603759765625
1713358571856514000,11.05851416015625,-1.5117034912109375,-3.243927001953125,3.0757904052734375
1713358571866462700,11.068462646484376,-2.5412139892578125,-3.3875885009765625,3.18353271484375
1713358571876442000,11.078442138671875,-3.96337890625,-3.717987060546875,3.2242279052734375
1713358571886421200,11.088421142578126,-5.237091064453125,-4.2710418701171875,3.5570220947265625
1713358571896370000,11.098369873046876,-6.00323486328125,-5.101837158203125,4.4596405029296875
1713358571906349300,11.108349365234375,-5.9385833740234375,-5.5687103271484375,6.094879150390625
1713358571916328400,11.118328369140626,-4.6912078857421875,-5.7219390869140625,8.347824096679688
1713358571926277000,11.128277099609376,-3.23553466796875,-6.3420257568359375,10.816253662109375
1713358571936256500,11.138256591796875,-2.50531005859375,-7.522369384765625,13.107498168945312
1713358571946205200,11.148205078125,-2.110260009765625,-8.937347412109375,14.709213256835938
1713358571956184600,11.1581845703125,-1.645782470703125,-10.941299438476562,14.544021606445312
1713358571966163700,11.168163818359375,-2.5890960693359375,-13.017059326171875,12.262344360351562
1713358571976112400,11.1781123046875,-4.688812255859375,-13.689834594726562,8.484298706054688
1713358571986091800,11.188091796875,-7.8611297607421875,-12.370635986328125,5.7285614013671875
1713358571996071000,11.19807080078125,-9.594528198242188,-9.2078857421875,5.3742218017578125
1713358572006019600,11.20801953125,-9.070205688476562,-5.7243194580078125,6.35345458984375
1713358572015999000,11.2179990234375,-8.093368530273438,-4.077117919921875,6.9113006591796875
1713358572025978000,11.22797802734375,-6.996826171875,-5.5160369873046875,7.754058837890625
1713358572035926800,11.2379267578125,-5.955352783203125,-9.93572998046875,9.738861083984375
1713358572045906200,11.24790625,-4.846832275390625,-14.08966064453125,12.762725830078125
1713358572055885300,11.25788525390625,-2.1653289794921875,-16.426406860351562,15.516067504882812
1713358572065864700,11.26786474609375,2.6110992431640625,-17.657028198242188,14.280654907226562
1713358572075813400,11.2778134765625,6.3125457763671875,-15.109603881835938,10.2943115234375
1713358572085792500,11.28779248046875,3.765106201171875,-8.61651611328125,6.9951019287109375
1713358572095772000,11.29777197265625,-1.2315826416015625,-4.14654541015625,4.5601959228515625
1713358572105720600,11.307720458984376,-2.0288543701171875,-2.7172088623046875,2.5179443359375
1713358572115700000,11.317699951171875,1.0333251953125,-2.872833251953125,2.8866424560546875
1713358572125679000,11.32767919921875,3.29345703125,-3.2343597412109375,4.6344146728515625
1713358572135658200,11.337658203125,2.7643280029296875,-3.68206787109375,6.0278472900390625
1713358572145607200,11.347607177734375,2.8217926025390625,-3.8257293701171875,8.067703247070312
1713358572155586300,11.35758642578125,3.8441162109375,-4.172882080078125,8.83624267578125
1713358572165565400,11.3675654296875,4.7922210693359375,-4.6445465087890625,8.8577880859375
1713358572175514400,11.377514404296875,5.3141632080078125,-5.7554473876953125,7.8546142578125
1713358572185493500,11.387493408203126,3.647796630859375,-7.7953033447265625,5.723785400390625
1713358572195442200,11.397442138671876,-0.1805267333984375,-9.286895751953125,4.5554046630859375
1713358572205421600,11.407421630859375,-2.8548583984375,-9.2701416015625,4.2321929931640625
1713358572215400700,11.417400634765626,-3.4677734375,-8.475265502929688,3.813201904296875
1713358572225349400,11.427349365234376,-3.35284423828125,-7.584625244140625,3.3511199951171875
1713358572235328800,11.437328857421875,-2.5148773193359375,-7.01959228515625,3.4301300048828125
1713358572245286400,11.447286376953125,-1.6385955810546875,-6.8591766357421875,3.7557525634765625
1713358572255235000,11.457235107421875,-0.9993438720703125,-6.8328399658203125,4.086151123046875
1713358572265214500,11.46721435546875,-0.63543701171875,-6.751434326171875,4.72540283203125
1713358572275193600,11.477193603515625,0.0924072265625,-6.61737060546875,6.2600860595703125
1713358572285142300,11.487142333984375,0.94952392578125,-6.8759307861328125,7.0429840087890625
1713358572295121700,11.49712158203125,1.7061004638671875,-7.1009979248046875,7.5936431884765625
1713358572305070300,11.5070703125,1.8377838134765625,-7.0124053955078125,8.493865966796875
1713358572315049500,11.517049560546875,0.83221435546875,-6.7490386962890625,8.876937866210938
1713358572325028900,11.52702880859375,-0.3002471923828125,-6.3779449462890625,8.084457397460938
1713358572335008000,11.537008056640625,-1.0568084716796875,-6.011627197265625,6.7724456787109375
1713358572344956700,11.546956787109375,-1.4374847412109375,-5.927825927734375,5.311981201171875
1713358572354936000,11.55693603515625,-1.4566497802734375,-6.2103424072265625,3.887420654296875
1713358572364915200,11.566915283203125,-1.253143310546875,-6.4473724365234375,3.2649383544921875
1713358572374894600,11.57689453125,-1.1214599609375,-6.5431365966796875,3.1117095947265625
1713358572384843300,11.58684326171875,-0.9730072021484375,-6.3779449462890625,3.7461700439453125
1713358572394822400,11.596822509765625,-0.905975341796875,-6.1504974365234375,5.1252288818359375
1713358572404801800,11.6068017578125,-0.6665496826171875,-5.8703765869140625,6.116424560546875
1713358572414750500,11.61675048828125,-0.135040283203125,-5.6764373779296875,6.2816314697265625
1713358572424729900,11.626729736328125,-0.2068634033203125,-5.504058837890625,6.1212158203125
1713358572434709000,11.636708984375,-0.6402130126953125,-5.3197021484375,5.924896240234375
1713358572444657700,11.64665771484375,-1.1238555908203125,-5.0587310791015625,6.0541839599609375
1713358572454637000,11.656636962890625,-1.550018310546875,-4.9510040283203125,6.42767333984375
1713358572464616200,11.6666162109375,-1.87322998046875,-4.979736328125,6.877777099609375
1713358572474564900,11.67656494140625,-1.6218414306640625,-5.2574615478515625,7.3446502685546875
1713358572484544300,11.686544189453125,-1.614654541015625,-5.7410888671875,7.763641357421875
1713358572494523400,11.6965234375,-1.6745147705078125,-6.2342987060546875,8.101226806640625
1713358572504472000,11.70647216796875,-1.2411651611328125,-6.1744384765625,8.874542236328125
1713358572514451500,11.716451416015625,-1.1789093017578125,-5.3484344482421875,9.829833984375
1713358572524430600,11.7264306640625,-0.8461151123046875,-4.5463714599609375,10.71807861328125
1713358572534379500,11.736379638671876,-0.36248779296875,-4.3285064697265625,11.398040771484375
1713358572544358700,11.746358642578125,-0.46783447265625,-3.8712158203125,11.8792724609375
1713358572554307300,11.756307373046875,0.583221435546875,-3.0045166015625,12.003768920898438
1713358572564286700,11.76628662109375,2.3716888427734375,-2.24554443359375,11.649429321289062
1713358572574265900,11.776265869140625,2.613494873046875,-2.1737213134765625,11.769134521484375
1713358572584214500,11.786214599609375,1.598358154296875,-3.56475830078125,11.1490478515625
1713358572594194000,11.79619384765625,0.23126220703125,-5.65728759765625,11.165802001953125
1713358572604173000,11.806173095703125,-1.22918701171875,-7.6612396240234375,11.110733032226562
1713358572614121700,11.816121826171875,-3.515655517578125,-8.867919921875,11.134674072265625
1713358572624101000,11.82610107421875,-2.8476715087890625,-8.760177612304688,12.12347412109375
1713358572634080300,11.836080322265625,-0.577972412109375,-8.4345703125,11.790679931640625
1713358572644059600,11.8460595703125,-0.69049072265625,-8.317245483398438,10.31585693359375
1713358572654008300,11.85600830078125,0.700531005859375,-8.09698486328125,10.471481323242188
1713358572663987500,11.865987548828125,2.55364990234375,-8.259780883789062,10.521759033203125
1713358572673966800,11.875966796875,4.018890380859375,-8.726654052734375,8.671035766601562
1713358572683946000,11.885946044921875,4.4115447998046875,-9.3443603515625,6.549774169921875
1713358572693894700,11.895894775390625,3.6023101806640625,-10.402603149414062,4.615264892578125
1713358572703874000,11.9058740234375,2.71405029296875,-11.250137329101562,3.28887939453125
1713358572713853200,11.915853271484375,1.4954071044921875,-11.5733642578125,1.751800537109375
1713358572723802000,11.925802001953125,0.3797149658203125,-11.393798828125,1.0191650390625
1713358572733781200,11.93578125,-0.4750213623046875,-11.16156005859375,1.869110107421875
1713358572743760400,11.945760498046875,-0.419952392578125,-11.252532958984375,3.4708404541015625
1713358572753709300,11.955709228515625,-0.283477783203125,-11.5853271484375,5.6543426513671875
1713358572763688400,11.9656884765625,0.4132232666015625,-11.807998657226562,7.224945068359375
1713358572773667800,11.975667724609375,1.68695068359375,-11.92291259765625,7.8522186279296875
1713358572783616500,11.985616455078125,3.394012451171875,-11.762496948242188,7.69659423828125
1713358572793595600,11.995595703125,4.270294189453125,-11.029876708984375,7.615203857421875
1713358572803544300,12.00554443359375,4.2271881103515625,-10.055435180664062,7.3111419677734375
1713358572813523700,12.015523681640625,3.520904541015625,-9.150436401367188,6.437255859375
1713358572823502800,12.0255029296875,1.1530303955078125,-8.652435302734375,5.80517578125
1713358572833451800,12.03545166015625,-0.81500244140625,-8.36273193359375,6.1714935302734375
1713358572843431000,12.045430908203125,-1.382415771484375,-7.9078369140625,7.890533447265625
1713358572853410000,12.05541015625,-1.3034210205078125,-7.5151824951171875,9.635910034179688
1713358572863359000,12.06535888671875,-0.8437347412109375,-7.723480224609375,10.363739013671875
1713358572873338000,12.075338134765625,-0.937103271484375,-8.073043823242188,10.078826904296875
1713358572883317500,12.0853173828125,-0.9730072021484375,-8.240631103515625,9.176223754882812
1713358572893266200,12.09526611328125,-1.1046905517578125,-8.31964111328125,7.9839019775390625
1713358572903245300,12.105245361328125,-0.7934417724609375,-7.9892425537109375,6.56414794921875
1713358572913224700,12.115224609375,-0.874847412109375,-6.9286041259765625,5.8267364501953125
1713358572923203800,12.125203857421875,-0.879638671875,-5.8081207275390625,6.3726043701171875
1713358572933152500,12.135152587890625,-0.2810821533203125,-4.965362548828125,6.4827423095703125
1713358572943132000,12.1451318359375,0.2647857666015625,-4.3332977294921875,6.6670989990234375
1713358572953111000,12.155111083984375,0.57843017578125,-3.92388916015625,6.4468231201171875
1713358572963090400,12.16509033203125,0.6382904052734375,-3.5743255615234375,5.596893310546875
1713358572973039000,12.1750390625,0.6191253662109375,-3.2894287109375,4.4237213134765625
1713358572983018200,12.185018310546875,0.350982666015625,-2.8752288818359375,3.4085845947265625
1713358572992997600,12.19499755859375,-0.087158203125,-2.693267822265625,3.10931396484375
1713358573002946300,12.2049462890625,-0.609100341796875,-2.5400390625,2.438934326171875
1713358573012925400,12.214925537109375,-1.1501922607421875,-2.4586334228515625,2.142059326171875
1713358573022904800,12.22490478515625,-1.4566497802734375,-2.51849365234375,2.3359832763671875
1713358573032853500,12.234853515625,-1.4063720703125,-2.6022796630859375,2.3934478759765625
1713358573042832600,12.24483251953125,-1.0783538818359375,-2.7626953125,2.75018310546875
1713358573052781600,12.254781494140625,-0.9107666015625,-2.8536834716796875,2.8483428955078125
1713358573062760700,12.2647607421875,-1.26031494140625,-2.851287841796875,2.8124237060546875
1713358573072740000,12.274739990234375,-2.328125,-2.9709930419921875,2.8914337158203125
1713358573082688800,12.284688720703125,-4.011260986328125,-3.05718994140625,3.296051025390625
1713358573092668000,12.29466796875,-6.0487213134765625,-3.23675537109375,4.033477783203125
1713358573102647300,12.304647216796875,-7.571441650390625,-3.665313720703125,5.110870361328125
1713358573112596000,12.314595947265625,-7.1620330810546875,-4.32611083984375,6.5258331298828125
1713358573122575000,12.3245751953125,-5.06231689453125,-5.1114044189453125,8.532180786132812
1713358573132554500,12.334554443359375,-3.2235565185546875,-6.0188140869140625,11.251983642578125
1713358573142503200,12.344503173828125,-2.44305419921875,-7.7210845947265625,14.448257446289062
1713358573152482300,12.354482421875,-2.3568572998046875,-10.024307250976562,16.287002563476562
1713358573162461700,12.364461669921875,-1.413543701171875,-13.91009521484375,14.237564086914062
1713358573172410400,12.374410400390625,-1.597900390625,-18.224456787109375,9.717300415039062
1713358573182389800,12.3843896484375,-3.441436767578125,-17.788711547851562,6.379791259765625
1713358573192369000,12.394368896484375,-6.474884033203125,-12.7991943359375,5.446044921875
1713358573202317600,12.404317626953125,-8.754165649414062,-6.8065032958984375,7.500274658203125
1713358573212297000,12.414296875,-10.463623046875,-1.668548583984375,9.389297485351562
1713358573222276000,12.424276123046875,-11.603271484375,1.1350555419921875,9.437179565429688
1713358573232255500,12.43425537109375,-11.179489135742188,-0.3493499755859375,10.06207275390625
1713358573242204200,12.4442041015625,-6.6760101318359375,-5.2311248779296875,11.711685180664062
1713358573252183300,12.454183349609375,0.4922332763671875,-9.883056640625,11.790679931640625
1713358573262162700,12.46416259765625,3.4849853515625,-14.03460693359375,13.639007568359375
1713358573272111400,12.474111328125,4.1577606201171875,-18.672164916992188,13.107498168945312
1713358573282090500,12.484090576171875,7.5503387451171875,-19.151016235351562,10.066864013671875
1713358573292070000,12.49406982421875,6.3723907470703125,-13.280426025390625,8.745254516601562
1713358573302018600,12.5040185546875,-0.0201263427734375,-7.85516357421875,7.0741119384765625
1713358573311997700,12.513997802734375,-3.7981719970703125,-5.40350341796875,3.51153564453125
1713358573321977000,12.52397705078125,-2.342498779296875,-3.2271728515625,1.5147705078125
1713358573331925800,12.53392578125,-0.28826904296875,-2.19049072265625,1.277740478515625
1713358573341905200,12.5439052734375,1.0931854248046875,-2.7267913818359375,2.1612091064453125
1713358573351884300,12.55388427734375,2.19451904296875,-3.6365814208984375,3.401397705078125
1713358573361833000,12.5638330078125,3.27191162109375,-4.1704864501953125,5.1467742919921875
1713358573371812400,12.573812255859375,5.0555877685546875,-4.6445465087890625,6.72216796875
1713358573381791500,12.58379150390625,5.8528594970703125,-5.3197021484375,8.627944946289062
1713358573391740200,12.593740234375,4.2319793701171875,-7.5774383544921875,8.55133056640625
1713358573401719600,12.603719482421875,0.3773193359375,-10.268524169921875,7.500274658203125
1713358573411698700,12.61369873046875,-3.103851318359375,-10.99395751953125,6.274444580078125
1713358573421647400,12.6236474609375,-4.085479736328125,-9.535888671875,4.3327484130859375
1713358573431626800,12.633626708984375,-2.9913330078125,-7.6133575439453125,3.2505645751953125
1713358573441575400,12.643575439453125,-1.720001220703125,-6.698760986328125,2.7118682861328125
1713358573451554800,12.653554931640626,-1.29144287109375,-6.3085174560546875,2.513153076171875
1713358573461534000,12.663533935546875,-0.7647247314453125,-6.0978240966796875,2.8267974853515625
1713358573471513000,12.67351318359375,0.11395263671875,-6.0044403076171875,3.39422607421875
1713358573481462000,12.6834619140625,1.287109375,-5.8512115478515625,4.5123138427734375
1713358573491441200,12.693441162109375,2.201690673828125,-5.920654296875,6.164306640625
1713358573501420300,12.703420166015626,2.307037353515625,-6.286956787109375,8.027008056640625
1713358573511399700,12.713399658203125,1.6653900146484375,-7.1033935546875,9.906448364257812
1713358573521348400,12.723348388671875,0.7771453857421875,-8.099380493164062,11.194534301757812
1713358573531327700,12.73332763671875,-0.4271392822265625,-8.317245483398438,10.730056762695312
1713358573541307000,12.743306884765625,-1.308197021484375,-7.701934814453125,8.170654296875
1713358573551255600,12.753255615234375,-1.866058349609375,-6.9908599853515625,5.6639251708984375
1713358573561235000,12.76323486328125,-1.360870361328125,-6.67242431640625,4.27288818359375
1713358573571214000,12.773214111328125,-1.0783538818359375,-6.349212646484375,3.5761871337890625
1713358573581162800,12.783162841796875,-0.9131622314453125,-5.674041748046875,3.3654937744140625
1713358573591142100,12.79314208984375,-1.073577880859375,-5.2215423583984375,3.961639404296875
1713358573601121300,12.803121337890625,-0.683319091796875,-5.1521148681640625,5.0246734619140625
1713358573611070000,12.813070068359375,0.0253753662109375,-5.08746337890625,5.8123626708984375
1713358573621049300,12.82304931640625,0.283935546875,-4.9629669189453125,6.1714935302734375
1713358573631028500,12.833028564453125,-0.271514892578125,-5.0826873779296875,6.1858673095703125
1713358573640977400,12.842977294921875,-1.0472412109375,-5.398712158203125,6.169097900390625
1713358573650956500,12.85295654296875,-1.7894439697265625,-5.652496337890625,6.2600860595703125
1713358573660935700,12.862935791015625,-1.8899993896484375,-6.0307769775390625,6.2457122802734375
1713358573670884600,12.872884521484375,-1.894775390625,-6.3994903564453125,6.5042877197265625
1713358573680863700,12.88286376953125,-2.464599609375,-6.581451416015625,7.0956573486328125
1713358573690812400,12.8928125,-2.1964569091796875,-6.79931640625,7.5649261474609375
1713358573700791800,12.902791748046875,-1.952239990234375,-6.67242431640625,8.412460327148438
1713358573710771000,12.91277099609375,-2.00970458984375,-5.8296661376953125,9.67181396484375
1713358573720719600,12.9227197265625,-1.655364990234375,-4.9677581787109375,10.4307861328125
1713358573730699000,12.932698974609375,-1.360870361328125,-4.1106414794921875,11.156219482421875
1713358573740678100,12.94267822265625,-1.011322021484375,-3.1529541015625,11.450714111328125
1713358573750627000,12.952626953125,0.1786041259765625,-2.3413238525390625,11.058059692382812
1713358573760606200,12.962606201171875,1.102752685546875,-1.4075775146484375,10.895248413085938
1713358573770585300,12.97258544921875,2.1969146728515625,-1.5440521240234375,11.199325561523438
1713358573780564700,12.982564697265625,2.16339111328125,-3.047607421875,11.438735961914062
1713358573790513400,12.992513427734375,1.3038787841796875,-5.4753265380859375,11.982223510742188
1713358573800492800,13.002492919921876,0.489837646484375,-8.02276611328125,12.432327270507812
1713358573810472000,13.012471923828125,-0.5276947021484375,-9.859115600585938,11.97503662109375
1713358573820451000,13.022451171875,-3.16131591796875,-10.177536010742188,12.1953125
1713358573830400000,13.03239990234375,-3.1708984375,-9.562225341796875,12.145034790039062
1713358573840379100,13.042379150390625,-0.7718963623046875,-8.712295532226562,10.61273193359375
1713358573850358300,13.052358154296876,2.242401123046875,-8.712295532226562,8.814697265625
