time,seconds_elapsed,z,y,x
1715093606346243800,0.163243896484375,2.0253238677978516,-1.3770737648010254,2.7385663986206055
1715093606356223200,0.17322314453125,1.7213220596313477,-0.6994233131408691,2.2513480186462402
1715093606366202400,0.183202392578125,0.6910085678100586,-0.32592248916625977,2.115206718444824
1715093606376181500,0.193181396484375,0.027927398681640625,0.10136294364929199,2.4875659942626953
1715093606386161000,0.203160888671875,-0.1386737823486328,0.619194746017456,2.9621520042419434
1715093606396140000,0.21314013671875,0.18495559692382812,1.1132373809814453,3.3958230018615723
1715093606406119400,0.223119384765625,0.5435504913330078,1.157752275466919,3.4974281787872314
1715093606416068000,0.233068115234375,0.4504356384277344,0.7339134216308594,2.9649033546447754
1715093606426047200,0.243047119140625,0.011987686157226562,0.2554447650909424,1.9517767429351807
1715093606436026600,0.253026611328125,-0.41626930236816406,-0.18230557441711426,1.1858994960784912
1715093606446005800,0.263005859375,-0.8998336791992188,-0.4469616413116455,1.1064953804016113
1715093606455985200,0.272985107421875,-0.45778656005859375,-0.1589984893798828,1.730804443359375
1715093606465933800,0.282933837890625,-0.6157464981079102,0.014469623565673828,1.6801050901412964
1715093606475913000,0.292912841796875,-1.4189434051513672,-0.3112297058105469,1.0861648321151733
1715093606485892400,0.302892333984375,-1.3907899856567383,-1.112194538116455,0.14764952659606934
1715093606495871500,0.31287158203125,-0.37815093994140625,-1.243330717086792,-0.6741448640823364
1715093606505851000,0.322850830078125,0.3846445083618164,-1.2546870708465576,-0.37387382984161377
1715093606515799600,0.332799560546875,-0.4650382995605469,-0.8610868453979492,1.4267510175704956
1715093606525778700,0.34277880859375,-0.23512649536132812,-0.2343151569366455,0.5687335729598999
1715093606535758000,0.352758056640625,-0.5062408447265625,-0.9129989147186279,-0.38265788555145264
1715093606545737200,0.3627373046875,-0.8087196350097656,-1.5132627487182617,0.21671640872955322
1715093606555686000,0.372685791015625,-0.970423698425293,-0.7980709075927734,-0.2003793716430664
1715093606565665300,0.382665283203125,-1.0275144577026367,-0.899061918258667,0.32571685314178467
1715093606575644400,0.39264453125,-0.683837890625,-0.8936548233032227,0.591397762298584
1715093606585593300,0.40259326171875,-0.20946407318115234,-1.0327544212341309,0.6044981479644775
1715093606595572500,0.412572509765625,-1.1950883865356445,-0.3940145969390869,2.0384063720703125
1715093606605551600,0.422551513671875,-0.4574251174926758,-0.036309242248535156,1.9540311098098755
1715093606615500500,0.43250048828125,-0.9066495895385742,-0.40078020095825195,0.9212890863418579
1715093606625479700,0.442479736328125,-1.1784067153930664,0.1091911792755127,1.81986665725708
1715093606635459000,0.452458984375,-1.2630634307861328,-0.4681718349456787,1.2402985095977783
1715093606645407700,0.46240771484375,-1.504988670349121,-0.433215856552124,0.4934040307998657
1715093606655387000,0.472386962890625,-1.3036375045776367,-0.6424055099487305,0.32502806186676025
1715093606665366300,0.4823662109375,-0.5839090347290039,-0.573876142501831,0.4294503927230835
1715093606675315000,0.49231494140625,-0.3234443664550781,-0.38976621627807617,0.8410331010818481
1715093606685294000,0.502294189453125,-0.8649892807006836,-1.287471055984497,1.4951828718185425
1715093606695273500,0.5122734375,-0.6958770751953125,-0.4233708381652832,0.9606993198394775
1715093606705222100,0.52222216796875,-0.1418466567993164,0.03024578094482422,0.4955686330795288
1715093606715201300,0.532201171875,-0.9080018997192383,-1.1373522281646729,2.5136170387268066
1715093606725180700,0.5421806640625,-3.0303354263305664,-3.4686880111694336,4.554945468902588
1715093606735143700,0.552143798828125,-5.641469955444336,-1.0627577304840088,1.2960565090179443
1715093606745122800,0.562122802734375,-6.073198318481445,0.6680159568786621,-0.032761454582214355
1715093606755102200,0.572102294921875,-3.683661460876465,-0.19630742073059082,0.5744386911392212
1715093606765081300,0.582081298828125,-4.434279441833496,-0.9580163955688477,0.4135509729385376
1715093606775060700,0.592060791015625,2.3356943130493164,0.06968259811401367,-2.18845796585083
1715093606785009400,0.602009521484375,6.966456413269043,1.0919277667999268,-1.960822343826294
1715093606794988500,0.611988525390625,7.630973815917969,1.193246841430664,-3.937143325805664
1715093606804968000,0.621968017578125,4.0765581130981445,-1.3132896423339844,-2.432554244995117
1715093606814947000,0.631947021484375,2.3805665969848633,-4.487165451049805,-0.845442533493042
1715093606824895700,0.641895751953125,0.16937828063964844,-4.912956237792969,-0.4319579601287842
1715093606834875100,0.651875244140625,-1.9620275497436523,-3.626434087753296,-0.06728529930114746
1715093606844854300,0.661854248046875,-3.635784149169922,-3.8827877044677734,0.2393510341644287
1715093606854803000,0.671802978515625,-5.079256057739258,-5.139026641845703,0.7667961120605469
1715093606864782300,0.6817822265625,-3.4646549224853516,-4.192139625549316,2.561950922012329
1715093606874761500,0.691761474609375,-2.3398733139038086,-0.983659029006958,6.9489593505859375
1715093606884710400,0.70171044921875,-0.9762935638427734,-4.123981952667236,4.843720436096191
1715093606894689500,0.711689453125,1.6823406219482422,-7.058232307434082,0.43747615814208984
1715093606904668700,0.721668701171875,1.7916936874389648,-4.8796067237854,-1.11659574508667
1715093606914617600,0.73161767578125,0.4534940719604492,-2.8890912532806396,-1.4834853410720825
1715093606924596700,0.7415966796875,-0.9784336090087891,-3.230280876159668,-2.1667442321777344
1715093606934575900,0.751575927734375,-3.5068511962890625,-2.0864903926849365,-4.397329807281494
1715093606944524800,0.76152490234375,-3.498260498046875,-0.07709890604019165,-8.605379104614258
1715093606954504000,0.77150390625,1.1031770706176758,-1.390974521636963,-7.182908058166504
1715093606964483300,0.7814833984375,0.6933841705322266,-5.787641525268555,-4.216119766235352
1715093606974432000,0.791431884765625,-0.8250131607055664,-9.475449562072754,-2.207869052886963
1715093606984411100,0.8014111328125,-2.154867172241211,-9.2129487991333,-0.11604154109954834
1715093606994404400,0.811404296875,-3.573155403137207,-7.440244674682617,1.9196569919586182
1715093607004353300,0.821353271484375,-4.835411071777344,-6.703151226043701,2.676745891571045
1715093607014332400,0.83133251953125,-5.367765426635742,-6.225540637969971,2.528484582901001
1715093607024311600,0.8413115234375,-6.813640594482422,-4.924747467041016,3.466831684112549
1715093607034291000,0.851291015625,-8.294218063354492,-2.7999048233032227,4.684069633483887
1715093607044239600,0.861239501953125,-9.571785926818848,-2.03183913230896,5.432676315307617
1715093607054219000,0.871218994140625,-12.416701316833496,-1.6080800294876099,7.440703868865967
1715093607064198100,0.8811982421875,-11.904415130615234,2.0961761474609375,12.087982177734375
1715093607074177300,0.89117724609375,-10.884801864624023,6.214469909667969,15.689216613769531
1715093607084156700,0.90115673828125,-8.08277702331543,8.010432243347168,15.866608619689941
1715093607094105300,0.911105224609375,-8.196098327636719,1.290562391281128,11.536691665649414
1715093607104084700,0.921084716796875,-1.3741755485534668,-5.1744489669799805,1.9577007293701172
1715093607114064000,0.93106396484375,8.681981086730957,-6.4919586181640625,-3.945309638977051
1715093607123984400,0.940984375,11.587961196899414,-8.061283111572266,-6.931856155395508
1715093607133963500,0.950963623046875,12.928304672241211,-5.689871311187744,-5.232923984527588
1715093607143942700,0.960942626953125,8.589974403381348,-2.1296627521514893,-4.173515796661377
1715093607153891600,0.9708916015625,4.425834655761719,-2.7107763290405273,-6.462000370025635
1715093607163870700,0.98087060546875,5.139665603637695,-1.4092035293579102,-7.464822292327881
1715093607173850000,0.99085009765625,7.926006317138672,-2.769820213317871,-8.143141746520996
1715093607183798800,1.000798828125,10.227230072021484,-2.780482769012451,-7.244290828704834
1715093607193778000,1.01077783203125,10.625115394592285,-2.0935583114624023,-6.415270805358887
1715093607203757300,1.02075732421875,9.175033569335938,-1.630941390991211,-6.5350775718688965
1715093607213706000,1.0307060546875,6.855841159820557,-1.1062278747558594,-5.640375137329102
1715093607223685000,1.04068505859375,7.709832191467285,-0.6378436088562012,-3.336930751800537
1715093607233664500,1.05066455078125,3.9806151390075684,-0.6456012725830078,-1.2609314918518066
1715093607243613200,1.06061328125,7.691186904907227,1.4253721237182617,1.3790111541748047
1715093607253592300,1.07059228515625,8.361241340637207,5.5367841720581055,17.88776397705078
1715093607263571700,1.08057177734375,3.7376556396484375,3.6097044944763184,15.854229927062988
1715093607273520400,1.090520263671875,14.88265609741211,0.9065704345703125,-8.449328422546387
1715093607283499800,1.100499755859375,14.796027183532715,-1.170699119567871,1.026855230331421
1715093607293479000,1.11047900390625,14.07748031616211,-0.00734710693359375,10.365890502929688
1715093607303427600,1.120427490234375,13.449052810668945,2.1590633392333984,13.950582504272461
1715093607313407000,1.130406982421875,10.685882568359375,4.828444480895996,13.686549186706543
1715093607323409400,1.140409423828125,9.500326156616211,4.9241228103637695,10.042781829833984
1715093607333388800,1.150388916015625,3.7784018516540527,4.218472480773926,7.391537666320801
1715093607343337500,1.16033740234375,1.6745820045471191,3.6896896362304688,6.533668518066406
1715093607353316600,1.170316650390625,5.485265731811523,4.647246360778809,10.859548568725586
1715093607363296000,1.1802958984375,7.651772499084473,3.884352684020996,15.69844913482666
1715093607373275100,1.190275146484375,5.758981227874756,4.0397796630859375,17.37789535522461
1715093607383223800,1.200223876953125,1.6548247337341309,3.7056427001953125,15.436423301696777
1715093607393203200,1.210203125,-2.515801429748535,4.539931297302246,13.555643081665039
1715093607403182300,1.220182373046875,-5.616186618804932,3.943272590637207,12.663662910461426
1715093607413131000,1.230131103515625,-6.232539653778076,4.317445755004883,14.22622013092041
1715093607423110400,1.2401103515625,-4.249100685119629,2.036757469177246,10.5105562210083
1715093607433089500,1.250089599609375,-7.3655524253845215,-1.9597835540771484,5.543994903564453
1715093607443038500,1.26003857421875,-7.936960697174072,-4.566036224365234,1.3129311800003052
1715093607453017600,1.270017578125,-6.037047386169434,-5.429248809814453,-0.17315268516540527
1715093607462996700,1.279996826171875,-4.129311561584473,-2.7860546112060547,0.49218207597732544
1715093607472945700,1.289945556640625,-2.9258830547332764,-0.6510028839111328,-1.3828247785568237
1715093607482924800,1.2999248046875,-2.5476553440093994,5.53420352935791,-0.35220786929130554
1715093607492881400,1.30988134765625,-0.9713139533996582,7.246574401855469,0.10479244589805603
1715093607502830300,1.319830322265625,-5.271430969238281,3.7103633880615234,-0.7487521171569824
1715093607512809500,1.3298095703125,-8.01611042022705,16.01799774169922,3.605405807495117
1715093607522788600,1.33978857421875,-1.9759318828582764,1.4688692092895508,3.3967232704162598
1715093607532737500,1.349737548828125,0.3428962230682373,0.40123844146728516,1.9975969791412354
1715093607542716700,1.359716552734375,-3.76493501663208,-1.4679908752441406,1.1528221368789673
1715093607552696000,1.369696044921875,-4.577504634857178,-4.354506492614746,0.04253435134887695
1715093607562644700,1.379644775390625,7.822825908660889,-4.79100227355957,-1.008034110069275
1715093607572622300,1.389622314453125,8.136948585510254,-4.788195610046387,-1.2477631568908691
1715093607582601700,1.399601806640625,9.392430305480957,-5.00201416015625,-2.644232988357544
1715093607592550400,1.40955029296875,5.00209903717041,-3.511795997619629,-2.6884877681732178
1715093607602529500,1.419529541015625,3.0031023025512695,-1.1811933517456055,-1.9236044883728027
1715093607612509000,1.429509033203125,-0.35974979400634766,0.1089315414428711,-1.2250981330871582
1715093607622488000,1.439488037109375,-4.183708190917969,0.2741079330444336,-0.24606108665466309
1715093607632467500,1.449467529296875,-4.381082534790039,-0.7762241363525391,0.18346667289733887
1715093607642416000,1.459416015625,-3.027888298034668,-1.746455192565918,-1.487905740737915
1715093607652395300,1.469395263671875,-2.5830488204956055,-2.0446062088012695,-3.6787917613983154
1715093607662374700,1.479374755859375,-1.3172762393951416,-3.7233381271362305,-1.817068099975586
1715093607672353800,1.489353759765625,-0.3020670413970947,-4.804089546203613,1.4371073246002197
1715093607682302500,1.499302490234375,1.426783561706543,-5.923140525817871,7.614068031311035
1715093607692281900,1.50928173828125,3.3356740474700928,-6.072863578796387,10.681018829345703
1715093607702261000,1.519260986328125,3.7264599800109863,-5.568568229675293,8.804059982299805
1715093607712210000,1.5292099609375,1.1700576543807983,-3.2372007369995117,4.964685440063477
1715093607722189000,1.53918896484375,0.7699477076530457,-2.072604179382324,5.38929557800293
1715093607732168200,1.549168212890625,0.7074875235557556,-1.2505559921264648,4.418290138244629
1715093607742117000,1.5591171875,-0.887611985206604,-0.013149261474609375,3.446380138397217
1715093607752096300,1.56909619140625,-2.979632616043091,1.1855192184448242,3.197765350341797
1715093607762075400,1.579075439453125,-2.6056275367736816,1.539322853088379,3.345179557800293
1715093607772044300,1.589044189453125,-2.6412100791931152,3.085477828979492,5.537102699279785
1715093607782023400,1.5990234375,0.38092851638793945,3.8879528045654297,0.3971247673034668
1715093607792002600,1.60900244140625,-0.9397017955780029,2.8850011825561523,-1.754671573638916
1715093607801951500,1.618951416015625,-0.09383916854858398,3.509121894836426,-2.2785181999206543
1715093607811930600,1.6289306640625,-0.5015769004821777,3.8583765029907227,-4.263617038726807
1715093607821910000,1.638909912109375,-0.23352515697479248,3.9823474884033203,-6.563319683074951
1715093607831858700,1.648858642578125,0.9116677045822144,3.5522708892822266,-9.845481872558594
1715093607841837800,1.658837890625,1.1339677572250366,4.2438507080078125,-1.9393110275268555
1715093607851817200,1.668817138671875,-0.6202224493026733,4.778648376464844,-2.5545129776000977
1715093607861766000,1.678765869140625,-1.5218309164047241,4.330378532409668,-5.314159870147705
1715093607871745000,1.6887451171875,-2.7395412921905518,3.710987091064453,-7.843733310699463
1715093607881724400,1.698724365234375,-2.8378145694732666,2.942866325378418,-6.4151930809021
1715093607891703600,1.70870361328125,-2.5544912815093994,1.0131797790527344,-5.808456897735596
1715093607901652200,1.71865234375,-2.0327343940734863,1.462834358215332,-6.839852333068848
1715093607911631600,1.728631591796875,-1.9373725652694702,-1.327479362487793,-8.768719673156738
1715093607921610800,1.73861083984375,2.0706915855407715,-2.354156494140625,1.3355789184570312
1715093607931590100,1.748590087890625,4.199155330657959,-1.7133464813232422,5.591055870056152
1715093607941569300,1.7585693359375,3.7202014923095703,-2.3867006301879883,2.774893283843994
1715093607951518000,1.76851806640625,1.557818055152893,-3.688119888305664,6.225806713104248
1715093607961497300,1.778497314453125,1.8837263584136963,-1.6676597595214844,6.041788578033447
1715093607971476500,1.7884765625,-0.27899986505508423,-2.604717254638672,4.835006237030029
1715093607981425200,1.798425048828125,-1.228793740272522,-4.4326982498168945,4.895323276519775
1715093607991404500,1.808404541015625,-2.1862025260925293,-5.548033714294434,7.0360307693481445
1715093608001383700,1.8183837890625,-3.2400906085968018,-6.120589256286621,9.211356163024902
1715093608011332600,1.82833251953125,-1.8008294105529785,-6.159222602844238,7.048066139221191
1715093608021311700,1.838311767578125,-3.3019068241119385,-6.632030487060547,2.1926770210266113
1715093608031291000,1.848290771484375,-1.0093950033187866,-4.627594947814941,0.15314865112304688
1715093608041239800,1.85823974609375,-1.950075387954712,-3.7724313735961914,2.767007350921631
1715093608051219000,1.868218994140625,-2.334287166595459,-4.00727653503418,3.2211437225341797
1715093608061198300,1.8781982421875,-0.9997490644454956,-3.359757423400879,2.2779765129089355
1715093608071147000,1.88814697265625,1.402381181716919,-2.619741439819336,2.8718371391296387
1715093608081126100,1.898126220703125,2.5812716484069824,-2.9089651107788086,4.588357925415039
1715093608091105500,1.90810546875,2.742370128631592,-0.42084789276123047,1.5047062635421753
1715093608101054200,1.91805419921875,2.1004207134246826,2.955918312072754,-2.114420175552368
1715093608111033300,1.928033447265625,0.6686501502990723,4.904969215393066,-3.3093984127044678
1715093608121012700,1.9380126953125,-0.5115706920623779,5.196425437927246,-1.114811658859253
1715093608130961400,1.94796142578125,1.336360216140747,4.019139289855957,-0.6252014636993408
1715093608140940500,1.9579404296875,3.1244280338287354,2.3581924438476562,-2.352564573287964
1715093608150920000,1.967919921875,2.9144132137298584,3.150021553039551,-1.2519100904464722
1715093608160868600,1.97786865234375,0.3194009065628052,4.017855644226074,-1.6968393325805664
1715093608170848000,1.987847900390625,-0.42573773860931396,0.6805505752563477,0.8021543025970459
1715093608180827100,1.9978271484375,-2.3236243724823,0.4048624038696289,1.857038974761963
1715093608190806300,2.00780615234375,-0.9277573823928833,0.49654483795166016,-0.8310134410858154
1715093608200785700,2.01778564453125,0.4079012870788574,-0.3480653762817383,-2.454188346862793
1715093608210734300,2.027734375,1.7189793586730957,-0.7028541564941406,-4.334360122680664
1715093608220713700,2.037713623046875,0.35461533069610596,-0.4797658920288086,-2.7263896465301514
1715093608230692900,2.04769287109375,-1.541130781173706,0.35406970977783203,0.356522798538208
1715093608240672000,2.057672119140625,-0.3864297866821289,1.0607185363769531,-2.1632301807403564
1715093608250621000,2.067620849609375,-1.1836544275283813,0.17935466766357422,-3.8800837993621826
1715093608260600000,2.07760009765625,-1.8500310182571411,-0.6897153854370117,-2.650758743286133
1715093608270579500,2.087579345703125,2.3655712604522705,1.3938875198364258,0.15642476081848145
1715093608280529200,2.097529052734375,2.1035375595092773,2.0422067642211914,-0.3108863830566406
1715093608290508300,2.10750830078125,1.059108853340149,5.09340763092041,-0.6669461727142334
1715093608300487400,2.1174873046875,0.5392873287200928,22.504674911499023,8.350784301757812
1715093608310436400,2.127436279296875,-0.7218282222747803,24.83738136291504,10.796417236328125
1715093608320415500,2.13741552734375,-2.126875400543213,8.385049819946289,3.737525701522827
1715093608330395000,2.147394775390625,1.340972661972046,2.860675811767578,2.802858352661133
1715093608340343600,2.157343505859375,2.956271171569824,2.589895248413086,3.14371657371521
1715093608350322700,2.16732275390625,2.608567714691162,5.512331962585449,2.7885332107543945
1715093608360302000,2.177302001953125,1.5848833322525024,1.2384281158447266,0.21789789199829102
1715093608370250800,2.187250732421875,1.2572729587554932,-2.980224609375,-0.9925863742828369
1715093608380230000,2.19722998046875,2.4102721214294434,-3.5298805236816406,-2.5329902172088623
1715093608390209300,2.207209228515625,0.45782148838043213,-7.497859001159668,-5.264917373657227
1715093608400158000,2.217157958984375,2.015122890472412,-21.96157455444336,-13.780059814453125
1715093608410137000,2.22713720703125,0.8943198919296265,-18.450984954833984,-4.154076099395752
1715093608420116500,2.237116455078125,-1.666717767715454,-13.377174377441406,0.05000162124633789
1715093608430065200,2.247065185546875,-1.2241134643554688,-6.99934196472168,-2.0557639598846436
1715093608440044500,2.25704443359375,0.019636869430541992,-3.3683900833129883,-2.4488472938537598
1715093608450023700,2.267023681640625,0.8063628673553467,-1.509902000427246,-1.1873180866241455
1715093608459972400,2.276972412109375,1.194332242012024,0.2130451202392578,-0.2417924404144287
1715093608469951700,2.28695166015625,0.6452065706253052,0.3730897903442383,-0.2009594440460205
1715093608479931000,2.296930908203125,-0.14539504051208496,0.14376258850097656,-0.04688286781311035
1715093608489910300,2.30691015625,1.3242552280426025,0.17906475067138672,-0.5270111560821533
1715093608499889400,2.316889404296875,1.2838948965072632,0.03452301025390625,-1.1590096950531006
1715093608509838000,2.326838134765625,-1.042916178703308,-0.1640777587890625,0.03336024284362793
1715093608519817500,2.3368173828125,-1.7478171586990356,-4.524069786071777,-3.477942705154419
1715093608529796600,2.346796630859375,4.39173698425293,-3.556173324584961,-4.385707855224609
1715093608539745300,2.356745361328125,1.7916840314865112,0.23252582550048828,-2.4073660373687744
1715093608549724700,2.366724609375,0.8272956609725952,4.762086868286133,-1.1340904235839844
1715093608559703800,2.376703857421875,0.7062058448791504,5.491011619567871,-0.4670877456665039
1715093608569652500,2.386652587890625,0.23763370513916016,4.005395889282227,0.9933168888092041
1715093608579631900,2.3966318359375,-0.1723928451538086,1.2343578338623047,1.2700519561767578
1715093608589611000,2.406611083984375,-0.17035400867462158,-0.18239593505859375,0.783287763595581
1715093608599559700,2.4165595703125,0.10462033748626709,-0.5298309326171875,0.9296023845672607
1715093608609539000,2.4265390625,0.3606224060058594,-0.7635583877563477,0.7603576183319092
1715093608619518200,2.436518310546875,0.23951947689056396,-1.0842761993408203,0.4734828472137451
1715093608629467100,2.446467041015625,-0.1132512092590332,-1.3536491394042969,0.20609378814697266
1715093608639446300,2.4564462890625,-0.3241434097290039,-1.3557538986206055,0.1917588710784912
1715093608649425400,2.46642529296875,-0.21176278591156006,-1.0657005310058594,0.5071122646331787
1715093608659374300,2.476374267578125,0.06146430969238281,-0.6226215362548828,0.9879238605499268
1715093608669353500,2.486353515625,0.3673485517501831,-0.23892688751220703,1.2915489673614502
1715093608679332900,2.496332763671875,0.6322846412658691,0.09804821014404297,1.3774895668029785
1715093608689281500,2.506281494140625,0.795051097869873,0.3674163818359375,1.3870899677276611
1715093608699260700,2.5162607421875,0.7699036598205566,0.5598936080932617,1.3783259391784668
1715093608709240000,2.526239990234375,0.6698813438415527,0.5969791412353516,1.2945022583007812
1715093608719188700,2.536188720703125,0.48417556285858154,0.5267057418823242,1.2127227783203125
1715093608729168000,2.54616796875,0.2744598388671875,0.3898735046386719,1.1563622951507568
1715093608739147300,2.556147216796875,0.16342568397521973,0.3058633804321289,0.9937605857849121
1715093608749126400,2.56612646484375,0.19004285335540771,0.28386783599853516,0.8798034191131592
1715093608759075000,2.576074951171875,0.38707613945007324,0.32576751708984375,0.6981956958770752
1715093608769054500,2.586054443359375,0.6655290126800537,0.3928642272949219,0.5479366779327393
1715093608779033600,2.59603369140625,0.9717525243759155,0.4230670928955078,0.4770622253417969
1715093608789013000,2.606012939453125,1.250074863433838,0.4856986999511719,0.4450993537902832
1715093608798992100,2.6159921875,1.476116418838501,0.580571174621582,0.41442322731018066
1715093608808940800,2.62594091796875,1.7272663116455078,0.7364063262939453,0.4116342067718506
1715093608818920200,2.635920166015625,1.8384754657745361,0.9720687866210938,0.5204048156738281
1715093608828899300,2.6458994140625,1.824462652206421,1.187103271484375,0.721379280090332
1715093608838848300,2.65584814453125,1.6365649700164795,1.3099002838134766,0.9614772796630859
1715093608848827400,2.665827392578125,1.346869707107544,1.2402420043945312,1.1516892910003662
1715093608858806500,2.675806640625,1.1782703399658203,0.9169492721557617,1.2409169673919678
1715093608868755500,2.68575537109375,1.2733008861541748,0.46860599517822266,1.1770365238189697
1715093608878734600,2.695734619140625,1.1010956764221191,0.006159782409667969,1.241429328918457
1715093608888714000,2.7057138671875,1.4015209674835205,-0.3941631317138672,1.4487500190734863
1715093608898662700,2.71566259765625,2.4699184894561768,-0.6570014953613281,1.5088696479797363
1715093608908641800,2.725641845703125,2.6105031967163086,-1.0662603378295898,1.5273456573486328
1715093608918621200,2.73562109375,3.0317041873931885,-1.5113115310668945,1.3558690547943115
1715093608928569900,2.74556982421875,2.680774688720703,-2.0489845275878906,0.9409546852111816
1715093608938549000,2.755549072265625,3.338128089904785,-2.4066476821899414,0.8181021213531494
1715093608948528400,2.7655283203125,4.2313642501831055,-2.7422752380371094,0.8873085975646973
1715093608958477000,2.77547705078125,4.3022050857543945,-3.312763214111328,1.131284475326538
1715093608968456200,2.785456298828125,3.4768903255462646,-3.7253637313842773,1.3764245510101318
1715093608978435600,2.795435546875,4.045414924621582,-3.552000045776367,1.9084606170654297
1715093608988384300,2.80538427734375,4.3176164627075195,-3.3121776580810547,2.586552858352661
1715093608998363400,2.81536328125,4.075679779052734,-2.899372100830078,3.0776500701904297
1715093609008342800,2.8253427734375,3.848693370819092,-2.311544418334961,3.6437814235687256
1715093609018291500,2.83529150390625,3.117966413497925,-1.885763168334961,4.090357780456543
1715093609028270800,2.845270751953125,1.6041741371154785,-1.594904899597168,4.064129829406738
1715093609038250000,2.85525,1.821286916732788,-0.6152467727661133,3.9589834213256836
1715093609048229000,2.86522900390625,0.6414878368377686,0.051766395568847656,2.961723566055298
1715093609058208500,2.87520849609375,-0.1437821388244629,0.16915512084960938,1.113865852355957
1715093609068157200,2.8851572265625,0.5322985649108887,0.4548807144165039,-0.46424388885498047
1715093609078136600,2.895136474609375,1.0858173370361328,0.987767219543457,-1.435842752456665
1715093609088115700,2.90511572265625,1.5389530658721924,1.7654495239257812,-2.7857248783111572
1715093609098094800,2.9150947265625,1.3073234558105469,2.52022647857666,-4.277736186981201
1715093609108043800,2.925043701171875,0.5944987535476685,2.7093629837036133,-5.713604927062988
1715093609118023000,2.93502294921875,-0.19521188735961914,2.3713293075561523,-6.921391487121582
1715093609128002300,2.945002197265625,-1.0588419437408447,1.6669645309448242,-7.233373165130615
1715093609137951000,2.954950927734375,-1.956823468208313,0.712428092956543,-6.845553874969482
1715093609147930000,2.96493017578125,-2.7226388454437256,-0.013513565063476562,-5.941022872924805
1715093609157909500,2.974909423828125,-3.276085615158081,-1.1586523056030273,-5.268343925476074
1715093609167858200,2.984858154296875,-3.738809108734131,-2.5909976959228516,-4.493691444396973
1715093609177837300,2.99483740234375,-3.883897304534912,-3.242551803588867,-2.4260385036468506
1715093609187816700,3.004816650390625,-3.7548136711120605,-3.1253366470336914,0.3326833248138428
1715093609197765400,3.014765380859375,-3.5263068675994873,-1.8327217102050781,1.832033395767212
1715093609207744500,3.02474462890625,-4.778806209564209,-0.7750835418701172,2.964419364929199
1715093609217724000,3.034723876953125,-5.979206562042236,-1.5246505737304688,2.5701935291290283
1715093609227672600,3.044672607421875,-5.655526161193848,-2.24942684173584,3.7051262855529785
1715093609237652000,3.05465185546875,-4.153846740722656,-1.6064529418945312,5.371651649475098
1715093609247631000,3.064631103515625,-3.7126190662384033,-1.4399490356445312,5.35844612121582
1715093609257579800,3.074579833984375,-3.0989670753479004,-1.6911115646362305,4.3729248046875
1715093609267559200,3.08455908203125,-2.510939598083496,-1.9100227355957031,3.548402786254883
1715093609277538300,3.094538330078125,-2.421583652496338,-1.8207225799560547,2.923905372619629
1715093609287487000,3.104487060546875,-3.113751173019409,-1.500335693359375,2.887847423553467
1715093609297466400,3.11446630859375,-2.8793461322784424,-1.051863670349121,2.2691268920898438
1715093609307445500,3.124445556640625,-1.8562241792678833,-0.22640323638916016,2.2676761150360107
1715093609317394200,3.134394287109375,-0.6614197492599487,0.7934093475341797,2.0130867958068848
1715093609327373600,3.14437353515625,-0.20548295974731445,1.5092573165893555,1.4786872863769531
1715093609337352700,3.154352783203125,-0.5568010807037354,2.125033378601074,1.1642986536026
1715093609347332000,3.16433203125,-0.9863395690917969,2.238408088684082,0.8319740295410156
1715093609357311200,3.174311279296875,-1.1963517665863037,2.221611976623535,0.38992464542388916
1715093609367260000,3.184260009765625,-1.5924878120422363,1.9339733123779297,0.22352874279022217
1715093609377239300,3.1942392578125,-1.7305421829223633,1.7737035751342773,0.2997128963470459
1715093609387218400,3.204218505859375,-1.526473879814148,2.222013473510742,0.405270516872406
1715093609397167000,3.2141669921875,-1.352696180343628,2.7036523818969727,-0.008483529090881348
1715093609407146500,3.224146484375,-1.171696424484253,2.9518280029296875,-0.13338923454284668
1715093609417125600,3.234125732421875,-0.35354554653167725,2.927888870239258,-0.44954824447631836
1715093609427105000,3.24410498046875,0.49379801750183105,2.611705780029297,-1.3046650886535645
1715093609437053700,3.2540537109375,0.7054417133331299,2.4791555404663086,-1.2639079093933105
1715093609447032800,3.26403271484375,0.8856329917907715,2.498955726623535,-1.3431988954544067
1715093609457012200,3.27401220703125,1.00654935836792,2.441232681274414,-1.1886577606201172
1715093609466961000,3.2839609375,0.9593924283981323,2.497389793395996,-0.8666545152664185
1715093609476940300,3.293940185546875,0.8844335079193115,2.405355453491211,-0.43689411878585815
1715093609486919400,3.30391943359375,0.9958128929138184,2.1592416763305664,0.18894654512405396
1715093609496868000,3.3138681640625,1.2495476007461548,1.857767105102539,0.9140298962593079
1715093609506847500,3.323847412109375,1.4824936389923096,1.5898361206054688,1.8098386526107788
1715093609516826600,3.33382666015625,1.6796480417251587,1.274749755859375,2.940735340118408
1715093609526775300,3.343775390625,1.7563791275024414,0.5810270309448242,4.298205375671387
1715093609536754700,3.353754638671875,1.4848257303237915,-0.1896219253540039,5.356536865234375
1715093609546733800,3.36373388671875,1.0408391952514648,-0.8569478988647461,5.219851493835449
1715093609556682500,3.3736826171875,0.5040826797485352,-1.1563224792480469,3.7576956748962402
1715093609566662000,3.383661865234375,0.6250052452087402,-1.2770624160766602,1.4215683937072754
1715093609576641000,3.39364111328125,0.9133267402648926,-1.8109493255615234,-1.9886170625686646
1715093609586590000,3.40358984375,2.4945077896118164,-2.4497737884521484,-5.027515888214111
1715093609596569000,3.413569091796875,5.697425365447998,-2.816427230834961,-6.336201190948486
1715093609606548200,3.42354833984375,8.665447235107422,-2.5404090881347656,-5.824001789093018
1715093609616527600,3.433527587890625,6.673864841461182,-2.098414421081543,-2.639901638031006
1715093609626506800,3.4435068359375,1.2747608423233032,-1.5067977905273438,-0.33005785942077637
1715093609636455700,3.45345556640625,-1.5740337371826172,-1.2317790985107422,2.9243500232696533
1715093609646434800,3.463434814453125,-3.589116334915161,-3.197482109069824,5.091611862182617
1715093609656414000,3.4734140625,-5.154318809509277,-8.136383056640625,4.334121227264404
1715093609666363000,3.48336279296875,-7.2490386962890625,-13.716912269592285,2.086411952972412
1715093609676342000,3.493342041015625,-9.462577819824219,-16.113704681396484,-2.140385389328003
1715093609686321200,3.503321044921875,-7.241744041442871,-13.872055053710938,-5.137025356292725
1715093609696300500,3.513300537109375,-3.661747932434082,-6.820783615112305,-8.140374183654785
1715093609706249200,3.523249267578125,-1.5984818935394287,0.31214141845703125,-7.877154350280762
1715093609716228600,3.533228515625,-1.081347942352295,3.6985225677490234,-4.76486873626709
1715093609726207700,3.543207763671875,0.39979973435401917,6.523810386657715,-2.0934243202209473
1715093609736156400,3.553156494140625,0.7250162363052368,7.616948127746582,-0.36817535758018494
1715093609746135800,3.5631357421875,0.13409703969955444,7.282475471496582,-1.2638505697250366
1715093609756115000,3.573114990234375,0.05484606325626373,7.081621170043945,-2.3775322437286377
1715093609766063600,3.583063720703125,0.43502673506736755,6.306447982788086,-1.7291837930679321
1715093609776043000,3.59304296875,0.644066572189331,4.124233245849609,-1.1999685764312744
1715093609786022100,3.603022216796875,0.6183717250823975,0.7419452667236328,-2.4178812503814697
1715093609795970800,3.612970703125,-0.0007529109716415405,-1.946730613708496,-4.329424858093262
1715093609805950200,3.6229501953125,-1.254577398300171,-3.35184383392334,-6.034505367279053
1715093609815929300,3.632929443359375,-2.6117918491363525,-3.7398252487182617,-7.7289323806762695
1715093609825878300,3.642878173828125,-1.6643626689910889,-2.122443199157715,-7.241497039794922
1715093609835857400,3.652857421875,0.958861768245697,0.8935165405273438,-4.983436107635498
1715093609845836500,3.66283642578125,2.8558311462402344,3.367152214050293,-2.8635759353637695
1715093609855785500,3.672785400390625,3.8787667751312256,5.076403617858887,-1.5120861530303955
1715093609865764600,3.6827646484375,3.608077049255371,6.1026811599731445,-0.4818692207336426
1715093609875744000,3.692743896484375,2.100283145904541,5.679258346557617,0.02399003505706787
1715093609885692700,3.702692626953125,1.0492823123931885,4.205506324768066,0.2374250888824463
1715093609895671800,3.712671875,-0.36766549944877625,2.346590995788574,0.7748260498046875
1715093609905651200,3.722651123046875,-0.29119378328323364,0.8184986114501953,1.5126172304153442
1715093609915630300,3.73263037109375,-0.2260567545890808,-0.7489156723022461,1.797462821006775
1715093609925609700,3.742609619140625,-0.10932385921478271,-1.6406593322753906,2.1904807090759277
1715093609935558400,3.752558349609375,0.19750624895095825,-1.592564582824707,2.417140483856201
1715093609945537500,3.76253759765625,0.18712598085403442,-1.0181665420532227,2.389019012451172
1715093609955517000,3.772516845703125,0.43642643094062805,-0.32749462127685547,2.6146345138549805
1715093609965496000,3.78249609375,0.3392196297645569,0.14909934997558594,2.7932662963867188
1715093609975444700,3.79244482421875,-0.12520545721054077,0.4928579330444336,3.107081651687622
1715093609985424100,3.802424072265625,-0.8579283952713013,0.7800769805908203,3.502603054046631
1715093609995403300,3.8124033203125,-1.4444849491119385,0.9943742752075195,3.8797950744628906
1715093610005352000,3.82235205078125,-1.8566107749938965,1.0000648498535156,4.024104595184326
1715093610015331300,3.832331298828125,-1.9771424531936646,0.7757091522216797,3.8517274856567383
1715093610025310500,3.842310546875,-2.018068790435791,0.2206573486328125,3.9264941215515137
1715093610035259400,3.85225927734375,-1.6447111368179321,-0.39350223541259766,3.58089017868042
1715093610045238500,3.862238525390625,-0.029990792274475098,-0.6801528930664062,3.2144973278045654
1715093610055217700,3.8722177734375,0.593719482421875,-0.6157188415527344,2.6485984325408936
1715093610065166600,3.88216650390625,1.137736439704895,-0.13718032836914062,2.568885326385498
1715093610075145700,3.892145751953125,2.0954270362854004,-0.05620861053466797,1.92286217212677
1715093610085124900,3.902124755859375,4.634317874908447,0.6695823669433594,1.3559051752090454
1715093610095073800,3.91207373046875,5.150870323181152,1.126169204711914,1.5709885358810425
1715093610105053000,3.922052978515625,5.719276428222656,1.4853801727294922,2.4088633060455322
1715093610115032300,3.9320322265625,7.033441543579102,1.8322734832763672,2.128328323364258
1715093610124981000,3.94198095703125,6.713072299957275,1.9883403778076172,1.706925630569458
1715093610134960000,3.951960205078125,3.4395573139190674,0.8735113143920898,1.687334418296814
1715093610144939500,3.961939453125,1.950178861618042,-1.0361509323120117,1.6487420797348022
1715093610154888200,3.97188818359375,0.9991698265075684,-3.7177419662475586,1.189962387084961
1715093610164867300,3.981867431640625,0.7655882835388184,-5.785205841064453,0.42686915397644043
1715093610174846700,3.9918466796875,1.7464606761932373,-6.335451126098633,-0.10491526126861572
1715093610184825900,4.001825927734375,3.794140338897705,-5.473748207092285,-0.005015254020690918
1715093610194774500,4.0117744140625,3.612600326538086,-4.561195373535156,1.562300205230713
1715093610204754000,4.02175390625,0.8360835313796997,-3.8120250701904297,2.9831886291503906
1715093610214733000,4.031733154296875,-1.6425522565841675,-2.356867790222168,4.029647350311279
1715093610224712400,4.04171240234375,-0.6242921352386475,-0.4438323974609375,5.182221412658691
1715093610234661000,4.0516611328125,-1.2652233839035034,0.7422780990600586,4.540398120880127
1715093610244640300,4.06164013671875,-0.6038631200790405,2.419353485107422,2.5967648029327393
1715093610254619600,4.07161962890625,0.7128309607505798,3.6439714431762695,0.07547760009765625
1715093610264568300,4.081568359375,1.1364936828613281,4.027833938598633,-3.2623860836029053
1715093610274547700,4.091547607421875,0.7963053584098816,3.602309226989746,-6.6911821365356445
1715093610284526800,4.10152685546875,-0.32211020588874817,2.5848312377929688,-9.454136848449707
1715093610294475500,4.1114755859375,-2.4380223751068115,1.1461315155029297,-10.923276901245117
1715093610304455000,4.121454833984375,-4.425009250640869,-0.5429353713989258,-12.016051292419434
1715093610314434000,4.13143408203125,-5.353135108947754,-2.689671516418457,-11.921018600463867
1715093610324382700,4.1413828125,-6.387641906738281,-4.822623252868652,-9.041864395141602
1715093610334362000,4.151362060546875,-6.768636226654053,-6.569498062133789,-4.6775712966918945
1715093610344341200,4.16134130859375,-6.039839267730713,-7.362092971801758,-0.3835446834564209
1715093610354290000,4.1712900390625,-5.469181060791016,-7.100900650024414,3.42551851272583
1715093610364269300,4.181269287109375,-6.655478000640869,-4.863144874572754,6.693099021911621
1715093610374248400,4.19124853515625,-9.4213228225708,-3.7523975372314453,7.104878902435303
1715093610384197400,4.201197265625,-6.716586112976074,-0.7653703689575195,9.606328010559082
1715093610394176500,4.211176513671875,-5.0064287185668945,1.630061149597168,7.954925537109375
1715093610404155600,4.22115576171875,-3.022922992706299,2.7689762115478516,5.232513427734375
1715093610414104600,4.2311044921875,-1.3832058906555176,2.3316898345947266,2.1096880435943604
1715093610424083700,4.241083740234375,-1.229215145111084,1.5938758850097656,-0.10371053218841553
1715093610434063000,4.25106298828125,-1.2598953247070312,0.9256200790405273,-1.4587109088897705
1715093610444011800,4.26101171875,-0.3316307067871094,0.7604141235351562,-2.490151882171631
1715093610453991000,4.270990966796875,0.05246400833129883,0.8877506256103516,-3.116518974304199
1715093610463970300,4.28097021484375,-0.18009400367736816,1.1608161926269531,-2.9278788566589355
1715093610473949400,4.290949462890625,-0.7032663822174072,1.5931997299194336,-2.8279762268066406
1715093610483928600,4.300928466796875,-1.2996678352355957,2.2012147903442383,-2.3963897228240967
1715093610493877500,4.31087744140625,-1.7023892402648926,2.3234987258911133,-1.7836284637451172
1715093610503856600,4.320856689453125,-1.785912275314331,1.9600744247436523,-1.2840098142623901
1715093610513836000,4.3308359375,-1.7750377655029297,1.5386762619018555,-1.0076398849487305
1715093610523815200,4.340815185546875,-1.3744182586669922,1.3088750839233398,-1.445176124572754
1715093610533763800,4.350763916015625,-1.0558717250823975,1.7313098907470703,-1.3622132539749146
1715093610543743200,4.3607431640625,-0.42739343643188477,2.4781761169433594,-1.624854326248169
1715093610553722400,4.370722412109375,0.2221534252166748,2.759298324584961,-1.8186949491500854
1715093610563671000,4.380671142578125,0.6542659997940063,2.9027090072631836,-1.5874931812286377
1715093610573650400,4.390650390625,0.6528524160385132,2.918996810913086,-1.210448145866394
1715093610583629600,4.400629638671875,0.6209452152252197,2.7685089111328125,-0.7362895011901855
1715093610593578200,4.410578125,0.6369724273681641,2.4954442977905273,-0.018946856260299683
1715093610603557600,4.4205576171875,0.6416805982589722,2.189419746398926,1.0209410190582275
1715093610613536800,4.430536865234375,0.6212388277053833,1.819870948791504,2.439502000808716
1715093610623485700,4.440485595703125,0.8297158479690552,1.5676355361938477,4.315557956695557
1715093610633464800,4.45046484375,1.00466787815094,1.0896539688110352,6.276265621185303
1715093610643444000,4.46044384765625,0.887584924697876,-0.039963722229003906,7.871709823608398
1715093610653393000,4.470392822265625,0.4932001829147339,-1.538945198059082,8.580461502075195
1715093610663372000,4.4803720703125,-0.23437654972076416,-3.019968032836914,8.576786994934082
1715093610673351400,4.490351318359375,-1.362093210220337,-4.189648628234863,7.416316986083984
1715093610683300000,4.500300048828125,-2.291022777557373,-5.237429618835449,4.917709827423096
1715093610693279200,4.510279296875,-3.121330499649048,-6.33167839050293,1.8263823986053467
1715093610703258600,4.520258544921875,-3.010359048843384,-7.087806701660156,-1.2750340700149536
1715093610713207300,4.530207275390625,-0.23629748821258545,-7.572230339050293,-3.9474432468414307
1715093610723186400,4.5401865234375,3.7054977416992188,-6.671496391296387,-5.187737464904785
1715093610733165800,4.550165771484375,2.9373555183410645,-3.159944534301758,-3.8393609523773193
1715093610743114500,4.560114501953125,0.6950536966323853,-1.8713884353637695,-2.7659082412719727
1715093610753093600,4.57009375,1.5268571376800537,-4.076026916503906,-1.3471424579620361
1715093610763073000,4.580072998046875,3.923701286315918,-4.492116928100586,0.06752170622348785
1715093610773052200,4.59005224609375,-0.6175487637519836,-0.9576625823974609,-0.9579331874847412
1715093610783031600,4.600031494140625,-4.097232818603516,0.8294477462768555,-3.86653733253479
1715093610792980200,4.609980224609375,-4.586334228515625,-3.102566719055176,-5.044849395751953
1715093610802959400,4.61995947265625,-5.989602565765381,-6.097740173339844,-4.464228630065918
1715093610812938800,4.629938720703125,-4.387012004852295,-3.4015493392944336,-3.4747493267059326
1715093610822918000,4.63991796875,-2.5918993949890137,-0.32235240936279297,-1.7393420934677124
1715093610832866800,4.64986669921875,-0.8675133585929871,0.9207906723022461,1.2538104057312012
1715093610842846000,4.659845947265625,-0.19732415676116943,2.1778879165649414,3.3610379695892334
1715093610852825000,4.6698251953125,0.3647857904434204,3.8109073638916016,3.0433175563812256
1715093610862774000,4.67977392578125,0.6307665705680847,5.7089033126831055,1.2886290550231934
1715093610872753200,4.689753173828125,0.4491438865661621,6.747668266296387,-0.5358344912528992
1715093610882732300,4.699732177734375,0.5901595950126648,6.356433868408203,-0.9146270155906677
1715093610892681200,4.70968115234375,1.3459361791610718,4.854292869567871,-1.5918868780136108
1715093610902660400,4.719660400390625,1.4762158393859863,3.0533885955810547,-3.126284122467041
1715093610912639700,4.7296396484375,1.331331491470337,0.8484964370727539,-5.867455005645752
1715093610922588400,4.73958837890625,1.1218770742416382,-1.550851821899414,-7.874701023101807
1715093610932567600,4.749567626953125,0.39938002824783325,-3.199507713317871,-7.703036785125732
1715093610942547000,4.759546875,-0.33432191610336304,-2.8667640686035156,-6.304987907409668
1715093610952495600,4.76949560546875,0.09458547830581665,-0.1555185317993164,-4.140052795410156
1715093610962474800,4.779474853515625,1.52218496799469,2.4203977584838867,-2.349970817565918
1715093610972454100,4.7894541015625,2.559683322906494,3.9842424392700195,-1.777266502380371
1715093610982402800,4.79940283203125,3.205094814300537,5.018892288208008,-1.574182152748108
1715093610992382000,4.8093818359375,3.1245758533477783,5.42413330078125,-1.723275899887085
1715093611002361300,4.819361328125,2.3009090423583984,4.949490547180176,-1.436068058013916
1715093611012310000,4.82931005859375,1.4488904476165771,4.062582969665527,-0.5468470454216003
1715093611022289400,4.839289306640625,0.8537321090698242,3.1368837356567383,0.44204533100128174
1715093611032268500,4.8492685546875,0.2713083028793335,1.8836355209350586,1.6224747896194458
1715093611042247700,4.85924755859375,-0.07000994682312012,0.4540834426879883,2.549276828765869
1715093611052196600,4.869196533203125,-0.23049020767211914,-0.657109260559082,3.059058666229248
1715093611062175700,4.87917578125,-0.3848220109939575,-1.2239570617675781,3.336763381958008
1715093611072155100,4.889155029296875,-1.133623480796814,-1.2961311340332031,3.189936637878418
1715093611082134300,4.89913427734375,-0.6216853857040405,-1.1094856262207031,2.79298996925354
1715093611092113400,4.909113525390625,-0.8428174257278442,-0.8755855560302734,2.5376079082489014
1715093611102062300,4.919062255859375,-0.9141197204589844,-0.7171506881713867,2.3177433013916016
1715093611112041500,4.92904150390625,-1.5665442943572998,-0.627716064453125,2.3564000129699707
1715093611122020900,4.939020751953125,0.35125577449798584,-0.2830352783203125,2.5172863006591797
1715093611131969500,4.948969482421875,-0.7260186672210693,-0.4680824279785156,2.485640525817871
1715093611141948700,4.95894873046875,-0.5592554807662964,-0.602229118347168,2.267019033432007
1715093611151928000,4.968927978515625,-0.9436876773834229,-0.6768026351928711,1.9901084899902344
1715093611161876700,4.978876708984375,3.0354557037353516,-0.41899681091308594,1.544466257095337
1715093611171856000,4.98885595703125,6.107851505279541,-0.22776222229003906,0.6632981300354004
1715093611181835300,4.998835205078125,7.561223030090332,0.4809436798095703,0.40283262729644775
1715093611191784000,5.008783935546875,8.401286125183105,1.6205778121948242,-0.09667539596557617
1715093611201763000,5.01876318359375,9.115138053894043,3.0785560607910156,-0.3827477693557739
1715093611211742500,5.028742431640625,7.504795074462891,3.9713239669799805,-0.620049238204956
1715093611221691100,5.038691162109375,4.785146713256836,3.334501266479492,-0.9026358127593994
1715093611231670300,5.048670166015625,1.9603278636932373,1.0471477508544922,-0.5780444145202637
1715093611241649700,5.058649658203125,0.9448766708374023,-1.7082080841064453,-0.07128489017486572
1715093611251598300,5.068598388671875,0.4145522117614746,-4.349261283874512,0.041922569274902344
1715093611261577700,5.07857763671875,0.974445104598999,-5.483955383300781,0.4337184429168701
1715093611271556900,5.088556884765625,2.995833158493042,-5.489378929138184,1.4539666175842285
1715093611281505500,5.098505615234375,3.0077037811279297,-4.852947235107422,2.8333215713500977
1715093611291485000,5.10848486328125,2.511577606201172,-3.192776679992676,5.1196746826171875
1715093611301464000,5.118464111328125,0.9777555465698242,-1.127899169921875,5.989558219909668
1715093611311412700,5.128412841796875,0.1745690107345581,0.4948749542236328,5.462315559387207
1715093611321392000,5.13839208984375,-0.35400843620300293,1.046478271484375,4.3092803955078125
1715093611331371300,5.148371337890625,-0.75941002368927,0.4925699234008789,2.5884408950805664
1715093611341350700,5.1583505859375,-1.4403328895568848,-1.4072790145874023,1.6837025880813599
1715093611351329800,5.168329833984375,-2.3618385791778564,-3.1264123916625977,-6.206581115722656
1715093611361278500,5.178278564453125,-2.7541112899780273,-2.9442739486694336,-8.49015998840332
1715093611371257900,5.1882578125,-4.4692463874816895,-1.3949813842773438,-9.684913635253906
1715093611381237000,5.198237060546875,-6.03972053527832,-0.5012874603271484,-12.965785026550293
1715093611391216400,5.20821630859375,-6.403312683105469,-0.4012184143066406,-15.381467819213867
1715093611401165000,5.2181650390625,-6.440012454986572,-1.1704473495483398,-13.823625564575195
1715093611411144200,5.228144287109375,-5.849392890930176,-2.531867027282715,-9.582077980041504
1715093611421123600,5.23812353515625,-4.9962334632873535,-4.20356559753418,-4.028738021850586
1715093611431072300,5.248072265625,-4.249772071838379,-4.6897382736206055,0.707086443901062
1715093611441051400,5.258051513671875,-3.1203393936157227,-2.798248291015625,6.004270553588867
1715093611451030800,5.26803076171875,-2.8714818954467773,-0.6848678588867188,10.191886901855469
1715093611460979500,5.2779794921875,-4.078434944152832,-1.0579967498779297,7.360284805297852
1715093611470958800,5.287958740234375,-4.6323418617248535,-3.2639198303222656,8.480252265930176
1715093611480938000,5.29793798828125,-4.8024091720581055,-4.085277557373047,8.760504722595215
1715093611490886700,5.30788671875,-5.519689559936523,-1.58258056640625,6.516071796417236
1715093611500866000,5.317865966796875,-5.018856525421143,0.45868587493896484,5.121277809143066
1715093611510845200,5.32784521484375,-3.438079595565796,1.6289243698120117,3.344186305999756
1715093611520793900,5.3377939453125,-1.393696665763855,1.9167671203613281,1.4372185468673706
1715093611530773200,5.347773193359375,0.4092673063278198,1.8806581497192383,-0.564016580581665
1715093611540752400,5.35775244140625,1.499481201171875,1.716714859008789,-1.6009583473205566
1715093611550701000,5.367701171875,1.6580036878585815,1.6052732467651367,-2.3182058334350586
1715093611560680400,5.377680419921875,1.4740173816680908,1.7887554168701172,-2.870098352432251
1715093611570659600,5.38765966796875,1.2117571830749512,1.6272811889648438,-3.1925389766693115
1715093611580608500,5.3976083984375,0.7733929753303528,2.239809989929199,-3.533301830291748
1715093611590587600,5.407587646484375,0.19850367307662964,2.4259824752807617,-3.708590030670166
1715093611600566800,5.41756689453125,0.09542953968048096,2.8982744216918945,-3.57230806350708
1715093611610546200,5.427546142578125,0.01183384656906128,3.0670881271362305,-4.045788764953613
1715093611620494800,5.437494873046875,0.08487778902053833,2.938129425048828,-3.5702624320983887
1715093611630474000,5.447473876953125,0.12961500883102417,2.703886032104492,-3.4026143550872803
1715093611640453400,5.457453369140625,-0.25133633613586426,2.438261032104492,-3.053654670715332
1715093611650432500,5.4674326171875,-0.09156787395477295,2.5455360412597656,-2.506700038909912
1715093611660412000,5.477411865234375,0.6063617467880249,2.5364456176757812,-1.7521686553955078
1715093611670360600,5.487360595703125,1.2627357244491577,2.7583723068237305,-0.9218287467956543
1715093611680339700,5.497339599609375,1.9895565509796143,3.2286062240600586,-0.17264783382415771
1715093611690319000,5.507319091796875,2.3682172298431396,3.212268829345703,0.6442197561264038
1715093611700267800,5.517267822265625,2.5607900619506836,2.993734359741211,1.7151291370391846
1715093611710247200,5.5272470703125,2.5667765140533447,2.477588653564453,2.7915897369384766
1715093611720226300,5.537226318359375,2.4383625984191895,1.3219270706176758,4.770421981811523
1715093611730175000,5.547175048828125,1.8532819747924805,0.47670555114746094,5.69673490524292
1715093611740154400,5.557154296875,0.682266354560852,0.9096174240112305,5.508384704589844
1715093611750133500,5.567133544921875,-0.9478711485862732,0.31499290466308594,6.4440484046936035
1715093611760082200,5.577082275390625,-3.083198070526123,-2.321955680847168,6.747013092041016
1715093611770061600,5.5870615234375,-4.122764587402344,-4.6160783767700195,3.693737030029297
1715093611780040700,5.597040771484375,-3.847444534301758,-6.060641288757324,-0.45036208629608154
1715093611789989400,5.6069892578125,-1.9816195964813232,-6.891861915588379,-4.574711799621582
1715093611799968800,5.61696875,3.5302910804748535,-9.546073913574219,-5.952482223510742
1715093611809948000,5.626947998046875,5.351831436157227,-10.695216178894043,-4.267354488372803
1715093611819896800,5.636896728515625,2.977799415588379,-7.448696136474609,-1.674824833869934
1715093611829876000,5.6468759765625,1.462180256843567,-5.100123405456543,0.5961825847625732
1715093611839855000,5.656855224609375,0.33704376220703125,-4.737448692321777,-0.4459493160247803
1715093611849804000,5.666803955078125,-2.4567387104034424,-3.9761781692504883,-2.0309865474700928
1715093611859783200,5.676783203125,-5.295591831207275,-2.360732078552246,-3.7050278186798096
1715093611869762600,5.686762451171875,-4.855162143707275,-2.9578371047973633,-4.0543928146362305
1715093611879711200,5.696711181640625,-3.302788019180298,-2.028177261352539,-2.888701915740967
1715093611889690400,5.7066904296875,-2.482628345489502,0.2998619079589844,-1.838218331336975
1715093611899669800,5.716669677734375,-1.7836167812347412,2.619190216064453,-0.2736215591430664
1715093611909649000,5.72664892578125,-0.4757998585700989,3.6520605087280273,1.6220858097076416
1715093611919628300,5.736628173828125,0.7754576802253723,3.7981414794921875,2.527019500732422
1715093611929577000,5.746576904296875,0.921061098575592,4.2347564697265625,1.0459011793136597
1715093611939556000,5.75655615234375,0.48428958654403687,4.9682722091674805,-0.359649658203125
1715093611949535500,5.766535400390625,0.32484662532806396,3.5828857421875,-0.12184321880340576
1715093611959514600,5.7765146484375,0.028145790100097656,1.0305004119873047,-1.5550472736358643
1715093611969463300,5.78646337890625,0.4300081729888916,-0.5298194885253906,-3.416797161102295
1715093611979442700,5.796442626953125,0.5769486427307129,-1.2581195831298828,-5.041141510009766
1715093611989421800,5.806421875,0.3807319402694702,-2.16732120513916,-7.007479667663574
1715093611999370500,5.81637060546875,-0.006696820259094238,-2.165011405944824,-6.515581130981445
1715093612009350000,5.826349853515625,-0.8012027740478516,-1.3544178009033203,-4.149908065795898
1715093612019329000,5.8363291015625,-0.48446738719940186,0.5607051849365234,-2.2270667552948
1715093612029277700,5.846277587890625,0.7273925542831421,2.414712905883789,-2.3355119228363037
1715093612039257000,5.856257080078125,1.8437368869781494,3.955641746520996,-3.7077620029449463
1715093612049236200,5.866236328125,2.313993453979492,5.059128761291504,-4.876328945159912
1715093612059185200,5.87618505859375,2.0439419746398926,5.529994964599609,-5.206739902496338
1715093612069164300,5.886164306640625,1.2678797245025635,5.273346900939941,-4.442519664764404
1715093612079143400,5.896143310546875,0.7008469104766846,4.7889404296875,-3.242689847946167
1715093612089092400,5.90609228515625,0.7489047050476074,3.5335302352905273,-0.9827935099601746
1715093612099071500,5.916071533203125,0.8933552503585815,1.8183317184448242,1.4840996265411377
1715093612109051000,5.92605078125,1.4210022687911987,-0.015824317932128906,3.7599573135375977
1715093612118999600,5.93599951171875,1.5660598278045654,-1.3659820556640625,5.350770473480225
1715093612128978700,5.945978759765625,1.3238918781280518,-2.06142520904541,5.689230442047119
1715093612138958000,5.9559580078125,0.7726322412490845,-1.467452049255371,4.448403835296631
1715093612148906800,5.96590673828125,0.11292290687561035,0.026650428771972656,3.5893044471740723
1715093612158886000,5.975885986328125,-0.3785991668701172,0.5958127975463867,2.715714693069458
1715093612168865300,5.985865234375,0.21522927284240723,0.8521738052368164,2.06862473487854
1715093612178814000,5.99581396484375,0.2886568307876587,0.7561540603637695,1.541646122932434
1715093612188793000,6.00579296875,0.18351531028747559,0.3576650619506836,1.2921849489212036
1715093612198772500,6.0157724609375,-0.33489394187927246,0.05689525604248047,1.2573235034942627
1715093612208751600,6.025751708984375,1.2099409103393555,-0.059348106384277344,1.47895085811615
1715093612218731000,6.03573095703125,1.0955440998077393,-0.24167823791503906,1.3508601188659668
1715093612228679700,6.0456796875,3.8929331302642822,0.19161605834960938,0.7565659284591675
1715093612238658800,6.055658935546875,6.037993431091309,0.7101850509643555,0.030377238988876343
1715093612248638200,6.06563818359375,6.609649658203125,1.5507211685180664,-0.7293181419372559
1715093612258617300,6.075617431640625,6.706838607788086,2.371354103088379,-0.9199492931365967
1715093612268566300,6.085566162109375,6.813185691833496,2.831449508666992,-0.8733857870101929
1715093612278545400,6.09554541015625,6.49468994140625,2.4391679763793945,-0.43438684940338135
1715093612288524500,6.105524658203125,5.498790740966797,1.0635871887207031,0.18585717678070068
1715093612298473500,6.115473388671875,3.6830079555511475,-0.71636962890625,1.9977161884307861
1715093612308452600,6.12545263671875,1.8942527770996094,-2.8777122497558594,2.924860715866089
1715093612318432000,6.135431884765625,0.8163330554962158,-5.243773460388184,1.628602385520935
1715093612328380700,6.145380615234375,1.608567237854004,-6.751136779785156,0.21544060111045837
1715093612338359800,6.15535986328125,3.2047765254974365,-6.607119560241699,0.000805199146270752
1715093612348339200,6.165339111328125,4.344697952270508,-4.657467842102051,0.8431491851806641
1715093612358288000,6.175287841796875,3.0177106857299805,-2.684375762939453,2.3005614280700684
1715093612368267000,6.18526708984375,1.7700223922729492,-1.2183570861816406,3.3233091831207275
1715093612378246400,6.195246337890625,1.5428504943847656,0.3052225112915039,4.299324989318848
1715093612388195000,6.205195068359375,0.34301435947418213,1.6907644271850586,4.461611270904541
1715093612398174200,6.21517431640625,-0.8974021673202515,2.5311384201049805,2.6480913162231445
1715093612408153600,6.225153564453125,-1.2370258569717407,2.2348690032958984,-0.24202358722686768
1715093612418102300,6.235102294921875,-1.7321865558624268,1.3007583618164062,-3.5177083015441895
1715093612428081400,6.245081298828125,-3.142773151397705,0.335906982421875,-6.617074012756348
1715093612438060800,6.255060791015625,-4.947579860687256,-0.7890195846557617,-9.029582977294922
1715093612448009500,6.265009521484375,-6.450693607330322,-2.4592342376708984,-11.13648509979248
1715093612457988900,6.27498876953125,-7.39487886428833,-5.217092514038086,-14.515314102172852
1715093612467968000,6.284968017578125,-6.9771342277526855,-8.737797737121582,-15.917283058166504
1715093612477947100,6.294947021484375,-5.934751033782959,-11.012395858764648,-12.88508129119873
1715093612487926500,6.304926513671875,-5.00559663772583,-10.298691749572754,-7.50186824798584
1715093612497875200,6.314875244140625,-5.085865020751953,-7.057170867919922,-0.6277769804000854
1715093612507854600,6.3248544921875,-6.313891887664795,-3.8443870544433594,6.102450370788574
1715093612517833700,6.334833740234375,-5.917543411254883,-2.557803153991699,7.4265055656433105
1715093612527812900,6.344812744140625,-6.542807579040527,-1.8142576217651367,7.908005237579346
1715093612537761800,6.35476171875,-5.765444278717041,0.2970151901245117,10.262468338012695
1715093612547741000,6.364740966796875,-3.7156405448913574,3.3409299850463867,11.669051170349121
1715093612557720300,6.37472021484375,-3.391235828399658,3.688098907470703,7.955790996551514
1715093612567669000,6.3846689453125,-2.5588746070861816,3.1634597778320312,5.506872653961182
1715093612577648000,6.394648193359375,-1.6631736755371094,2.3182668685913086,4.115532398223877
1715093612587627500,6.40462744140625,-1.0958772897720337,1.7523126602172852,2.390148639678955
1715093612597576200,6.414576171875,0.2499486207962036,1.3141813278198242,0.21923688054084778
1715093612607555300,6.424555419921875,1.0972912311553955,1.4702377319335938,-1.4133378267288208
1715093612617534700,6.43453466796875,0.8376593589782715,2.222200393676758,-2.074979782104492
1715093612627483400,6.4444833984375,0.38426220417022705,3.4021472930908203,-2.3227570056915283
1715093612637462500,6.454462646484375,0.24974024295806885,4.588794708251953,-2.490452766418457
1715093612647442000,6.46444189453125,-0.11503708362579346,5.018243789672852,-2.282226800918579
1715093612657390600,6.474390625,-0.17926466464996338,5.278143882751465,-1.8853089809417725
1715093612667370000,6.484369873046875,-0.17295408248901367,5.274287223815918,-1.8064130544662476
1715093612677351200,6.49435107421875,-0.5562463998794556,4.958146095275879,-1.5993366241455078
1715093612687299800,6.5042998046875,-0.8360546827316284,4.493988990783691,-1.6678168773651123
1715093612697279200,6.514279296875,-0.6505770683288574,4.240708351135254,-2.018491744995117
1715093612707258400,6.52425830078125,-0.5265309810638428,3.925480842590332,-2.4294633865356445
1715093612717207000,6.53420703125,0.4846975803375244,3.614668846130371,-2.2650532722473145
1715093612727186400,6.5441865234375,1.161512851715088,3.550722122192383,-2.0729949474334717
1715093612737165600,6.55416552734375,1.4016351699829102,3.0566482543945312,-1.4082775115966797
1715093612747114500,6.564114501953125,1.4352598190307617,1.9907293319702148,-0.9936827421188354
1715093612757093600,6.57409375,1.6049507856369019,0.7274141311645508,0.8982365727424622
1715093612767072800,6.58407275390625,1.622387409210205,0.9529485702514648,4.114241123199463
1715093612777052200,6.59405224609375,1.3807830810546875,-0.5274677276611328,5.183976173400879
1715093612787031300,6.60403125,0.7519862651824951,-2.315235137939453,6.480757713317871
1715093612796980200,6.613980224609375,-0.33995890617370605,-4.582974433898926,6.404578685760498
1715093612806959400,6.62395947265625,-3.536648750305176,-6.918132781982422,4.049274444580078
1715093612816938500,6.6339384765625,-4.0912933349609375,-7.05586051940918,-0.3212539553642273
1715093612826918000,6.64391796875,-1.016769289970398,-7.655794143676758,-5.340896129608154
1715093612836866600,6.653866455078125,4.0739030838012695,-7.391082763671875,-8.196062088012695
1715093612846845700,6.663845703125,9.16673755645752,-4.750351905822754,-7.462068557739258
1715093612856825000,6.6738251953125,8.049294471740723,0.5590333938598633,-5.3867692947387695
1715093612866773800,6.683773681640625,6.083664894104004,3.259031295776367,-1.546464443206787
1715093612876753200,6.693753173828125,2.4467597007751465,3.273784637451172,2.382253885269165
1715093612886732300,6.703732177734375,-2.993504047393799,1.5146493911743164,4.440946102142334
1715093612896681000,6.713680908203125,-5.22642707824707,-4.462174415588379,4.402945041656494
1715093612906660400,6.723660400390625,-8.542996406555176,-15.683989524841309,4.3815507888793945
1715093612916639500,6.733639404296875,-12.947257995605469,-20.176889419555664,2.409255266189575
1715093612926588200,6.743588134765625,-8.965034484863281,-14.301220893859863,-3.4933743476867676
1715093612936567600,6.753567626953125,-2.8833842277526855,-5.411172866821289,-6.746431350708008
1715093612946546700,6.763546630859375,-1.1613643169403076,0.11618709564208984,-3.6467103958129883
1715093612956495400,6.773495361328125,-0.39422211050987244,2.490795135498047,-0.38494253158569336
1715093612966474800,6.783474853515625,0.8291887044906616,3.436248779296875,1.3223061561584473
1715093612976454000,6.793453857421875,0.6865543723106384,4.057053565979004,1.7632038593292236
1715093612986402800,6.80340283203125,-0.5022149085998535,4.74201774597168,0.8883894681930542
1715093612996382000,6.8133818359375,-0.31915897130966187,5.574718475341797,-0.8255097270011902
1715093613006361000,6.823361083984375,1.1482187509536743,4.739662170410156,-0.5338938236236572
1715093613016310000,6.83331005859375,1.9141231775283813,2.089357376098633,-0.9596893787384033
1715093613026289200,6.8432890625,1.7717185020446777,0.24191951751708984,-3.08307147026062
1715093613036268500,6.8532685546875,0.4046550989151001,-1.2052459716796875,-5.172446250915527
1715093613046217200,6.86321728515625,-1.5104132890701294,-1.7516489028930664,-7.4558892250061035
1715093613056196400,6.8731962890625,-1.89063560962677,-1.1623172760009766,-8.733419418334961
1715093613066175700,6.88317578125,-0.03902280330657959,0.6996622085571289,-8.091443061828613
1715093613076155000,6.89315478515625,2.942523717880249,3.977100372314453,-5.848108768463135
1715093613086103600,6.903103515625,4.376102447509766,6.404630661010742,-4.844011306762695
1715093613096083000,6.9130830078125,5.915981292724609,8.1687593460083,-3.7698278427124023
1715093613106062000,6.92306201171875,6.0539045333862305,8.520609855651855,-2.783796548843384
1715093613116041500,6.93304150390625,4.59976863861084,7.195033073425293,-1.7998288869857788
1715093613125990100,6.942990234375,3.2812700271606445,5.024344444274902,-0.5104715824127197
1715093613135969300,6.95296923828125,2.148515224456787,2.536731719970703,1.9203910827636719
1715093613145948700,6.96294873046875,1.1805263757705688,0.098602294921875,4.095795154571533
1715093613155897300,6.9728974609375,-0.34639835357666016,-2.766921043395996,4.091956615447998
1715093613165876500,6.98287646484375,-1.8188005685806274,-4.687448501586914,3.8807713985443115
1715093613175855900,6.99285595703125,-3.783107280731201,-4.210963249206543,3.1360580921173096
1715093613185804500,7.002804443359375,-1.4988495111465454,-2.3602495193481445,3.27288818359375
1715093613195784000,7.012783935546875,0.17242968082427979,-1.1397514343261719,2.187687397003174
1715093613205763000,7.02276318359375,-0.23702895641326904,0.29245567321777344,2.468942165374756
1715093613215711700,7.032711669921875,-0.6747384071350098,1.4590835571289062,2.8543312549591064
1715093613225691100,7.042691162109375,-1.0825008153915405,1.8738994598388672,2.89754056930542
1715093613235670300,7.052670166015625,-1.1110016107559204,1.5641059875488281,2.931633710861206
1715093613245619000,7.062618896484375,0.07885634899139404,0.9457645416259766,3.3953359127044678
1715093613255598300,7.072598388671875,-0.1354527473449707,-0.20052051544189453,3.299791097640991
1715093613265577500,7.082577392578125,0.09053564071655273,-0.9131898880004883,3.3458964824676514
1715093613275526100,7.092526123046875,0.6161973476409912,-0.8700323104858398,2.9286513328552246
1715093613285505500,7.102505615234375,3.0686023235321045,-0.38700294494628906,2.1983723640441895
1715093613295484700,7.112484619140625,4.621088981628418,0.49133872985839844,1.46441650390625
1715093613305433300,7.122433349609375,5.852109909057617,1.5621681213378906,0.7229015827178955
1715093613315412700,7.132412841796875,6.711490631103516,2.621795654296875,0.4602382183074951
1715093613325392000,7.142391845703125,8.353541374206543,3.1766538619995117,1.196141004562378
1715093613335371300,7.152371337890625,6.788037300109863,3.2532272338867188,2.7173500061035156
1715093613345350400,7.162350341796875,4.274202823638916,2.9592838287353516,3.8132667541503906
1715093613355299000,7.172299072265625,2.1658809185028076,1.4163198471069336,4.1652021408081055
1715093613365278500,7.182278564453125,1.9627315998077393,-1.1855077743530273,3.526876211166382
1715093613375257600,7.192257568359375,2.7397916316986084,-4.2652435302734375,1.776890754699707
1715093613385237000,7.202237060546875,3.8696770668029785,-6.341650009155273,-0.41340529918670654
1715093613395185700,7.212185546875,4.830999374389648,-5.8589067459106445,-1.0653495788574219
1715093613405164800,7.222164794921875,5.371556282043457,-4.344651222229004,-0.13392847776412964
1715093613415144200,7.232144287109375,2.3677239418029785,-2.562821388244629,1.434311866760254
1715093613425092900,7.2420927734375,0.23277592658996582,-1.1185874938964844,2.499173164367676
1715093613435072300,7.252072265625,-0.9106307029724121,0.5982570648193359,2.6801464557647705
1715093613445051400,7.262051513671875,-2.0885136127471924,1.735586166381836,1.7793264389038086
1715093613455000000,7.272,-1.9008197784423828,2.565217971801758,0.2161266803741455
1715093613464979500,7.2819794921875,-1.084008812904358,2.702800750732422,-2.2587249279022217
1715093613474958600,7.29195849609375,-1.852752447128296,2.0268659591674805,-5.427401065826416
1715093613484907300,7.3019072265625,-3.099424362182617,0.8795013427734375,-8.475163459777832
1715093613494886700,7.31188671875,-4.143511772155762,-1.2289180755615234,-11.346342086791992
1715093613504865800,7.32186572265625,-4.606075286865234,-4.41220760345459,-13.426490783691406
1715093613514814500,7.331814453125,-4.671995162963867,-7.476888656616211,-13.963139533996582
1715093613524793900,7.3417939453125,-5.1678571701049805,-10.276323318481445,-12.4027681350708
1715093613534773000,7.35177294921875,-4.6691508293151855,-12.873454093933105,-8.578317642211914
1715093613544722000,7.361721923828125,-4.94563102722168,-13.369749069213867,-2.5057458877563477
1715093613554701000,7.371701171875,-7.221682071685791,-9.21289348602295,6.180310249328613
1715093613564680200,7.38168017578125,-9.901182174682617,-3.8225717544555664,10.482900619506836
1715093613574629000,7.391629150390625,-9.917032241821289,-3.0678043365478516,8.738716125488281
1715093613584608300,7.401608154296875,-7.967463493347168,0.028288841247558594,10.7548246383667
1715093613594587600,7.411587646484375,-4.713559150695801,2.4506826400756836,10.14136028289795
1715093613604536300,7.421536376953125,-3.5430760383605957,3.2361202239990234,6.966409206390381
1715093613614515500,7.431515380859375,-2.879683017730713,3.4640445709228516,5.954451560974121
1715093613624494800,7.441494873046875,-2.00026535987854,2.2620410919189453,4.849515914916992
1715093613634474000,7.451473876953125,-0.738355278968811,1.2972288131713867,2.8267123699188232
1715093613644453000,7.461453125,0.8752232789993286,0.9539813995361328,0.6556586027145386
1715093613654402000,7.471402099609375,1.902631402015686,1.3892230987548828,-0.5847539305686951
1715093613664381200,7.481381103515625,2.0117125511169434,2.0383567810058594,-1.4117859601974487
1715093613674360600,7.491360595703125,1.4912266731262207,3.4035463333129883,-1.787489891052246
1715093613684339700,7.501339599609375,0.7654284238815308,4.492620468139648,-2.2446675300598145
1715093613694288400,7.511288330078125,0.3862192630767822,5.4189910888671875,-2.5607094764709473
1715093613704267800,7.521267822265625,0.031212449073791504,5.966249465942383,-2.7458713054656982
1715093613714247000,7.531246826171875,-0.06409835815429688,5.816766738891602,-3.060652256011963
1715093613724195600,7.541195556640625,-0.3177140951156616,5.372333526611328,-2.8861794471740723
1715093613734175000,7.551175048828125,-0.7076284885406494,4.954813003540039,-2.957163095474243
1715093613744154000,7.561154052734375,-1.0037518739700317,4.72004508972168,-2.844170093536377
1715093613754102800,7.571102783203125,-1.04377281665802,4.424220085144043,-2.8283743858337402
1715093613764082200,7.581082275390625,-0.6925722360610962,3.8329782485961914,-2.5148167610168457
1715093613774061300,7.591061279296875,0.050104498863220215,3.3424901962280273,-2.070511817932129
1715093613784010200,7.60101025390625,0.847771406173706,2.987262725830078,-1.4415051937103271
1715093613793989400,7.6109892578125,1.3358807563781738,2.5010557174682617,-0.46911874413490295
1715093613803968500,7.620968505859375,1.4445680379867554,2.127460479736328,0.7260109186172485
1715093613813917400,7.63091748046875,1.720062017440796,1.6178550720214844,2.9906349182128906
1715093613823896600,7.640896484375,2.3306283950805664,2.274031639099121,6.70243501663208
1715093613833876000,7.6508759765625,1.4395031929016113,1.1752452850341797,7.260368347167969
1715093613843824600,7.66082470703125,-0.11282795667648315,-2.0058698654174805,6.310565948486328
1715093613853803800,7.6708037109375,-0.9239368438720703,-4.798356056213379,6.519251346588135
1715093613863783200,7.680783203125,-0.5260986685752869,-6.177135467529297,5.55406379699707
1715093613873731800,7.69073193359375,-1.2870557308197021,-7.066368103027344,-1.2639752626419067
1715093613883711000,7.7007109375,-1.117128849029541,-7.79068660736084,-7.86936616897583
1715093613893690400,7.7106904296875,3.8904857635498047,-8.653228759765625,-9.285630226135254
1715093613903669500,7.72066943359375,4.577113151550293,-6.693877220153809,-4.050140380859375
1715093613913618200,7.7306181640625,0.8716967105865479,-4.568946838378906,1.057852029800415
1715093613923597600,7.74059765625,-4.796843528747559,-9.587600708007812,0.005368232727050781
1715093613933576700,7.75057666015625,-4.823267936706543,-15.27228832244873,-0.9092832207679749
1715093613943556000,7.76055615234375,0.9902245998382568,-12.11562728881836,-0.5692539215087891
1715093613953535200,7.77053515625,-0.1411687135696411,-2.5292510986328125,-5.096718788146973
1715093613963484000,7.78048388671875,0.6845711469650269,3.413743019104004,-4.205962181091309
1715093613973463300,7.79046337890625,-1.6064887046813965,5.198572158813477,-2.4434680938720703
1715093613983442400,7.8004423828125,-4.560517311096191,4.532477378845215,0.8954185843467712
1715093613993391000,7.81039111328125,-5.957201957702637,2.466250419616699,3.438887596130371
1715093614003370500,7.82037060546875,-4.520308017730713,-2.231700897216797,3.2758960723876953
1715093614013349600,7.830349609375,-3.1159322261810303,-5.842232704162598,3.891005039215088
1715093614023298600,7.840298583984375,-3.589306592941284,-5.849252700805664,1.332123041152954
1715093614033277700,7.850277587890625,-3.6170897483825684,-4.881945610046387,-2.141442060470581
1715093614043256800,7.8602568359375,-1.6994540691375732,-2.4759578704833984,-4.158679008483887
1715093614053205800,7.870205810546875,0.042601343244314194,-0.18056106567382812,-5.545662879943848
1715093614063185000,7.880184814453125,2.0565247535705566,1.4062156677246094,-7.725432872772217
1715093614073164300,7.890164306640625,3.7178077697753906,2.9648237228393555,-8.760107040405273
1715093614083113000,7.900113037109375,3.3122591972351074,3.880496025085449,-9.109185218811035
1715093614093092000,7.910092041015625,2.261228561401367,4.675823211669922,-7.393577575683594
1715093614103071500,7.920071533203125,2.0930652618408203,5.152592658996582,-4.445676326751709
1715093614113020200,7.930020263671875,1.9838647842407227,5.082529067993164,-2.5754404067993164
1715093614122999300,7.939999267578125,1.864720106124878,4.047011375427246,-1.631530523300171
1715093614132978700,7.949978759765625,2.432595729827881,2.411947250366211,-1.1020687818527222
1715093614142927400,7.95992724609375,2.9208664894104004,0.9024877548217773,-1.0609098672866821
1715093614152906500,7.969906494140625,2.494720935821533,0.13365554809570312,-1.1805946826934814
1715093614162886000,7.979885986328125,1.4845117330551147,0.13637161254882812,-1.3752669095993042
1715093614172834600,7.98983447265625,0.738271951675415,0.6620979309082031,-1.449714183807373
1715093614182814000,7.99981396484375,0.22137796878814697,1.4542932510375977,-0.6347822546958923
1715093614192793000,8.00979296875,0.17574572563171387,2.030123710632324,-0.27238672971725464
1715093614202772200,8.019772216796875,-0.436265230178833,2.4608631134033203,0.27505117654800415
1715093614212751600,8.029751708984374,0.4610024690628052,2.711939811706543,0.8211987614631653
1715093614222700300,8.0397001953125,1.0604506731033325,2.632441520690918,1.1271483898162842
1715093614232679700,8.0496796875,1.2388896942138672,2.3620920181274414,1.3946034908294678
1715093614242658800,8.059658935546874,1.3847161531448364,1.9944524765014648,1.7210148572921753
1715093614252638000,8.069637939453125,1.1142966747283936,1.3860034942626953,1.7585798501968384
1715093614262587000,8.0795869140625,0.6621956825256348,0.5342273712158203,1.7273880243301392
1715093614272566000,8.08956591796875,0.1573563814163208,0.04890251159667969,1.2013798952102661
1715093614282545400,8.09954541015625,-0.5501935482025146,-0.3824186325073242,1.4845751523971558
1715093614292494000,8.109494140625,0.5571677684783936,-0.6400775909423828,2.2259585857391357
1715093614302473200,8.11947314453125,1.3432817459106445,-0.83709716796875,3.418288469314575
1715093614312452600,8.12945263671875,2.3901374340057373,-0.6418685913085938,4.229825973510742
1715093614322401300,8.1394013671875,2.5743532180786133,-0.12843036651611328,5.429965019226074
1715093614332380400,8.14938037109375,5.029616355895996,1.0812568664550781,6.048152923583984
1715093614342359800,8.15935986328125,5.558647155761719,2.0367002487182617,6.11891508102417
1715093614352308500,8.16930859375,5.769803524017334,3.261566162109375,5.802070617675781
1715093614362287600,8.17928759765625,5.976208686828613,3.9148178100585938,5.431225299835205
1715093614372267000,8.18926708984375,5.13762092590332,3.7796335220336914,5.013521671295166
1715093614382215700,8.199215576171875,3.3849122524261475,2.561821937561035,4.197449684143066
1715093614392194800,8.20919482421875,1.1039211750030518,0.40405941009521484,3.3318424224853516
1715093614402174200,8.21917431640625,0.07712578773498535,-2.7989978790283203,3.4505579471588135
1715093614412123000,8.229122802734375,0.9898772239685059,-5.797242164611816,2.5928726196289062
1715093614422102300,8.239102294921874,2.1401526927948,-7.413764953613281,1.2840898036956787
1715093614432081400,8.249081298828125,3.6673600673675537,-6.886938095092773,-0.19656693935394287
1715093614442030000,8.259030029296875,6.455223083496094,-4.289660453796387,-0.0024170875549316406
1715093614452009500,8.269009521484374,6.2992048263549805,-1.3315515518188477,0.6312832832336426
1715093614461988600,8.278988525390625,3.174530029296875,1.3852167129516602,1.5239149332046509
1715093614471968000,8.288968017578124,0.7116036415100098,2.997049331665039,1.5420666933059692
1715093614481916700,8.298916748046874,-0.753394365310669,3.576353073120117,0.5291082859039307
1715093614491895800,8.308895751953125,-1.564667820930481,3.5626049041748047,-0.5610618591308594
1715093614501875200,8.318875244140624,-0.85381019115448,3.3503284454345703,-1.918402075767517
1715093614511854300,8.328854248046875,-0.044194698333740234,2.842860221862793,-3.420475959777832
1715093614521833700,8.338833740234374,-0.17251944541931152,1.518167495727539,-6.0484209060668945
1715093614531782400,8.348782470703124,-1.1391441822052002,-0.5857934951782227,-9.09257698059082
1715093614541761500,8.358761474609375,-2.5606608390808105,-2.9017534255981445,-11.35285472869873
1715093614551741000,8.368740966796874,-3.4888370037078857,-5.900970458984375,-12.733536720275879
1715093614561689600,8.378689697265624,-4.021816730499268,-9.04766845703125,-12.872821807861328
1715093614571668700,8.388668701171875,-4.798909664154053,-12.41869831085205,-11.883700370788574
1715093614581648100,8.398648193359374,-4.121993541717529,-14.466476440429688,-6.826343059539795
1715093614591596800,8.4085966796875,-5.699167251586914,-14.145465850830078,1.0531775951385498
1715093614601576000,8.418575927734375,-8.913849830627441,-10.65058708190918,7.19034481048584
1715093614611555300,8.428555419921874,-9.916773796081543,-4.920133590698242,11.563922882080078
1715093614621504000,8.43850390625,-10.914510726928711,-2.6759376525878906,10.894237518310547
1715093614631483400,8.4484833984375,-8.45776081085205,-0.21132278442382812,11.22097396850586
1715093614641462500,8.458462646484374,-5.001117706298828,1.753347396850586,10.276517868041992
1715093614651411200,8.4684111328125,-1.9578077793121338,3.869011878967285,9.563211441040039
1715093614661390600,8.478390625,-0.707770586013794,4.335445404052734,6.056563377380371
1715093614671369700,8.48836962890625,-0.8514745235443115,3.2286033630371094,3.674717426300049
1715093614681318400,8.498318359375,-0.2519441843032837,1.9442167282104492,2.3978989124298096
1715093614691297800,8.5082978515625,0.9372051954269409,1.1506404876708984,-0.0018822550773620605
1715093614701277000,8.51827685546875,2.2938952445983887,1.2340126037597656,-1.225573182106018
1715093614711225600,8.5282255859375,2.4038195610046387,2.052302360534668,-1.675063967704773
1715093614721205000,8.538205078125,1.3109512329101562,3.37662410736084,-2.0118408203125
1715093614731184000,8.54818408203125,0.4185447692871094,4.519304275512695,-2.5263237953186035
1715093614741133000,8.558133056640624,-0.2915799617767334,5.147274971008301,-2.7168796062469482
1715093614751112200,8.5681123046875,-0.5835608243942261,5.360653877258301,-2.889241933822632
1715093614761091300,8.57809130859375,-0.7788741588592529,5.250151634216309,-2.685612678527832
1715093614771070700,8.58807080078125,-0.7915241718292236,5.010923385620117,-2.347630023956299
1715093614781049900,8.5980498046875,-0.38639605045318604,4.698763847351074,-2.188011884689331
1715093614790998500,8.60799853515625,-0.05586743354797363,4.39495849609375,-2.0070502758026123
1715093614800978000,8.61797802734375,0.6710986495018005,4.389796257019043,-1.4920719861984253
1715093614810957000,8.62795703125,1.2566020488739014,4.158750534057617,-1.6919193267822266
1715093614820936400,8.6379365234375,1.8057024478912354,4.0645599365234375,-1.1531568765640259
1715093614830885000,8.647885009765625,2.199659585952759,3.8864526748657227,-0.25003689527511597
1715093614840864300,8.6578642578125,2.3879799842834473,3.4571733474731445,0.9053277373313904
1715093614850843600,8.66784375,2.5210514068603516,2.90875244140625,2.6785783767700195
1715093614860792300,8.677792236328125,2.9961018562316895,3.5861215591430664,6.113341331481934
1715093614870771700,8.687771728515624,2.092226505279541,2.7453536987304688,6.922103404998779
1715093614880750800,8.697750732421875,0.7994391918182373,0.5503635406494141,6.447938442230225
1715093614890699500,8.707699462890625,-0.6490339636802673,-2.2227258682250977,5.588276386260986
1715093614900679000,8.717678955078124,-0.16064172983169556,-4.190451622009277,4.850604057312012
1715093614910658000,8.727657958984375,-0.28375065326690674,-4.947508811950684,-0.42181307077407837
1715093614920606700,8.737606689453125,-0.14006000757217407,-6.531622886657715,-8.915095329284668
1715093614930586000,8.747586181640624,3.760725498199463,-8.742323875427246,-12.21694564819336
1715093614940565200,8.757565185546875,3.2458386421203613,-3.9289379119873047,-5.798207759857178
1715093614950514000,8.767513916015625,1.9946666955947876,1.306260108947754,0.18209433555603027
1715093614960493300,8.777493408203124,-0.9567489624023438,-0.5221853256225586,1.2001558542251587
1715093614970472400,8.787472412109375,-0.14822125434875488,-9.65216064453125,0.9421392679214478
1715093614980421400,8.79742138671875,1.544166088104248,-15.071990013122559,-0.851710319519043
1715093614990400500,8.807400390625,-5.388442516326904,-14.143928527832031,-2.714228391647339
1715093615000379600,8.817379638671875,-7.2521443367004395,-8.792778968811035,-0.3966752290725708
1715093615010328600,8.82732861328125,-4.912878513336182,-0.17928028106689453,-5.218533515930176
1715093615020307700,8.8373076171875,-2.464561700820923,4.435521125793457,-4.030661106109619
1715093615030287000,8.847287109375,-4.343601226806641,3.3608627319335938,-0.5860866904258728
1715093615040235800,8.85723583984375,-2.509073495864868,-1.3410158157348633,1.5178773403167725
1715093615050215000,8.86721484375,-0.7046114802360535,-6.467764854431152,1.8169010877609253
1715093615060194300,8.8771943359375,-2.292855978012085,-7.885900497436523,1.5224237442016602
1715093615070173400,8.88717333984375,-4.58360481262207,-6.629101753234863,0.06644558906555176
1715093615080152800,8.89715283203125,-3.094977617263794,-3.5487823486328125,-1.926614761352539
1715093615090101500,8.9071015625,0.03432518243789673,-0.7256650924682617,-4.21810245513916
1715093615100080600,8.91708056640625,3.0083234310150146,0.49817943572998047,-6.787803649902344
1715093615110060000,8.92706005859375,4.6035027503967285,1.2360305786132812,-8.066569328308105
1715093615120039200,8.9370390625,4.217565059661865,2.282107353210449,-8.307416915893555
1715093615129987800,8.94698779296875,2.0308804512023926,3.051971435546875,-8.039053916931152
1715093615139967200,8.95696728515625,1.2926197052001953,4.146811485290527,-5.621426105499268
1715093615149946400,8.9669462890625,0.9423409104347229,5.265115737915039,-3.7497568130493164
1715093615159895000,8.97689501953125,0.48806989192962646,5.669378280639648,-2.9948952198028564
1715093615169874400,8.98687451171875,1.1111096143722534,5.498271942138672,-2.924140453338623
1715093615179853600,8.996853515625,2.4850711822509766,4.924080848693848,-3.1233768463134766
1715093615189802200,9.00680224609375,3.334157943725586,3.9463720321655273,-3.3877618312835693
1715093615199781600,9.01678173828125,3.1185965538024902,3.098447799682617,-3.5289764404296875
1715093615209760800,9.0267607421875,1.9363962411880493,1.886373519897461,-3.4517524242401123
1715093615219709700,9.036709716796874,1.2402962446212769,1.4175043106079102,-2.6052942276000977
1715093615229688800,9.046688720703125,0.5067436695098877,0.7485885620117188,-2.0642261505126953
1715093615239668000,9.05666796875,-0.6514462232589722,0.14330768585205078,-1.3063750267028809
1715093615249617000,9.066616943359374,-0.40809428691864014,0.30196666717529297,-0.1965755820274353
1715093615259596000,9.076595947265625,0.11282575130462646,0.7459650039672852,0.6444301605224609
1715093615269575400,9.086575439453124,0.4405813217163086,1.1256866455078125,1.803513526916504
1715093615279524000,9.096524169921874,0.18492770195007324,1.3847274780273438,3.312100648880005
1715093615289503200,9.106503173828125,0.3360459804534912,1.6915702819824219,4.0877861976623535
1715093615299482600,9.116482666015624,1.5572844743728638,2.4803762435913086,4.8839030265808105
1715093615309431300,9.126431396484374,1.4659125804901123,1.4602785110473633,3.4539403915405273
1715093615319410400,9.136410400390625,1.2894349098205566,0.6554718017578125,2.5438644886016846
1715093615329389800,9.146389892578124,1.3865220546722412,0.07002925872802734,2.698230266571045
1715093615339369000,9.156368896484375,1.464916706085205,-0.5531988143920898,2.9366798400878906
1715093615349348400,9.166348388671874,3.4822795391082764,-1.125199317932129,3.290095806121826
1715093615359297000,9.176297119140624,4.36993408203125,-1.572622299194336,3.599290370941162
1715093615369276200,9.186276123046875,4.215879917144775,-1.1204643249511719,3.8259057998657227
1715093615379255600,9.196255615234374,6.066239356994629,0.20837116241455078,4.444517135620117
1715093615389234700,9.206234619140625,5.193377494812012,1.864614486694336,5.312121391296387
1715093615399183400,9.216183349609375,4.49849796295166,3.7364187240600586,5.9069905281066895
1715093615409162800,9.226162841796874,3.4809927940368652,4.532697677612305,6.2902398109436035
1715093615419142000,9.236141845703125,2.526482343673706,3.5894622802734375,6.14896297454834
1715093615429090800,9.2460908203125,1.809885025024414,0.9577608108520508,5.0219950675964355
1715093615439070000,9.256070068359374,2.3565940856933594,-2.4875669479370117,3.4504265785217285
1715093615449049000,9.266049072265625,3.635312795639038,-5.8919830322265625,1.474603533744812
1715093615458998000,9.275998046875,5.405657768249512,-7.951503753662109,-0.6026750206947327
1715093615468977200,9.28597705078125,7.217735767364502,-8.250904083251953,-1.7016373872756958
1715093615478956500,9.29595654296875,8.41404914855957,-5.587558746337891,-1.2636950016021729
1715093615488905200,9.3059052734375,5.821060657501221,-3.087148666381836,-0.29608243703842163
1715093615498884400,9.31588427734375,1.6304128170013428,-0.13991928100585938,0.032461702823638916
1715093615508863700,9.32586376953125,0.530705451965332,2.0047607421875,0.8132909536361694
1715093615518812400,9.3358125,-0.994858980178833,4.01802921295166,2.2129533290863037
1715093615528791600,9.34579150390625,-3.1009864807128906,5.148368835449219,2.087876319885254
1715093615538771000,9.35577099609375,-3.267040729522705,5.421119689941406,0.3429473638534546
1715093615548719600,9.3657197265625,-2.1326904296875,5.1864423751831055,-1.8596216440200806
1715093615558698800,9.37569873046875,-2.0908398628234863,3.9098663330078125,-5.072932243347168
1715093615568678100,9.38567822265625,-3.0644941329956055,1.3214759826660156,-8.652480125427246
1715093615578626800,9.395626708984375,-4.261715412139893,-2.051558494567871,-10.781206130981445
1715093615588606000,9.40560595703125,-4.154256343841553,-5.8719072341918945,-12.492948532104492
1715093615598585300,9.41558544921875,-3.373110055923462,-9.93032455444336,-14.16989517211914
1715093615608534000,9.425533935546875,-2.5553033351898193,-14.082358360290527,-14.744132041931152
1715093615618513400,9.435513427734374,-2.747443914413452,-16.435077667236328,-11.133289337158203
1715093615628492500,9.445492431640625,-5.403258800506592,-13.925747871398926,-2.8527321815490723
1715093615638471700,9.4554716796875,-8.558208465576172,-6.801226615905762,6.625861644744873
1715093615648451000,9.465451171875,-9.934500694274902,-1.4485950469970703,8.843720436096191
1715093615658399700,9.475399658203125,-10.329267501831055,-0.08729839324951172,6.938848495483398
1715093615668379100,9.485379150390624,-8.234467506408691,1.9620389938354492,9.438314437866211
1715093615678358300,9.495358154296875,-4.655829906463623,2.6572141647338867,10.053854942321777
1715093615688337400,9.50533740234375,-2.101640224456787,2.587265968322754,7.9799699783325195
1715093615698286300,9.515286376953124,-1.4447555541992188,2.5273351669311523,5.767621994018555
1715093615708265500,9.525265380859375,-1.374969482421875,2.222506523132324,4.67298698425293
1715093615718244900,9.535244873046874,-0.2774316072463989,1.792353630065918,3.596282482147217
1715093615728193500,9.545193603515624,0.8479184508323669,1.3940048217773438,1.4128875732421875
1715093615738172700,9.555172607421875,2.3018269538879395,1.5676383972167969,-0.10604715347290039
1715093615748152000,9.565152099609374,2.6149404048919678,2.6105470657348633,-0.8750292062759399
1715093615758100700,9.575100830078124,1.9336154460906982,4.189501762390137,-1.525661587715149
1715093615768080000,9.585079833984375,1.030247449874878,5.477573394775391,-2.2236084938049316
1715093615778059300,9.595059326171874,0.3811718821525574,6.1130218505859375,-2.7920079231262207
1715093615788008000,9.605008056640624,0.07424730062484741,6.138768196105957,-3.0987167358398438
1715093615797987000,9.614987060546875,-0.031088590621948242,5.581121444702148,-3.2249481678009033
1715093615807966500,9.624966552734374,-0.005347907543182373,4.678966522216797,-3.439528226852417
1715093615817915100,9.6349150390625,-0.004458248615264893,3.7566165924072266,-3.645953416824341
1715093615827894500,9.64489453125,-0.21797055006027222,3.108494758605957,-3.3150835037231445
1715093615837873700,9.654873779296874,0.025830626487731934,2.7503890991210938,-2.8036904335021973
1715093615847822300,9.664822265625,0.16051828861236572,2.352212905883789,-2.7926483154296875
1715093615857801700,9.6748017578125,0.8375585675239563,2.0017013549804688,-2.273850440979004
1715093615867780900,9.68478076171875,1.8964763879776,1.7140636444091797,-1.5764386653900146
1715093615877729500,9.6947294921875,2.1158950328826904,1.4454498291015625,-0.2282475233078003
1715093615887709000,9.704708984375,1.8796979188919067,1.0717506408691406,1.3155936002731323
1715093615897688000,9.71468798828125,1.963101863861084,1.7329330444335938,5.113436222076416
1715093615907667500,9.72466748046875,1.8282458782196045,2.527069091796875,8.440004348754883
1715093615917616000,9.7346162109375,1.0864849090576172,1.0275144577026367,8.172051429748535
1715093615927595300,9.74459521484375,0.0720338225364685,-2.1973791122436523,6.962237358093262
1715093615937574700,9.75457470703125,0.6852121353149414,-4.872173309326172,7.84070348739624
1715093615947553800,9.7645537109375,1.477107048034668,-6.362495422363281,5.5525736808776855
1715093615957533200,9.774533203125,0.24432426691055298,-7.82756233215332,-4.889431953430176
1715093615967481900,9.78448193359375,-0.04888594150543213,-8.803647994995117,-9.758285522460938
1715093615977461000,9.7944609375,0.08916985988616943,-5.9230546951293945,-6.123232364654541
1715093615987440400,9.8044404296875,2.880277633666992,-0.4483041763305664,0.05360570549964905
1715093615997389000,9.81438916015625,0.7137737274169922,1.8088207244873047,2.472954273223877
1715093616007368200,9.8243681640625,-0.4773980379104614,1.0229225158691406,5.826501369476318
1715093616017347600,9.83434765625,1.1787056922912598,-3.1399002075195312,6.628201007843018
1715093616027296300,9.844296142578125,-3.0815038681030273,-6.107850074768066,2.6180100440979004
1715093616037275400,9.854275390625,-4.165003776550293,-12.325338363647461,-1.81642484664917
1715093616047254800,9.8642548828125,-6.40073299407959,-16.112911224365234,-0.7617635726928711
1715093616057203500,9.874203369140625,-7.090074062347412,-8.396621704101562,-5.418588161468506
1715093616067182800,9.884182861328124,-3.23767352104187,0.019845008850097656,-8.78091049194336
1715093616077162000,9.894161865234375,-2.9966437816619873,2.6539487838745117,-6.375589847564697
1715093616087110700,9.904110595703125,-1.4649029970169067,1.583242416381836,-2.069646120071411
1715093616097090000,9.914090087890624,0.8132080435752869,-2.066756248474121,0.054591357707977295
1715093616107069200,9.924069091796875,2.218470573425293,-4.266985893249512,0.04324078559875488
1715093616117017900,9.934017822265625,0.07726463675498962,-3.37640380859375,-1.312040090560913
1715093616126997200,9.943997314453124,-0.6729295253753662,-2.0131072998046875,-2.5552871227264404
1715093616136976400,9.953976318359375,1.0298840999603271,-0.9713010787963867,-5.1886515617370605
1715093616146925000,9.963925048828125,2.406275749206543,0.7260541915893555,-7.639869689941406
1715093616156904400,9.973904541015624,3.0518198013305664,1.8381986618041992,-8.582953453063965
1715093616166883600,9.983883544921875,3.455245018005371,3.0178089141845703,-7.496648788452148
1715093616176832500,9.99383251953125,2.557804584503174,3.1685962677001953,-5.97553014755249
1715093616186811600,10.003811767578124,1.675196886062622,2.8780689239501953,-5.329087257385254
1715093616196790800,10.013790771484375,1.3307687044143677,3.3908681869506836,-4.029565811157227
1715093616206770200,10.023770263671874,1.1618045568466187,4.083975791931152,-3.0331833362579346
1715093616216749300,10.033749267578125,1.8064358234405518,4.387455940246582,-2.841242551803589
1715093616226698200,10.0436982421875,2.487278461456299,4.002440452575684,-2.794853448867798
1715093616236677400,10.053677490234374,2.609020709991455,3.760242462158203,-2.2857837677001953
1715093616246656500,10.063656494140625,2.0525617599487305,3.5837907791137695,-1.829108476638794
1715093616256636000,10.073635986328124,1.0541151762008667,3.2164621353149414,-1.183302879333496
1715093616266584600,10.08358447265625,0.1736299991607666,2.69370174407959,-0.5142956972122192
1715093616276563700,10.093563720703125,-0.2794506549835205,2.0256452560424805,0.19768011569976807
1715093616286543000,10.103543212890624,-0.3870583772659302,1.4761009216308594,0.5311610698699951
1715093616296491800,10.11349169921875,-0.6668187379837036,0.8771343231201172,0.6614817380905151
1715093616306471200,10.12347119140625,-0.5642424821853638,0.7086095809936523,0.8395416736602783
1715093616316450300,10.1334501953125,-0.6754728555679321,0.5651044845581055,0.7264317274093628
1715093616326399000,10.14339892578125,-0.7915122509002686,0.6080303192138672,1.1278218030929565
1715093616336378400,10.15337841796875,-0.1426539421081543,0.3077421188354492,1.4275442361831665
1715093616346357500,10.163357421875,0.3475358486175537,0.09475994110107422,1.8150781393051147
1715093616356306200,10.17330615234375,0.45475125312805176,-0.04711723327636719,2.306206464767456
1715093616366285600,10.18328564453125,0.2955491542816162,-0.10229015350341797,3.381631374359131
1715093616376264700,10.1932646484375,1.3871476650238037,-0.5130653381347656,3.8032424449920654
1715093616386213400,10.20321337890625,2.8741660118103027,-0.5866804122924805,3.909661293029785
1715093616396192800,10.21319287109375,4.085083961486816,-0.09808921813964844,3.6568336486816406
1715093616406172000,10.223171875,4.433526039123535,0.7935581207275391,2.7889404296875
1715093616416120800,10.233120849609374,6.340966701507568,1.6813344955444336,1.63627290725708
1715093616426100000,10.243099853515625,6.4627532958984375,2.4655494689941406,0.9161498546600342
1715093616436079000,10.2530791015625,6.671987533569336,3.0702762603759766,0.7777884006500244
1715093616446028000,10.263028076171874,6.6607770919799805,3.2421226501464844,0.7223116159439087
1715093616456007200,10.273007080078125,5.678830623626709,2.4409008026123047,1.443565845489502
1715093616465986600,10.282986572265624,4.456419944763184,0.7925958633422852,2.537355661392212
1715093616475965700,10.292965576171875,3.3517932891845703,-1.3107566833496094,3.101980447769165
1715093616485914400,10.302914306640625,3.289207696914673,-3.593809127807617,2.395090103149414
1715093616495893800,10.312893798828124,3.385232925415039,-5.86268424987793,1.018326997756958
1715093616505873000,10.322872802734375,3.5078532695770264,-7.166651725769043,-0.3337116837501526
1715093616515852300,10.332852294921874,4.08914852142334,-6.958316802978516,-0.5957677960395813
1715093616525831400,10.34283154296875,5.115937232971191,-5.327322006225586,0.5129472613334656
1715093616535780000,10.352780029296875,3.2391366958618164,-3.278860092163086,2.0089962482452393
1715093616545759500,10.362759521484374,0.37055015563964844,-0.9342355728149414,3.525132894515991
1715093616555738600,10.372738525390625,-1.587705373764038,1.107710838317871,4.630787372589111
1715093616565687300,10.382687255859375,-1.9384896755218506,2.713385581970215,3.690080404281616
1715093616575666700,10.392666748046874,-2.002498149871826,4.221367835998535,2.123262405395508
1715093616585645800,10.402645751953125,-1.5113544464111328,4.925636291503906,0.3087906837463379
1715093616595594500,10.412594482421875,-0.7800266742706299,4.5515031814575195,-2.7281997203826904
1715093616605574000,10.422573974609374,-1.3770182132720947,3.0197200775146484,-6.678255081176758
1715093616615553000,10.432552978515625,-2.540447235107422,0.738224983215332,-10.24224853515625
1715093616625502000,10.442501953125,-3.231445789337158,-2.1855993270874023,-12.859688758850098
1715093616635481000,10.452481201171874,-3.335496425628662,-5.393011093139648,-14.229803085327148
1715093616645460200,10.462460205078125,-2.4927945137023926,-8.967550277709961,-15.356016159057617
1715093616655409200,10.4724091796875,-3.406263828277588,-11.005874633789062,-13.2139253616333
1715093616665388300,10.48238818359375,-4.088889122009277,-12.342093467712402,-6.683313846588135
1715093616675367400,10.492367431640625,-4.66469144821167,-12.313175201416016,0.22747588157653809
1715093616685316400,10.50231640625,-6.823071002960205,-10.007269859313965,5.383148670196533
1715093616695295500,10.51229541015625,-8.42855453491211,-3.9785032272338867,10.274361610412598
1715093616705275000,10.52227490234375,-12.077280044555664,-1.901113510131836,8.96610164642334
1715093616715223600,10.5322236328125,-8.203889846801758,0.7209262847900391,10.109081268310547
1715093616725202700,10.54220263671875,-4.942997455596924,2.567779541015625,10.201735496520996
1715093616735182000,10.55218212890625,-2.7601304054260254,3.3039684295654297,8.36123275756836
1715093616745130800,10.562130859375,-1.6866581439971924,2.5453062057495117,5.298166275024414
1715093616755110000,10.57210986328125,-1.283096194267273,1.783041000366211,3.2837412357330322
1715093616765089300,10.58208935546875,0.08898580074310303,1.1913938522338867,1.5186991691589355
1715093616775068400,10.592068359375,1.2418501377105713,0.8146762847900391,-0.14823293685913086
1715093616785047800,10.6020478515625,2.1869895458221436,0.8849277496337891,-1.5658007860183716
1715093616794996500,10.61199658203125,2.2233784198760986,2.1846771240234375,-1.9471940994262695
1715093616804975600,10.6219755859375,1.3093115091323853,3.701753616333008,-1.9281530380249023
1715093616814955000,10.631955078125,0.6112115979194641,5.013544082641602,-1.7469485998153687
1715093616824934100,10.64193408203125,-0.23573583364486694,5.786931991577148,-2.112926721572876
1715093616834882800,10.6518828125,-0.8536651134490967,5.7737226486206055,-2.105900287628174
1715093616844862200,10.6618623046875,-1.2797155380249023,5.461893081665039,-1.9202451705932617
1715093616854841300,10.67184130859375,-1.3992488384246826,5.067811965942383,-1.9684324264526367
1715093616864790300,10.681790283203124,-1.4402340650558472,4.604405403137207,-2.1711313724517822
1715093616874769400,10.691769287109375,-1.1631770133972168,4.241568565368652,-2.3585317134857178
1715093616884748500,10.70174853515625,-0.4546356201171875,3.685379981994629,-2.535349130630493
1715093616894697500,10.711697509765624,0.5984998941421509,3.3153486251831055,-2.4705092906951904
1715093616904676600,10.721676513671875,1.1551048755645752,2.5790605545043945,-1.9081515073776245
1715093616914656000,10.731656005859374,1.6314326524734497,2.069549560546875,-1.0839736461639404
1715093616924604700,10.741604736328124,1.6392394304275513,1.6624183654785156,-0.5031175017356873
1715093616934583800,10.751583740234375,2.0172455310821533,1.0183830261230469,1.7316900491714478
1715093616944563200,10.761563232421874,2.6732590198516846,1.2076940536499023,5.455741882324219
1715093616954512000,10.771511962890624,2.259415864944458,0.4970846176147461,7.11821985244751
1715093616964491000,10.781490966796875,1.2937308549880981,-1.5624370574951172,7.370756149291992
1715093616974470400,10.791470458984374,1.0864107608795166,-3.863642692565918,7.805689811706543
1715093616984419000,10.801419189453124,0.020606517791748047,-6.108166694641113,6.542929172515869
1715093616994398200,10.811398193359375,-1.596059799194336,-6.910605430603027,2.3919034004211426
1715093617004377600,10.821377685546874,-0.8155548572540283,-7.0213775634765625,-2.592209815979004
1715093617014326300,10.831326171875,1.5838061571121216,-7.240621566772461,-6.85274600982666
1715093617024305700,10.8413056640625,5.365992069244385,-5.529518127441406,-6.937346935272217
1715093617034284800,10.851284912109374,4.6067914962768555,-1.4445924758911133,-4.067310810089111
1715093617044264000,10.861263916015625,4.83186149597168,1.1743688583374023,-1.3321998119354248
1715093617054212900,10.871212890625,3.403991222381592,2.7599382400512695,1.4968661069869995
1715093617064192000,10.88119189453125,-1.1552592515945435,3.107541084289551,3.4930801391601562
1715093617074171100,10.891171142578125,-2.5096473693847656,-0.15005207061767578,5.433035373687744
1715093617084150500,10.901150634765624,-6.107544422149658,-9.450885772705078,3.1573309898376465
1715093617094129700,10.911129638671875,-11.407166481018066,-15.666598320007324,1.804817795753479
1715093617104078600,10.92107861328125,-10.767468452453613,-14.921754837036133,-2.0671322345733643
1715093617114057700,10.9310576171875,-6.622403621673584,-10.22812557220459,-9.516011238098145
1715093617124036900,10.941036865234375,-3.0967953205108643,-2.14157772064209,-8.529047966003418
1715093617133985800,10.95098583984375,-1.15704345703125,2.1098031997680664,-4.673895359039307
1715093617143965000,10.96096484375,1.8631798028945923,4.079296112060547,-2.166313648223877
1715093617153944300,10.9709443359375,3.3875441551208496,5.680968284606934,0.13683974742889404
1715093617163893000,10.98089306640625,2.4963622093200684,6.669075965881348,0.5838013887405396
1715093617173872000,10.9908720703125,1.1137738227844238,6.508050918579102,-1.288527488708496
1715093617183851500,11.0008515625,1.0714082717895508,5.768006324768066,-2.9221150875091553
1715093617193800200,11.01080029296875,1.6517422199249268,3.7254743576049805,-4.31907320022583
1715093617203779300,11.020779296875,2.588571071624756,1.759124755859375,-6.061075687408447
1715093617213758700,11.0307587890625,2.7662880420684814,0.4041461944580078,-6.054229259490967
1715093617223707400,11.040707275390625,0.9067107439041138,-1.1123943328857422,-4.23213529586792
1715093617233686500,11.0506865234375,-0.27340734004974365,-1.493729591369629,-2.699155330657959
1715093617243666000,11.060666015625,-1.6338016986846924,-0.591008186340332,-3.153825044631958
1715093617253614600,11.070614501953125,-1.3945643901824951,1.21539306640625,-3.4323697090148926
1715093617263594000,11.080593994140624,-0.2107861042022705,2.45526123046875,-3.086879014968872
1715093617273573000,11.090572998046875,1.7378950119018555,3.2388858795166016,-3.350118637084961
1715093617283521800,11.100521728515625,3.169711112976074,3.7709474563598633,-3.1777877807617188
1715093617293501200,11.110501220703124,3.338060140609741,3.991927146911621,-2.7121849060058594
1715093617303480300,11.120480224609375,2.198573589324951,3.6915245056152344,-1.913534164428711
1715093617313429000,11.130428955078125,0.9313875436782837,3.1048078536987305,-0.46971821784973145
1715093617323408400,11.140408447265624,0.017226696014404297,2.2009029388427734,1.098198413848877
1715093617333387500,11.150387451171875,-0.10955297946929932,1.329178810119629,2.1094446182250977
1715093617343367000,11.160366943359374,-0.4446074962615967,0.4097156524658203,2.6005988121032715
1715093617353346000,11.170345947265625,-1.0031311511993408,-0.8259706497192383,2.5085458755493164
1715093617363294700,11.180294677734375,-1.1330021619796753,-1.5640439987182617,2.46209979057312
1715093617373274000,11.190274169921874,-0.9521617889404297,-1.7847375869750977,2.616037368774414
1715093617383253200,11.200253173828125,-0.9454268217086792,-1.9220962524414062,2.6197919845581055
1715093617393232600,11.210232666015624,-0.6148103475570679,-1.9202985763549805,2.4048545360565186
1715093617403181300,11.220181396484374,-0.22615301609039307,-1.2932376861572266,2.231718063354492
1715093617413160400,11.230160400390625,-0.18673944473266602,-1.474604606628418,1.257620096206665
1715093617423139800,11.240139892578124,0.29314112663269043,-0.8651676177978516,0.7475353479385376
1715093617433088500,11.250088623046874,0.79884934425354,-0.3434715270996094,0.6320211887359619
1715093617443067600,11.260067626953125,3.5740292072296143,0.2122783660888672,0.6702862977981567
1715093617453047000,11.270047119140624,5.180366516113281,0.36928558349609375,1.058735966682434
1715093617462995700,11.27999560546875,7.795679569244385,1.1303033828735352,1.2302511930465698
1715093617472974800,11.289974853515625,10.526734352111816,1.9636764526367188,1.498262882232666
1715093617482954200,11.299954345703124,10.476151466369629,3.116225242614746,1.7132282257080078
1715093617492903000,11.30990283203125,8.506004333496094,3.632035255432129,1.5235456228256226
1715093617502882300,11.31988232421875,5.799023151397705,3.0236244201660156,1.6978623867034912
1715093617512861400,11.329861328125,3.986985683441162,1.5475282669067383,2.603536605834961
1715093617522810000,11.33981005859375,2.644125461578369,-0.9681282043457031,3.44248104095459
1715093617532789500,11.34978955078125,1.7636919021606445,-3.817728042602539,3.1426146030426025
1715093617542768600,11.3597685546875,1.244642972946167,-5.952912330627441,1.6058331727981567
1715093617552717300,11.36971728515625,1.957254409790039,-6.7457170486450195,0.6800350546836853
1715093617562696700,11.37969677734375,2.8824825286865234,-6.097247123718262,1.9978445768356323
1715093617572675800,11.38967578125,2.4317569732666016,-3.8919754028320312,4.040355205535889
1715093617582624500,11.39962451171875,1.2532129287719727,-1.3343305587768555,5.113432884216309
1715093617592604000,11.40960400390625,0.26816534996032715,1.404768943786621,5.1922407150268555
1715093617602583000,11.4195830078125,-0.9718635082244873,3.614211082458496,5.211925506591797
1715093617612532000,11.429531982421874,-1.3992011547088623,4.835651397705078,3.7697200775146484
1715093617622511000,11.439510986328125,-0.9085168838500977,5.220925331115723,1.2724924087524414
1715093617632490200,11.449490234375,-0.7012897729873657,4.686367988586426,-2.0981931686401367
1715093617642469600,11.4594697265625,-0.4732697010040283,2.838848114013672,-5.665805339813232
1715093617652448800,11.46944873046875,-1.5170104503631592,-0.017319679260253906,-8.575169563293457
1715093617662397700,11.479397705078124,-2.7402453422546387,-2.985245704650879,-10.52374267578125
1715093617672376800,11.489376953125,-3.674710750579834,-5.679931640625,-12.294310569763184
1715093617682356000,11.49935595703125,-4.351009368896484,-8.95205020904541,-14.717700958251953
1715093617692335400,11.50933544921875,-6.5475239753723145,-12.016322135925293,-13.383505821228027
1715093617702284000,11.519283935546875,-7.320060729980469,-13.342008590698242,-8.676076889038086
1715093617712263400,11.529263427734374,-7.616927146911621,-12.017498016357422,-1.7633382081985474
1715093617722242600,11.53924267578125,-8.966352462768555,-8.899670600891113,4.21875524520874
1715093617732191200,11.549191162109375,-9.237425804138184,-2.642575263977051,10.528346061706543
1715093617742170600,11.559170654296874,-8.583921432495117,0.5103960037231445,12.300500869750977
1715093617752149800,11.569149658203125,-5.047427654266357,2.2048749923706055,12.286295890808105
1715093617762098400,11.579098388671875,-3.428277015686035,3.3521623611450195,9.517596244812012
1715093617772077800,11.589077880859374,-2.6508421897888184,4.704014778137207,6.609793663024902
1715093617782057000,11.599056884765625,-2.1707959175109863,4.617433547973633,4.698363780975342
1715093617792005600,11.609005615234375,-1.7988554239273071,3.3686389923095703,2.0653958320617676
1715093617801985000,11.618985107421874,-1.1078020334243774,2.092312812805176,0.2566002905368805
1715093617811964200,11.628964111328125,-0.12216508388519287,1.093592643737793,-1.470671534538269
1715093617821913000,11.6389130859375,0.6051429510116577,0.6878337860107422,-2.914759397506714
1715093617831892200,11.648892333984374,0.7769477367401123,1.129805564880371,-3.4134206771850586
1715093617841871400,11.658871337890625,0.4987480640411377,2.2941970825195312,-3.1830577850341797
1715093617851820300,11.6688203125,0.28956305980682373,3.541536331176758,-2.648040294647217
1715093617861799400,11.67879931640625,0.14055490493774414,4.226893424987793,-2.212771415710449
1715093617871778600,11.688778564453125,-0.32178497314453125,3.994455337524414,-1.901881456375122
1715093617881727500,11.6987275390625,-0.7657599449157715,3.4738235473632812,-1.9985613822937012
1715093617891706600,11.70870654296875,-1.2866458892822266,3.097384452819824,-2.051604986190796
1715093617901686000,11.71868603515625,-1.519912600517273,2.820829391479492,-2.1228270530700684
1715093617911665200,11.7286650390625,-1.121923804283142,3.128662109375,-1.7832388877868652
1715093617921613800,11.73861376953125,-0.3403130769729614,2.2948007583618164,-1.43477201461792
1715093617931593200,11.74859326171875,0.8888837099075317,2.054532051086426,-0.9556668400764465
1715093617941572400,11.758572265625,1.8867137432098389,1.5047502517700195,0.012044370174407959
1715093617951551700,11.7685517578125,2.4842095375061035,1.07281494140625,1.7815098762512207
1715093617961531000,11.77853076171875,2.287904977798462,1.2285747528076172,4.331825256347656
1715093617971479600,11.7884794921875,1.7698997259140015,1.2996406555175781,6.445054054260254
1715093617981459000,11.798458984375,1.1014350652694702,0.6942882537841797,7.627250671386719
1715093617991438000,11.80843798828125,0.7445893287658691,-0.7746477127075195,7.744114398956299
1715093618001386800,11.81838671875,1.0154409408569336,-2.719296455383301,6.415050029754639
1715093618011366100,11.8283662109375,1.2254457473754883,-4.674274444580078,3.9092512130737305
1715093618021345300,11.83834521484375,0.13550817966461182,-6.482093811035156,0.9180266857147217
1715093618031294000,11.8482939453125,-1.8197505474090576,-8.350976943969727,-2.702854633331299
1715093618041273300,11.8582734375,-1.0147007703781128,-9.605735778808594,-5.994616985321045
1715093618051252500,11.86825244140625,1.5185903310775757,-8.068391799926758,-6.262022495269775
1715093618061201400,11.878201416015624,2.109189987182617,-2.2809696197509766,-4.277865409851074
1715093618071180500,11.8881806640625,2.0917654037475586,2.980095863342285,-0.7207929491996765
1715093618081159700,11.89815966796875,1.8816168308258057,4.595486640930176,2.150679588317871
1715093618091108600,11.908108642578124,0.6526893377304077,3.3470001220703125,3.6434457302093506
1715093618101087700,11.918087646484375,0.2772022485733032,0.6830005645751953,5.343825817108154
1715093618111067100,11.928067138671874,-2.4070544242858887,-4.640031814575195,2.3849563598632812
1715093618121015800,11.938015869140624,-7.734455108642578,-9.356781959533691,0.6829909086227417
1715093618130995000,11.947994873046875,-11.458244323730469,-11.439992904663086,-2.478785753250122
1715093618140974300,11.957974365234374,-8.648478507995605,-11.11622142791748,-8.717774391174316
1715093618150923000,11.967923095703124,-2.901486396789551,-5.957324981689453,-8.729381561279297
1715093618160902100,11.977902099609375,0.13906295597553253,0.5855541229248047,-3.8601737022399902
1715093618170881500,11.987881591796874,1.1452709436416626,3.2734718322753906,-1.5751969814300537
1715093618180830200,11.997830322265624,2.051980972290039,4.8814287185668945,0.6266070604324341
1715093618190809300,12.007809326171875,2.787548303604126,6.501952171325684,1.7997632026672363
1715093618200788700,12.017788818359374,2.42692232131958,6.755786895751953,0.32172536849975586
1715093618210768000,12.027767822265625,1.5040462017059326,5.251219749450684,-1.4637200832366943
1715093618220747300,12.037747314453124,1.7997766733169556,4.5656538009643555,-2.1348235607147217
1715093618230696000,12.047696044921874,1.5624442100524902,3.555448532104492,-3.3602676391601562
1715093618240675000,12.057675048828125,1.9547196626663208,1.5042505264282227,-4.03835916519165
1715093618250654500,12.067654541015624,2.6749231815338135,0.09909629821777344,-2.9925456047058105
1715093618260633600,12.077633544921875,1.320556879043579,-1.2790946960449219,-1.6504980325698853
1715093618270582300,12.087582275390625,-0.7841682434082031,-1.8165349960327148,-2.993790626525879
1715093618280561700,12.097561767578124,-1.9903087615966797,-0.8501396179199219,-3.8548014163970947
1715093618290540800,12.107540771484375,-1.0416224002838135,1.1068401336669922,-2.59061336517334
1715093618300489700,12.11748974609375,0.6048393249511719,2.1526880264282227,-2.3832967281341553
1715093618310468900,12.12746875,2.2418220043182373,2.6588001251220703,-2.2935025691986084
1715093618320448000,12.137447998046875,3.2265918254852295,2.9736719131469727,-1.9741168022155762
1715093618330397000,12.14739697265625,2.3333864212036133,2.8599376678466797,-1.5845370292663574
1715093618340376000,12.1573759765625,1.5136446952819824,2.504000663757324,-0.7145021557807922
1715093618350355500,12.16735546875,1.3383233547210693,2.3897485733032227,0.5777614712715149
1715093618360304000,12.17730419921875,0.8929135799407959,2.274639129638672,2.053168296813965
1715093618370283300,12.187283203125,-0.0594334602355957,1.7281818389892578,2.584988594055176
1715093618380262700,12.1972626953125,-0.8584717512130737,0.752568244934082,2.7140884399414062
1715093618390211300,12.20721142578125,-1.1849690675735474,-0.3353395462036133,2.721256971359253
1715093618400190500,12.2171904296875,-0.8112643957138062,-1.0491676330566406,2.867753267288208
1715093618410169900,12.227169921875,-1.1073766946792603,-1.7089786529541016,3.0045783519744873
1715093618420118500,12.237118408203125,0.18781518936157227,-1.882868766784668,2.2107789516448975
1715093618430097700,12.24709765625,0.12081313133239746,-1.8617734909057617,1.709031105041504
1715093618440077000,12.2570771484375,0.7868726253509521,-1.6595258712768555,1.5033838748931885
1715093618450025700,12.267025634765625,1.448969841003418,-1.4337921142578125,1.191582441329956
1715093618460005000,12.277005126953124,2.425795316696167,-0.9992742538452148,0.9547664523124695
1715093618469984300,12.286984375,4.797815322875977,-0.18451881408691406,0.8240706920623779
1715093618479963400,12.29696337890625,7.082910537719727,0.9510345458984375,0.2581092119216919
1715093618489912300,12.306912353515624,10.108359336853027,1.9828376770019531,-0.4434114694595337
1715093618499891500,12.316891357421875,9.49336051940918,2.934046745300293,-0.5522334575653076
1715093618509870800,12.326870849609374,7.026766777038574,3.6876392364501953,-0.26384812593460083
1715093618519850000,12.33685009765625,4.470334053039551,3.2840805053710938,-0.06623369455337524
1715093618529829000,12.3468291015625,2.1341490745544434,1.3799591064453125,1.2424349784851074
1715093618539778000,12.356778076171874,1.5298399925231934,-1.5027837753295898,2.054576873779297
1715093618549757200,12.366757080078125,1.9618666172027588,-3.907486915588379,2.7582666873931885
1715093618559736300,12.376736328125,1.8248753547668457,-5.5706787109375,2.3963115215301514
1715093618569685200,12.386685302734374,3.125208854675293,-5.414392471313477,2.4235172271728516
1715093618579664400,12.396664306640625,4.060173511505127,-3.5649662017822266,3.862959623336792
1715093618589643800,12.406643798828124,4.55977201461792,-0.4514942169189453,4.443575382232666
1715093618599592400,12.416592529296874,3.1822104454040527,1.7423830032348633,3.476226806640625
1715093618609571600,12.426571533203125,1.6426658630371094,3.3275299072265625,2.499345541000366
1715093618619551000,12.436551025390624,0.5207216739654541,4.448880195617676,1.9971429109573364
1715093618629499600,12.446499755859374,-0.6520614624023438,4.748114585876465,1.0023030042648315
1715093618639478800,12.456478759765625,-1.3500690460205078,3.736337661743164,-1.217096209526062
1715093618649458200,12.466458251953124,-1.4801908731460571,1.9270820617675781,-4.1206207275390625
1715093618659406800,12.47640673828125,-1.9817121028900146,-0.37813758850097656,-7.2802042961120605
1715093618669386000,12.486385986328125,-2.9297006130218506,-3.002537727355957,-9.16399097442627
1715093618679365400,12.496365478515624,-4.1578898429870605,-5.187328338623047,-10.905793190002441
1715093618689314000,12.50631396484375,-4.751474857330322,-8.120039939880371,-13.96430778503418
1715093618699293400,12.51629345703125,-5.607306003570557,-12.012713432312012,-14.684846878051758
1715093618709272600,12.5262724609375,-5.830002307891846,-13.974199295043945,-11.138924598693848
1715093618719221200,12.53622119140625,-6.3479156494140625,-12.044879913330078,-4.917011260986328
1715093618729200600,12.54620068359375,-8.13918399810791,-7.994763374328613,0.8064875602722168
1715093618739179800,12.5561796875,-8.452585220336914,-4.472973823547363,7.086379051208496
1715093618749128400,12.56612841796875,-7.406769275665283,-2.2802038192749023,9.8187255859375
1715093618759107800,12.57610791015625,-5.480883598327637,-0.3856658935546875,13.641324996948242
1715093618769087000,12.5860869140625,-4.495150089263916,0.19850635528564453,13.087882995605469
1715093618779066400,12.59606640625,-4.04871940612793,1.7734737396240234,10.040523529052734
1715093618789045500,12.60604541015625,-4.1907148361206055,3.250197410583496,7.011429309844971
1715093618798994200,12.615994140625,-4.21864128112793,3.7774887084960938,4.595783233642578
1715093618808973600,12.6259736328125,-2.7295775413513184,3.47137451171875,2.32759952545166
1715093618818952700,12.63595263671875,-0.843686580657959,3.1673450469970703,0.08704151213169098
1715093618828932000,12.64593212890625,1.0306470394134521,2.9550981521606445,-1.8869850635528564
1715093618838880800,12.655880859375,1.9913389682769775,2.7837038040161133,-2.928156852722168
1715093618848860000,12.66585986328125,1.8186864852905273,3.0699453353881836,-3.523127555847168
1715093618858839300,12.67583935546875,1.1249796152114868,3.828091621398926,-3.558530330657959
1715093618868788000,12.6857880859375,0.843015193939209,4.45527458190918,-3.3583602905273438
1715093618878767000,12.69576708984375,0.7858456373214722,4.479323387145996,-3.478267192840576
1715093618888746500,12.70574658203125,0.5235589742660522,3.948493003845215,-3.5295889377593994
1715093618898695200,12.715695068359375,0.0489116907119751,3.269338607788086,-3.0056514739990234
1715093618908674600,12.725674560546874,-0.5313496589660645,2.6158180236816406,-2.810602903366089
1715093618918653700,12.73565380859375,-0.8950585126876831,2.3734655380249023,-2.462825298309326
1715093618928602400,12.745602294921875,-1.1224285364151,2.1977643966674805,-2.518927574157715
1715093618938581800,12.755581787109374,-0.6162912845611572,1.8610267639160156,-2.273289918899536
1715093618948561000,12.765560791015625,0.0980832576751709,1.5557832717895508,-1.3327711820602417
1715093618958509600,12.775509521484375,1.0434874296188354,1.4573898315429688,0.11110654473304749
1715093618968489000,12.785489013671874,1.3847020864486694,1.662491798400879,2.1396090984344482
1715093618978468000,12.795468017578125,1.2669107913970947,1.9552574157714844,4.394591331481934
1715093618988416800,12.805416748046875,0.9089041948318481,1.210397720336914,5.966338157653809
