time,seconds_elapsed,z,y,x
1715093606306271700,0.123271728515625,9.70751953125,4.0966949462890625,-5.315887451171875
1715093606316275700,0.133275634765625,10.291702270507812,3.4215240478515625,-4.1570892333984375
1715093606326254800,0.1432548828125,11.349945068359375,2.995361328125,-2.8187255859375
1715093606336264700,0.1532646484375,11.950881958007812,2.631439208984375,-1.88739013671875
1715093606346243800,0.163243896484375,12.195098876953125,2.303436279296875,-2.0262451171875
1715093606356223200,0.17322314453125,12.19989013671875,2.789459228515625,-2.177093505859375
1715093606366202400,0.183202392578125,11.263748168945312,3.08154296875,-2.031036376953125
1715093606376181500,0.193181396484375,10.598159790039062,3.5172882080078125,-1.3247528076171875
1715093606386161000,0.203160888671875,10.418594360351562,4.120635986328125,-0.46044921875
1715093606396140000,0.21314013671875,10.770538330078125,4.755096435546875,0.3918914794921875
1715093606406119400,0.223119384765625,11.1871337890625,4.9370574951171875,0.8827056884765625
1715093606416068000,0.233068115234375,11.132064819335938,4.6042633056640625,0.643280029296875
1715093606426047200,0.243047119140625,10.686752319335938,4.173309326171875,-0.1994781494140625
1715093606436026600,0.253026611328125,10.215087890625,3.7495269775390625,-0.879425048828125
1715093606446005800,0.263005859375,9.65484619140625,3.4789886474609375,-0.893798828125
1715093606455985200,0.272985107421875,10.052291870117188,3.7806549072265625,-0.180328369140625
1715093606465933800,0.282933837890625,9.841598510742188,3.974578857421875,-0.1635589599609375
1715093606475913000,0.292912841796875,8.9461669921875,3.64178466796875,-0.719024658203125
1715093606485892400,0.302892333984375,8.895889282226562,2.7870635986328125,-1.638397216796875
1715093606495871500,0.31287158203125,9.889480590820312,2.609893798828125,-2.4476318359375
1715093606505851000,0.322850830078125,10.6676025390625,2.578765869140625,-2.093292236328125
1715093606515799600,0.332799560546875,9.788925170898438,2.990570068359375,-0.1300506591796875
1715093606525778700,0.34277880859375,9.994827270507812,3.677703857421875,-0.8698577880859375
1715093606535758000,0.352758056640625,9.683578491210938,3.033660888671875,-1.760498046875
1715093606545737200,0.3627373046875,9.32684326171875,2.4398956298828125,-1.1020965576171875
1715093606555686000,0.372685791015625,9.108963012695312,3.1725311279296875,-1.511505126953125
1715093606565665300,0.382665283203125,8.99884033203125,3.0623931884765625,-0.9991455078125
1715093606575644400,0.39264453125,9.3052978515625,3.0408477783203125,-0.7812652587890625
1715093606585593300,0.40259326171875,9.757797241210938,2.863677978515625,-0.8506927490234375
1715093606595572500,0.412572509765625,8.716323852539062,3.4909515380859375,0.5618743896484375
1715093606605551600,0.422551513671875,9.422607421875,3.8596649169921875,0.468505859375
1715093606615500500,0.43250048828125,8.929397583007812,3.498138427734375,-0.5897369384765625
1715093606625479700,0.442479736328125,8.60858154296875,4.0224761962890625,0.315277099609375
1715093606635459000,0.452458984375,8.476898193359375,3.433502197265625,-0.276092529296875
1715093606645407700,0.46240771484375,8.18719482421875,3.45025634765625,-1.0446319580078125
1715093606655387000,0.472386962890625,8.352401733398438,3.2156219482421875,-1.2146148681640625
1715093606665366300,0.4823662109375,9.058685302734375,3.2682952880859375,-1.080535888671875
1715093606675315000,0.49231494140625,9.312469482421875,3.45025634765625,-0.6112823486328125
1715093606685294000,0.502294189453125,8.752227783203125,2.52130126953125,0.1165618896484375
1715093606695273500,0.5122734375,8.910247802734375,3.3736419677734375,-0.3479156494140625
1715093606705222100,0.52222216796875,9.4656982421875,3.8285369873046875,-0.762115478515625
1715093606715201300,0.532201171875,8.680404663085938,2.6338348388671875,1.3423919677734375
1715093606725180700,0.5421806640625,6.4873199462890625,0.191741943359375,3.415771484375
1715093606735143700,0.552143798828125,3.7603302001953125,2.4806060791015625,0.0327606201171875
1715093606745122800,0.562122802734375,3.24078369140625,4.06317138671875,-1.3678436279296875
1715093606755102200,0.572102294921875,5.6206207275390625,3.00732421875,-0.70465087890625
1715093606765081300,0.582081298828125,4.85687255859375,2.030487060546875,-0.7118377685546875
1715093606775060700,0.592060791015625,11.74737548828125,2.8876190185546875,-3.2065887451171875
1715093606785009400,0.602009521484375,16.562118530273438,3.7902374267578125,-3.043792724609375
1715093606794988500,0.611988525390625,17.390518188476562,3.826141357421875,-5.2392730712890625
1715093606804968000,0.621968017578125,13.904556274414062,1.257171630859375,-3.944000244140625
1715093606814947000,0.631947021484375,12.223831176757812,-2.0013427734375,-2.5601654052734375
1715093606824895700,0.641895751953125,9.973281860351562,-2.4969482421875,-2.35186767578125
1715093606834875100,0.651875244140625,7.7658233642578125,-1.247161865234375,-2.14117431640625
1715093606844854300,0.661854248046875,6.003692626953125,-1.5488433837890625,-1.89697265625
1715093606854803000,0.671802978515625,4.4809722900390625,-2.8967742919921875,-1.2936248779296875
1715093606864782300,0.6817822265625,6.0755157470703125,-2.06597900390625,0.7031402587890625
1715093606874761500,0.691761474609375,7.2175445556640625,1.01055908203125,5.3933868408203125
1715093606884710400,0.70171044921875,8.627731323242188,-2.365264892578125,3.57379150390625
1715093606894689500,0.711689453125,11.369094848632812,-5.5806732177734375,-0.60888671875
1715093606904668700,0.721668701171875,11.551055908203125,-3.62939453125,-1.956817626953125
1715093606914617600,0.73161767578125,10.25579833984375,-1.826568603515625,-2.093292236328125
1715093606924596700,0.7415966796875,8.836029052734375,-2.3580780029296875,-2.5146636962890625
1715093606934575900,0.751575927734375,6.269439697265625,-1.3860321044921875,-4.4683380126953125
1715093606944524800,0.76152490234375,6.2287445068359375,0.4790496826171875,-8.457077026367188
1715093606954504000,0.77150390625,10.844772338867188,-0.9790191650390625,-6.857757568359375
1715093606964483300,0.7814833984375,10.43536376953125,-5.5303955078125,-3.6854400634765625
1715093606974432000,0.791431884765625,8.876739501953125,-9.35394287109375,-1.3343353271484375
1715093606984411100,0.8014111328125,7.4593658447265625,-9.160003662109375,1.2322540283203125
1715093606994404400,0.811404296875,5.9055328369140625,-7.395477294921875,3.791656494140625
1715093607004353300,0.821353271484375,4.4690093994140625,-6.6532745361328125,5.05340576171875
1715093607014332400,0.83133251953125,3.7459564208984375,-6.1840057373046875,5.35028076171875
1715093607024311600,0.8413115234375,2.084381103515625,-4.9031219482421875,6.7006072998046875
1715093607034291000,0.851291015625,0.3485870361328125,-2.81536865234375,8.347824096679688
1715093607044239600,0.861239501953125,-1.2196197509765625,-2.1497802734375,9.528167724609375
1715093607054219000,0.871218994140625,-4.423065185546875,-1.9295196533203125,11.998977661132812
1715093607064198100,0.8811982421875,-4.2530670166015625,1.5157470703125,17.08905029296875
1715093607074177300,0.89117724609375,-3.5228424072265625,5.3560333251953125,21.06103515625
1715093607084156700,0.90115673828125,-0.8868255615234375,6.847625732421875,21.446502685546875
1715093607094105300,0.911105224609375,-1.1310272216796875,-0.3230133056640625,17.180038452148438
1715093607104084700,0.921084716796875,5.5966796875,-7.3667449951171875,7.5505523681640625
1715093607114064000,0.93106396484375,15.594863891601562,-9.243804931640625,1.593780517578125
1715093607123984400,0.940984375,18.4248046875,-11.30999755859375,-1.42291259765625
1715093607133963500,0.950963623046875,19.6697998046875,-9.296478271484375,0.3392181396484375
1715093607143942700,0.960942626953125,15.156723022460938,-5.990081787109375,1.5219573974609375
1715093607153891600,0.9708916015625,10.713088989257812,-6.844818115234375,-0.6424102783203125
1715093607163870700,0.98087060546875,11.139251708984375,-5.8607940673828125,-1.5904998779296875
1715093607173850000,0.99085009765625,13.681900024414062,-7.6037750244140625,-2.3063812255859375
1715093607183798800,1.000798828125,15.7935791015625,-8.017974853515625,-1.5162811279296875
1715093607193778000,1.01077783203125,16.033004760742188,-7.728271484375,-0.8506927490234375
1715093607203757300,1.02075732421875,14.414520263671875,-7.658843994140625,-1.18109130859375
1715093607213706000,1.0307060546875,11.888641357421875,-7.52716064453125,-0.52508544921875
1715093607223685000,1.04068505859375,12.525497436523438,-7.4457550048828125,1.5339202880859375
1715093607233664500,1.05066455078125,8.469711303710938,-7.850372314453125,3.3822479248046875
1715093607243613200,1.06061328125,11.902999877929688,-6.13134765625,5.778839111328125
1715093607253592300,1.07059228515625,12.345932006835938,-2.2527313232421875,22.250961303710938
1715093607263571700,1.08057177734375,7.440216064453125,-4.3787841796875,20.232635498046875
1715093607273520400,1.090520263671875,18.527755737304688,-7.342803955078125,-4.4994659423828125
1715093607283499800,1.100499755859375,18.537338256835938,-9.677154541015625,4.4859771728515625
1715093607293479000,1.11047900390625,17.9794921875,-8.707504272460938,13.385223388671875
1715093607303427600,1.120427490234375,17.553314208984375,-6.655670166015625,16.579086303710938
1715093607313407000,1.130406982421875,15.0010986328125,-4.0196533203125,15.966171264648438
1715093607323409400,1.140409423828125,14.055389404296875,-3.9119110107421875,11.948699951171875
1715093607333388800,1.150388916015625,8.49127197265625,-4.6038360595703125,8.888916015625
1715093607343337500,1.16033740234375,6.46337890625,-5.135345458984375,7.596038818359375
1715093607353316600,1.170316650390625,10.37310791015625,-4.1537322998046875,11.52972412109375
1715093607363296000,1.1802958984375,12.678726196289062,-4.86480712890625,16.085891723632812
1715093607373275100,1.190275146484375,10.92138671875,-4.632568359375,17.608596801757812
1715093607383223800,1.200223876953125,6.90631103515625,-4.891143798828125,15.57830810546875
1715093607393203200,1.210203125,2.749969482421875,-3.993316650390625,13.63421630859375
1715093607403182300,1.220182373046875,-0.4319305419921875,-4.5727081298828125,12.686111450195312
1715093607413131000,1.230131103515625,-1.190887451171875,-4.2111968994140625,14.261505126953125
1715093607423110400,1.2401103515625,0.647857666015625,-6.5359649658203125,10.586410522460938
1715093607433089500,1.250089599609375,-2.6681060791015625,-10.625259399414062,5.661529541015625
1715093607443038500,1.26003857421875,-3.48931884765625,-13.366622924804688,1.457305908203125
1715093607453017600,1.270017578125,-1.856475830078125,-14.381759643554688,-0.0031585693359375
1715093607462996700,1.279996826171875,-0.209259033203125,-11.863052368164062,0.7198944091796875
1715093607472945700,1.289945556640625,0.7388458251953125,-9.827987670898438,-1.1092681884765625
1715093607482924800,1.2999248046875,0.848968505859375,-3.6892547607421875,-0.0414581298828125
1715093607492881400,1.30988134765625,2.180145263671875,-1.9989471435546875,0.442169189453125
1715093607502830300,1.319830322265625,-2.407135009765625,-5.58306884765625,-0.402984619140625
1715093607512809500,1.3298095703125,-5.4836883544921875,6.782989501953125,4.07177734375
1715093607522788600,1.33978857421875,0.3031005859375,-7.8048858642578125,4.0741729736328125
1715093607532737500,1.349737548828125,2.4195709228515625,-8.896636962890625,2.9321441650390625
1715093607542716700,1.359716552734375,-1.9187164306640625,-10.785675048828125,2.3934478759765625
1715093607552696000,1.369696044921875,-3.0032958984375,-13.701812744140625,1.6081390380859375
1715093607562644700,1.379644775390625,9.262191772460938,-14.149520874023438,0.863555908203125
1715093607572622300,1.389622314453125,9.53753662109375,-14.137557983398438,0.90185546875
1715093607582601700,1.399601806640625,10.854339599609375,-14.329086303710938,-0.2569427490234375
1715093607592550400,1.40955029296875,6.520843505859375,-12.7991943359375,-0.0845489501953125
1715093607602529500,1.419529541015625,4.5551910400390625,-10.404983520507812,0.906646728515625
1715093607612509000,1.429509033203125,1.165008544921875,-9.035507202148438,1.85235595703125
1715093607622488000,1.439488037109375,-2.77105712890625,-8.791305541992188,3.0853729248046875
1715093607632467500,1.449467529296875,-3.11822509765625,-9.780105590820312,3.738983154296875
1715093607642416000,1.459416015625,-1.9019622802734375,-10.709060668945312,2.228240966796875
1715093607652395300,1.469395263671875,-1.6002960205078125,-10.996353149414062,0.1069793701171875
1715093607662374700,1.479374755859375,-0.4654388427734375,-12.705825805664062,1.9768524169921875
1715093607672353800,1.489353759765625,0.4323883056640625,-13.845458984375,5.2090301513671875
1715093607682302500,1.499302490234375,2.067626953125,-15.0281982421875,11.410003662109375
1715093607692281900,1.50928173828125,3.92791748046875,-15.224517822265625,14.558380126953125
1715093607702261000,1.519260986328125,4.31817626953125,-14.75286865234375,12.765121459960938
1715093607712210000,1.5292099609375,1.7755279541015625,-12.4400634765625,8.970321655273438
1715093607722189000,1.53918896484375,1.4211883544921875,-11.281265258789062,9.446762084960938
1715093607732168200,1.549168212890625,1.4523162841796875,-10.455276489257812,8.52020263671875
1715093607742117000,1.5591171875,-0.0249176025390625,-9.200714111328125,7.5864715576171875
1715093607752096300,1.56909619140625,-2.00970458984375,-7.9629058837890625,7.39971923828125
1715093607762075400,1.579075439453125,-1.54522705078125,-7.5487060546875,7.6511077880859375
1715093607772044300,1.589044189453125,-1.518890380859375,-5.8967132568359375,10.035736083984375
1715093607782023400,1.5990234375,1.5839996337890625,-4.955780029296875,5.09649658203125
1715093607792002600,1.60900244140625,0.32464599609375,-5.8177032470703125,3.1380462646484375
1715093607801951500,1.618951416015625,1.2416229248046875,-5.04437255859375,2.798065185546875
1715093607811930600,1.6289306640625,0.90643310546875,-4.5511627197265625,0.959320068359375
1715093607821910000,1.638909912109375,1.2440185546875,-4.3045654296875,-1.2505340576171875
1715093607831858700,1.648858642578125,2.46026611328125,-4.6565093994140625,-4.5305938720703125
1715093607841837800,1.658837890625,2.7427825927734375,-3.89276123046875,3.415771484375
1715093607851817200,1.668817138671875,1.01177978515625,-3.2918243408203125,2.829193115234375
1715093607861766000,1.678765869140625,0.097198486328125,-3.708404541015625,0.0423431396484375
1715093607871745000,1.6887451171875,-1.169342041015625,-4.352447509765625,-2.600860595703125
1715093607881724400,1.698724365234375,-1.3297576904296875,-5.1999969482421875,-1.353485107421875
1715093607891703600,1.70870361328125,-1.107086181640625,-7.268585205078125,-1.0111083984375
1715093607901652200,1.71865234375,-0.6497955322265625,-7.0004425048828125,-2.4141082763671875
1715093607911631600,1.728631591796875,-0.6450042724609375,-10.04107666015625,-4.8681640625
1715093607921610800,1.73861083984375,3.2814788818359375,-11.319580078125,4.699066162109375
1715093607931590100,1.748590087890625,5.32135009765625,-10.893402099609375,8.431625366210938
1715093607941569300,1.7585693359375,4.725189208984375,-11.757720947265625,5.048614501953125
1715093607951518000,1.76851806640625,2.3764801025390625,-13.22296142578125,7.9527740478515625
1715093607961497300,1.778497314453125,2.4722442626953125,-11.314788818359375,7.2440948486328125
1715093607971476500,1.7884765625,0.0181884765625,-12.332321166992188,5.5322418212890625
1715093607981425200,1.798425048828125,-1.26031494140625,-14.21417236328125,5.1204376220703125
1715093607991404500,1.808404541015625,-2.5507965087890625,-15.356201171875,6.8586273193359375
1715093608001383700,1.8183837890625,-3.8939361572265625,-15.93798828125,8.73089599609375
1715093608011332600,1.82833251953125,-2.6369781494140625,-15.983474731445312,6.348663330078125
1715093608021311700,1.838311767578125,-4.2578582763671875,-16.469497680664062,1.3064727783203125
1715093608031291000,1.848290771484375,-2.02166748046875,-14.470352172851562,-0.898590087890625
1715093608041239800,1.85823974609375,-3.0032958984375,-13.620407104492188,1.6129302978515625
1715093608051219000,1.868218994140625,-3.441436767578125,-13.86700439453125,2.0295257568359375
1715093608061198300,1.8781982421875,-2.1820831298828125,-13.227752685546875,1.076629638671875
1715093608071147000,1.88814697265625,0.118743896484375,-12.490341186523438,1.699127197265625
1715093608081126100,1.898126220703125,1.1817626953125,-12.784820556640625,3.49957275390625
1715093608091105500,1.90810546875,1.2559814453125,-10.290069580078125,0.4804840087890625
1715093608101054200,1.91805419921875,0.5496978759765625,-6.8855133056640625,-3.1467437744140625
1715093608111033300,1.928033447265625,-0.9442901611328125,-4.891143798828125,-4.430023193359375
1715093608121012700,1.9380126953125,-2.1796875,-4.5463714599609375,-2.3734130859375
1715093608130961400,1.94796142578125,-0.35052490234375,-5.674041748046875,-2.0549774169921875
1715093608140940500,1.9579404296875,1.4858245849609375,-7.2973175048828125,-3.9871063232421875
1715093608150920000,1.967919921875,1.3780975341796875,-6.4689178466796875,-3.08209228515625
1715093608160868600,1.97786865234375,-1.0975189208984375,-5.5615234375,-3.716552734375
1715093608170848000,1.987847900390625,-1.7056427001953125,-8.872695922851562,-1.4037628173828125
1715093608180827100,1.9978271484375,-3.494110107421875,-9.126480102539062,-0.486785888671875
1715093608190806300,2.00780615234375,-2.03125,-9.013961791992188,-3.2855987548828125
1715093608200785700,2.01778564453125,-0.6761322021484375,-9.8399658203125,-5.0070343017578125
1715093608210734300,2.027734375,0.6239166259765625,-10.170364379882812,-7.0037994384765625
1715093608220713700,2.037713623046875,-0.769500732421875,-9.911788940429688,-5.5289764404296875
1715093608230692900,2.04769287109375,-2.6992340087890625,-9.035507202148438,-2.5673370361328125
1715093608240672000,2.057672119140625,-1.5907135009765625,-8.281326293945312,-5.2129364013671875
1715093608250621000,2.067620849609375,-2.45263671875,-9.1217041015625,-7.0468902587890625
1715093608260600000,2.07760009765625,-3.1541290283203125,-9.964462280273438,-5.907257080078125
1715093608270579500,2.087579345703125,1.0572662353515625,-7.8623504638671875,-3.12518310546875
1715093608280529200,2.097529052734375,0.7819366455078125,-7.1967620849609375,-3.604034423828125
1715093608290508300,2.10750830078125,-0.25714111328125,-4.1106414794921875,-3.989501953125
1715093608300487400,2.1174873046875,-0.7599334716796875,13.398162841796875,5.1060791015625
1715093608310436400,2.127436279296875,-1.9881591796875,15.809127807617188,7.720550537109375
1715093608320415500,2.13741552734375,-3.3432769775390625,-0.653411865234375,0.810882568359375
1715093608330395000,2.147394775390625,0.1522674560546875,-6.2151336669921875,0.04473876953125
1715093608340343600,2.157343505859375,1.787506103515625,-6.52398681640625,0.5714569091796875
1715093608350322700,2.16732275390625,1.4834442138671875,-3.6246185302734375,0.399078369140625
1715093608360302000,2.177302001953125,0.5257568359375,-7.9365692138671875,-2.02386474609375
1715093608370250800,2.187250732421875,0.2743682861328125,-12.20782470703125,-3.1108245849609375
1715093608380230000,2.19722998046875,1.5049896240234375,-12.803985595703125,-4.56170654296875
1715093608390209300,2.207209228515625,-0.410369873046875,-16.8238525390625,-7.259979248046875
1715093608400158000,2.217157958984375,1.1937408447265625,-31.387771606445312,-15.876708984375
1715093608410137000,2.22713720703125,0.075653076171875,-27.94970703125,-6.3358154296875
1715093608420116500,2.237116455078125,-2.5460052490234375,-22.924270629882812,-2.1746978759765625
1715093608430065200,2.247065185546875,-2.18927001953125,-16.562881469726562,-4.32708740234375
1715093608440044500,2.25704443359375,-1.0185089111328125,-12.928482055664062,-4.7795867919921875
1715093608450023700,2.267023681640625,-0.2787017822265625,-11.05621337890625,-3.5848846435546875
1715093608459972400,2.276972412109375,0.0948028564453125,-9.313232421875,-2.706207275390625
1715093608469951700,2.28695166015625,-0.4438934326171875,-9.1336669921875,-2.737335205078125
1715093608479931000,2.296930908203125,-1.2148284912109375,-9.3443603515625,-2.6583251953125
1715093608489910300,2.30691015625,0.276763916015625,-9.29168701171875,-3.2065887451171875
1715093608499889400,2.316889404296875,0.2408447265625,-9.420974731445312,-3.8961181640625
1715093608509838000,2.326838134765625,-2.141387939453125,-9.617294311523438,-2.6942291259765625
1715093608519817500,2.3368173828125,-2.9889373779296875,-14.008270263671875,-6.1251220703125
1715093608529796600,2.346796630859375,3.0947418212890625,-13.07452392578125,-6.94873046875
1715093608539745300,2.356745361328125,0.477874755859375,-9.303665161132812,-4.8968963623046875
1715093608549724700,2.366724609375,-0.4917755126953125,-4.764251708984375,-3.5800933837890625
1715093608559703800,2.376703857421875,-0.6138763427734375,-4.0124664306640625,-2.907318115234375
1715093608569652500,2.386652587890625,-1.0879364013671875,-5.4753265380859375,-1.458831787109375
1715093608579631900,2.3966318359375,-1.5045318603515625,-8.23583984375,-1.1930694580078125
1715093608589611000,2.406611083984375,-1.506927490234375,-9.648422241210938,-1.693450927734375
1715093608599559700,2.4165595703125,-1.2363739013671875,-9.993194580078125,-1.55938720703125
1715093608609539000,2.4265390625,-0.9873809814453125,-10.225418090820312,-1.73895263671875
1715093608619518200,2.436518310546875,-1.1214599609375,-10.546249389648438,-2.0334320068359375
1715093608629467100,2.446467041015625,-1.4949493408203125,-10.816787719726562,-2.3063812255859375
1715093608639446300,2.4564462890625,-1.734375,-10.819183349609375,-2.325531005859375
1715093608649425400,2.46642529296875,-1.655364990234375,-10.527099609375,-2.0142822265625
1715093608659374300,2.476374267578125,-1.4183349609375,-10.079376220703125,-1.5354461669921875
1715093608669353500,2.486353515625,-1.1501922607421875,-9.689117431640625,-1.23138427734375
1715093608679332900,2.496332763671875,-0.9227294921875,-9.3443603515625,-1.142791748046875
1715093608689281500,2.506281494140625,-0.79583740234375,-9.066635131835938,-1.1284332275390625
1715093608699260700,2.5162607421875,-0.8556976318359375,-8.865524291992188,-1.1308135986328125
1715093608709240000,2.526239990234375,-0.989776611328125,-8.820022583007812,-1.207427978515625
1715093608719188700,2.536188720703125,-1.2100372314453125,-8.882278442382812,-1.2816619873046875
1715093608729168000,2.54616796875,-1.4566497802734375,-9.011566162109375,-1.3295440673828125
1715093608739147300,2.556147216796875,-1.60748291015625,-9.088180541992188,-1.4827728271484375
1715093608749126400,2.56612646484375,-1.624237060546875,-9.1025390625,-1.585723876953125
1715093608759075000,2.576074951171875,-1.4734039306640625,-9.052261352539062,-1.755706787109375
1715093608769054500,2.586054443359375,-1.243560791015625,-8.97564697265625,-1.8945770263671875
1715093608779033600,2.59603369140625,-0.9873809814453125,-8.934951782226562,-1.9544219970703125
1715093608789013000,2.606012939453125,-0.7599334716796875,-8.860733032226562,-1.9759674072265625
1715093608798992100,2.6159921875,-0.5851593017578125,-8.75299072265625,-1.997528076171875
1715093608808940800,2.62594091796875,-0.384033203125,-8.5830078125,-1.99273681640625
1715093608818920200,2.635920166015625,-0.3217926025390625,-8.331619262695312,-1.8778076171875
1715093608828899300,2.6458994140625,-0.384033203125,-8.099380493164062,-1.671905517578125
1715093608838848300,2.65584814453125,-0.621063232421875,-7.9581146240234375,-1.427703857421875
1715093608848827400,2.665827392578125,-0.96343994140625,-8.008392333984375,-1.2337646484375
1715093608858806500,2.675806640625,-1.1884918212890625,-8.312454223632812,-1.1403961181640625
1715093608868755500,2.68575537109375,-1.1501922607421875,-8.743408203125,-1.1978607177734375
1715093608878734600,2.695734619140625,-1.382415771484375,-9.188735961914062,-1.1284332275390625
1715093608888714000,2.7057138671875,-1.14300537109375,-9.571807861328125,-0.9177398681640625
1715093608898662700,2.71566259765625,-0.135040283203125,-9.818405151367188,-0.848297119140625
1715093608908641800,2.725641845703125,-0.0560302734375,-10.213455200195312,-0.814788818359375
1715093608918621200,2.73562109375,0.310272216796875,-10.649200439453125,-0.963226318359375
1715093608928569900,2.74556982421875,-0.0943450927734375,-11.178314208984375,-1.3630523681640625
1715093608938549000,2.755549072265625,0.5137786865234375,-11.527877807617188,-1.4755859375
1715093608948528400,2.7655283203125,1.366119384765625,-11.8582763671875,-1.3941802978515625
1715093608958477000,2.77547705078125,1.409210205078125,-12.43048095703125,-1.133209228515625
1715093608968456200,2.785456298828125,0.5592803955078125,-12.844680786132812,-0.88421630859375
1715093608978435600,2.795435546875,1.1051483154296875,-12.669906616210938,-0.3551025390625
1715093608988384300,2.80538427734375,1.3589324951171875,-12.428085327148438,0.320068359375
1715093608998363400,2.81536328125,1.1075439453125,-12.013900756835938,0.80609130859375
1715093609008342800,2.8253427734375,0.8872833251953125,-11.427322387695312,1.3663330078125
1715093609018291500,2.83529150390625,0.1857757568359375,-11.008331298828125,1.804473876953125
1715093609028270800,2.845270751953125,-1.2794647216796875,-10.723419189453125,1.7398223876953125
1715093609038250000,2.85525,-0.9921722412109375,-9.74658203125,1.5746307373046875
1715093609048229000,2.86522900390625,-2.0911102294921875,-9.08099365234375,0.504425048828125
1715093609058208500,2.87520849609375,-2.7878265380859375,-8.96368408203125,-1.4324951171875
1715093609068157200,2.8851572265625,-2.004913330078125,-8.67877197265625,-3.108428955078125
1715093609078136600,2.895136474609375,-1.317779541015625,-8.152053833007812,-4.1714630126953125
1715093609088115700,2.90511572265625,-0.7024688720703125,-7.3882904052734375,-5.59600830078125
1715093609098094800,2.9150947265625,-0.747955322265625,-6.655670166015625,-7.1402740478515625
1715093609108043800,2.925043701171875,-1.2579193115234375,-6.4952545166015625,-8.610305786132812
1715093609118023000,2.93502294921875,-1.8325347900390625,-6.8639678955078125,-9.848114013671875
1715093609128002300,2.945002197265625,-2.47418212890625,-7.596588134765625,-10.195266723632812
1715093609137951000,2.954950927734375,-3.146942138671875,-8.575820922851562,-9.848114013671875
1715093609147930000,2.96493017578125,-3.685638427734375,-9.32281494140625,-8.983795166015625
1715093609157909500,2.974909423828125,-4.011260986328125,-10.48638916015625,-8.351730346679688
1715093609167858200,2.984858154296875,-4.2458953857421875,-11.934890747070312,-7.619110107421875
1715093609177837300,2.99483740234375,-4.159698486328125,-12.600479125976562,-5.581634521484375
1715093609187816700,3.004816650390625,-3.7885894775390625,-12.497528076171875,-2.823516845703125
1715093609197765400,3.014765380859375,-3.30975341796875,-11.216629028320312,-1.2936248779296875
1715093609207744500,3.02474462890625,-4.32489013671875,-10.170364379882812,-0.096527099609375
1715093609217724000,3.034723876953125,-5.323272705078125,-10.934112548828125,-0.412567138671875
1715093609227672600,3.044672607421875,-4.842041015625,-11.676315307617188,0.810882568359375
1715093609237652000,3.05465185546875,-3.2259521484375,-11.053817749023438,2.5849761962890625
1715093609247631000,3.064631103515625,-2.7064208984375,-10.912567138671875,2.692718505859375
1715093609257579800,3.074579833984375,-2.036041259765625,-11.19268798828125,1.8332061767578125
1715093609267559200,3.08455908203125,-1.3991851806640625,-11.441680908203125,1.1364898681640625
1715093609277538300,3.094538330078125,-1.2627105712890625,-11.381820678710938,0.643280029296875
1715093609287487000,3.104487060546875,-1.9115447998046875,-11.089736938476562,0.7462310791015625
1715093609297466400,3.11446630859375,-1.6433868408203125,-10.668350219726562,0.2697906494140625
1715093609307445500,3.124445556640625,-0.5851593017578125,-9.866302490234375,0.41583251953125
1715093609317394200,3.134394287109375,0.6598358154296875,-8.863128662109375,0.31048583984375
1715093609327373600,3.14437353515625,1.1793670654296875,-8.156829833984375,-0.07977294921875
1715093609337352700,3.154352783203125,0.8968505859375,-7.543914794921875,-0.25933837890625
1715093609347332000,3.16433203125,0.53533935546875,-7.4290008544921875,-0.4700164794921875
1715093609357311200,3.174311279296875,0.3892822265625,-7.4409637451171875,-0.8076019287109375
1715093609367260000,3.184260009765625,0.044525146484375,-7.723480224609375,-0.88421630859375
1715093609377239300,3.1942392578125,-0.0536346435546875,-7.8791046142578125,-0.7261962890625
1715093609387218400,3.204218505859375,0.1857757568359375,-7.4242095947265625,-0.5442352294921875
1715093609397167000,3.2141669921875,0.3797149658203125,-6.935791015625,-0.8914031982421875
1715093609407146500,3.224146484375,0.564056396484375,-6.6820068359375,-0.95843505859375
1715093609417125600,3.234125732421875,1.3804931640625,-6.7011566162109375,-1.2218017578125
1715093609427105000,3.24410498046875,2.22802734375,-7.0124053955078125,-2.040618896484375
1715093609437053700,3.2540537109375,2.4411163330078125,-7.1392974853515625,-1.9759674072265625
1715093609447032800,3.26403271484375,2.623077392578125,-7.1129608154296875,-2.0430145263671875
1715093609457012200,3.27401220703125,2.7475738525390625,-7.163238525390625,-1.88739013671875
1715093609466961000,3.2839609375,2.7044830322265625,-7.098602294921875,-1.5737457275390625
1715093609476940300,3.293940185546875,2.6302642822265625,-7.1823883056640625,-1.1595458984375
1715093609486919400,3.30391943359375,2.7356109619140625,-7.42181396484375,-0.5538177490234375
1715093609496868000,3.3138681640625,2.9750213623046875,-7.71868896484375,0.1476898193359375
1715093609506847500,3.323847412109375,3.183319091796875,-7.9844512939453125,1.0191650390625
1715093609516826600,3.33382666015625,3.3437347412109375,-8.300491333007812,2.1300811767578125
1715093609526775300,3.343775390625,3.372467041015625,-8.999588012695312,3.4780120849609375
1715093609536754700,3.353754638671875,3.044464111328125,-9.780105590820312,4.5434417724609375
1715093609546733800,3.36373388671875,2.5440673828125,-10.460052490234375,4.4285125732421875
1715093609556682500,3.3736826171875,1.9622802734375,-10.77130126953125,2.9919891357421875
1715093609566662000,3.383661865234375,2.0604400634765625,-10.900588989257812,0.6720123291015625
1715093609576641000,3.39364111328125,2.35491943359375,-11.439285278320312,-2.7469024658203125
1715093609586590000,3.40358984375,3.9781951904296875,-12.078536987304688,-5.823455810546875
1715093609596569000,3.413569091796875,7.267822265625,-12.4400634765625,-7.1833648681640625
1715093609606548200,3.42354833984375,10.361129760742188,-12.152755737304688,-6.7140960693359375
1715093609616527600,3.433527587890625,8.481689453125,-11.70025634765625,-3.5393829345703125
1715093609626506800,3.4435068359375,3.1210784912109375,-11.106491088867188,-1.23138427734375
1715093609636455700,3.45345556640625,0.2336578369140625,-10.840728759765625,2.0223388671875
1715093609646434800,3.463434814453125,-1.8708343505859375,-12.830322265625,4.203460693359375
1715093609656414000,3.4734140625,-3.5419921875,-17.810256958007812,3.4708404541015625
1715093609666363000,3.48336279296875,-5.74945068359375,-23.4486083984375,1.256195068359375
1715093609676342000,3.493342041015625,-8.09576416015625,-25.9122314453125,-2.93365478515625
1715093609686321200,3.503321044921875,-6.0391387939453125,-23.73590087890625,-5.8737335205078125
1715093609696300500,3.513300537109375,-2.66571044921875,-16.732864379882812,-8.811416625976562
1715093609706249200,3.523249267578125,-0.8341522216796875,-9.624481201171875,-8.488204956054688
1715093609716228600,3.533228515625,-0.5444488525390625,-6.2462615966796875,-5.315887451171875
1715093609726207700,3.543207763671875,0.7388458251953125,-3.4139251708984375,-2.5888824462890625
1715093609736156400,3.553156494140625,0.8992462158203125,-2.3054046630859375,-0.8123931884765625
1715093609746135800,3.5631357421875,0.1690216064453125,-2.6214447021484375,-1.6838836669921875
1715093609756115000,3.573114990234375,-0.017730712890625,-2.8010101318359375,-2.8187255859375
1715093609766063600,3.583063720703125,0.2959136962890625,-3.55517578125,-2.220184326171875
1715093609776043000,3.59304296875,0.4754791259765625,-5.7219390869140625,-1.7533111572265625
1715093609786022100,3.603022216796875,0.4443511962890625,-9.097763061523438,-3.0485687255859375
1715093609795970800,3.612970703125,-0.17095947265625,-11.78643798828125,-5.0549163818359375
1715093609805950200,3.6229501953125,-1.43988037109375,-13.194229125976562,-6.8625335693359375
1715093609815929300,3.632929443359375,-2.8572540283203125,-13.584487915039062,-8.66058349609375
1715093609825878300,3.642878173828125,-1.9977264404296875,-11.963623046875,-8.265548706054688
1715093609835857400,3.652857421875,0.5449066162109375,-8.934951782226562,-6.086822509765625
1715093609845836500,3.66283642578125,2.38604736328125,-6.4425811767578125,-4.0301971435546875
1715093609855785500,3.672785400390625,3.384429931640625,-4.711578369140625,-2.7301483154296875
1715093609865764600,3.6827646484375,3.109100341796875,-3.6605224609375,-1.755706787109375
1715093609875744000,3.692743896484375,1.607940673828125,-4.0603485107421875,-1.3079986572265625
1715093609885692700,3.702692626953125,0.5760345458984375,-5.513641357421875,-1.1619415283203125
1715093609895671800,3.712671875,-0.822174072265625,-7.3547821044921875,-0.70465087890625
1715093609905651200,3.722651123046875,-0.7288055419921875,-8.867919921875,-0.04864501953125
1715093609915630300,3.73263037109375,-0.6497955322265625,-10.424148559570312,0.157257080078125
1715093609925609700,3.742609619140625,-0.525299072265625,-11.307601928710938,0.4804840087890625
1715093609935558400,3.752558349609375,-0.2164459228515625,-11.252532958984375,0.6504669189453125
1715093609945537500,3.76253759765625,-0.235595703125,-10.670745849609375,0.5762481689453125
1715093609955517000,3.772516845703125,-0.008148193359375,-9.971633911132812,0.765380859375
1715093609965496000,3.78249609375,-0.13983154296875,-9.485610961914062,0.9138336181640625
1715093609975444700,3.79244482421875,-0.6497955322265625,-9.131271362304688,1.2011260986328125
1715093609985424100,3.802424072265625,-1.43988037109375,-8.832000732421875,1.572235107421875
1715093609995403300,3.8124033203125,-2.0959014892578125,-8.60455322265625,1.9289703369140625
1715093610005352000,3.82235205078125,-2.5890960693359375,-8.585403442382812,2.058258056640625
1715093610015331300,3.832331298828125,-2.806976318359375,-8.79608154296875,1.8762969970703125
1715093610025310500,3.842310546875,-2.967376708984375,-9.337173461914062,1.9481201171875
1715093610035259400,3.85225927734375,-2.7375335693359375,-9.93572998046875,1.603363037109375
1715093610045238500,3.862238525390625,-1.2818603515625,-10.203872680664062,1.2418365478515625
1715093610055217700,3.8722177734375,-0.8245697021484375,-10.117691040039062,0.683990478515625
1715093610065166600,3.88216650390625,-0.4438934326171875,-9.614898681640625,0.6193389892578125
1715093610075145700,3.892145751953125,0.3581695556640625,-9.509552001953125,-0.0031585693359375
1715093610085124900,3.902124755859375,2.7643280029296875,-8.760177612304688,-0.5370635986328125
1715093610095073800,3.91207373046875,3.173736572265625,-8.283721923828125,-0.2784881591796875
1715093610105053000,3.922052978515625,3.6669464111328125,-7.9102325439453125,0.612152099609375
1715093610115032300,3.9320322265625,4.94305419921875,-7.5558929443359375,0.389495849609375
1715093610124981000,3.94198095703125,4.6126556396484375,-7.4002685546875,0.0375518798828125
1715093610134960000,3.951960205078125,1.3325958251953125,-8.520751953125,0.08782958984375
1715093610144939500,3.961939453125,-0.17095947265625,-10.438507080078125,0.1117706298828125
1715093610154888200,3.97188818359375,-1.1406097412109375,-13.131988525390625,-0.3000335693359375
1715093610164867300,3.981867431640625,-1.382415771484375,-15.212554931640625,-1.058990478515625
1715093610174846700,3.9918466796875,-0.3792572021484375,-15.775192260742188,-1.6407928466796875
1715093610184825900,4.001825927734375,1.7396240234375,-14.925247192382812,-1.6360015869140625
1715093610194774500,4.0117744140625,1.66778564453125,-14.0250244140625,-0.180328369140625
1715093610204754000,4.02175390625,-0.9777984619140625,-13.287612915039062,1.12451171875
1715093610214733000,4.031733154296875,-3.3217315673828125,-11.839111328125,2.058258056640625
1715093610224712400,4.04171240234375,-2.153350830078125,-9.930938720703125,3.12127685546875
1715093610234661000,4.0516611328125,-2.6298065185546875,-8.750595092773438,2.4102020263671875
1715093610244640300,4.06164013671875,-1.78704833984375,-7.079437255859375,0.4182281494140625
1715093610254619600,4.07161962890625,-0.27630615234375,-5.863189697265625,-2.1220245361328125
1715093610264568300,4.081568359375,0.350982666015625,-5.492095947265625,-5.4499664306640625
1715093610274547700,4.091547607421875,0.23126220703125,-5.9350128173828125,-8.847335815429688
1715093610284526800,4.10152685546875,-0.642608642578125,-6.971710205078125,-11.569534301757812
1715093610294475500,4.1114755859375,-2.4957275390625,-8.427383422851562,-12.998886108398438
1715093610304455000,4.121454833984375,-4.2171630859375,-10.12725830078125,-14.066696166992188
1715093610314434000,4.13143408203125,-4.8923187255859375,-12.277252197265625,-13.973312377929688
1715093610324382700,4.1413828125,-5.6943817138671875,-14.408096313476562,-11.11224365234375
1715093610334362000,4.151362060546875,-5.8524017333984375,-16.151077270507812,-6.75958251953125
1715093610344341200,4.16134130859375,-4.899505615234375,-16.938766479492188,-2.4548187255859375
1715093610354290000,4.1712900390625,-4.10223388671875,-16.670623779296875,1.3950653076171875
1715093610364269300,4.181269287109375,-5.0718841552734375,-14.422454833984375,4.7445526123046875
1715093610374248400,4.19124853515625,-7.6719970703125,-13.304367065429688,5.2569122314453125
1715093610384197400,4.201197265625,-4.856414794921875,-10.314010620117188,7.8833465576171875
1715093610394176500,4.211176513671875,-3.0799102783203125,-7.9198150634765625,6.3726043701171875
1715093610404155600,4.22115576171875,-1.054412841796875,-6.7849578857421875,3.79644775390625
1715093610414104600,4.2311044921875,0.6191253662109375,-7.2278900146484375,0.8132781982421875
1715093610424083700,4.241083740234375,0.7986907958984375,-7.9724884033203125,-1.269683837890625
1715093610434063000,4.25106298828125,0.779541015625,-8.650039672851562,-2.50030517578125
1715093610444011800,4.26101171875,1.713287353515625,-8.824813842773438,-3.4124908447265625
1715093610453991000,4.270990966796875,2.1035308837890625,-8.705108642578125,-3.922454833984375
1715093610463970300,4.28097021484375,1.87847900390625,-8.43695068359375,-3.6183929443359375
1715093610473949400,4.290949462890625,1.3637237548828125,-8.005996704101562,-3.41009521484375
1715093610483928600,4.300928466796875,0.7771453857421875,-7.395477294921875,-2.8785858154296875
1715093610493877500,4.31087744140625,0.384490966796875,-7.268585205078125,-2.1746978759765625
1715093610503856600,4.320856689453125,0.3078765869140625,-7.627716064453125,-1.5928955078125
1715093610513836000,4.3308359375,0.3174591064453125,-8.046707153320312,-1.24334716796875
1715093610523815200,4.340815185546875,0.705322265625,-8.27655029296875,-1.6240234375
1715093610533763800,4.350763916015625,0.9998016357421875,-7.85516357421875,-1.49713134765625
1715093610543743200,4.3607431640625,1.6007537841796875,-7.1081695556640625,-1.7269744873046875
1715093610553722400,4.370722412109375,2.22564697265625,-6.825653076171875,-1.9017486572265625
1715093610563671000,4.380671142578125,2.6374359130859375,-6.6796112060546875,-1.66473388671875
1715093610573650400,4.390650390625,2.6158905029296875,-6.66046142578125,-1.2936248779296875
1715093610583629600,4.400629638671875,2.560821533203125,-6.80889892578125,-0.836334228515625
1715093610593578200,4.410578125,2.5464630126953125,-7.0818328857421875,-0.1444091796875
1715093610603557600,4.4205576171875,2.508148193359375,-7.39068603515625,0.865936279296875
1715093610613536800,4.430536865234375,2.4291534423828125,-7.7665863037109375,2.2569732666015625
1715093610623485700,4.440485595703125,2.5680084228515625,-8.027542114257812,4.1148681640625
1715093610633464800,4.45046484375,2.6685638427734375,-8.515960693359375,6.0709381103515625
1715093610643444000,4.46044384765625,2.47943115234375,-9.658004760742188,7.675048828125
1715093610653393000,4.470392822265625,2.022125244140625,-11.171142578125,8.400497436523438
1715093610663372000,4.4803720703125,1.2440185546875,-12.667510986328125,8.417251586914062
1715093610673351400,4.490351318359375,0.0804290771484375,-13.852645874023438,7.277618408203125
1715093610683300000,4.500300048828125,-0.86767578125,-14.915664672851562,4.79962158203125
1715093610693279200,4.510279296875,-1.7104339599609375,-16.026580810546875,1.7230682373046875
1715093610703258600,4.520258544921875,-1.602691650390625,-16.799911499023438,-1.375030517578125
1715093610713207300,4.530207275390625,1.19134521484375,-17.30029296875,-4.058929443359375
1715093610723186400,4.5401865234375,5.170501708984375,-16.41204833984375,-5.3182830810546875
1715093610733165800,4.550165771484375,4.387603759765625,-12.911712646484375,-3.97991943359375
1715093610743114500,4.560114501953125,2.041290283203125,-11.642791748046875,-2.9264678955078125
1715093610753093600,4.57009375,2.7260284423828125,-13.8765869140625,-1.5474090576171875
1715093610763073000,4.580072998046875,4.990936279296875,-14.319503784179688,-0.16595458984375
1715093610773052200,4.59005224609375,0.3222503662109375,-10.800033569335938,-1.205047607421875
1715093610783031600,4.600031494140625,-3.27862548828125,-9.021148681640625,-4.1092071533203125
1715093610792980200,4.609980224609375,-3.8723907470703125,-12.96917724609375,-5.2584228515625
1715093610802959400,4.61995947265625,-5.40228271484375,-15.988265991210938,-4.62396240234375
1715093610812938800,4.629938720703125,-3.958587646484375,-13.309158325195312,-3.572906494140625
1715093610822918000,4.63991796875,-2.352081298828125,-10.237396240234375,-1.777252197265625
1715093610832866800,4.64986669921875,-0.831756591796875,-8.99481201171875,1.28253173828125
1715093610842846000,4.659845947265625,-0.3577117919921875,-7.7306671142578125,3.4588623046875
1715093610852825000,4.6698251953125,0.0373382568359375,-6.0834503173828125,3.1907196044921875
1715093610862774000,4.67977392578125,0.171417236328125,-4.1656951904296875,1.4477386474609375
1715093610872753200,4.689753173828125,-0.113494873046875,-3.105072021484375,-0.4101715087890625
1715093610882732300,4.699732177734375,-0.048858642578125,-3.476165771484375,-0.845916748046875
1715093610892681200,4.70968115234375,0.6598358154296875,-4.9629669189453125,-1.5881195068359375
1715093610902660400,4.719660400390625,0.762786865234375,-6.7538299560546875,-3.192230224609375
1715093610912639700,4.7296396484375,0.5975799560546875,-8.9541015625,-6.019775390625
1715093610922588400,4.73958837890625,0.3581695556640625,-11.35308837890625,-8.133865356445312
1715093610932567600,4.749567626953125,-0.4151611328125,-13.002700805664062,-8.074005126953125
1715093610942547000,4.759546875,-1.2196197509765625,-12.667510986328125,-6.7763519287109375
1715093610952495600,4.76949560546875,-0.87005615234375,-9.945297241210938,-4.6957855224609375
1715093610962474800,4.779474853515625,0.489837646484375,-7.352386474609375,-2.971954345703125
1715093610972454100,4.7894541015625,1.4858245849609375,-5.7698211669921875,-2.45721435546875
1715093610982402800,4.79940283203125,2.1179046630859375,-4.71636962890625,-2.3111572265625
1715093610992382000,4.8093818359375,2.041290283203125,-4.2925872802734375,-2.5218505859375
1715093611002361300,4.819361328125,1.229644775390625,-4.7498931884765625,-2.303985595703125
1715093611012310000,4.82931005859375,0.394073486328125,-5.621368408203125,-1.4875640869140625
1715093611022289400,4.839289306640625,-0.18292236328125,-6.5335693359375,-0.5705718994140625
1715093611032268500,4.8492685546875,-0.747955322265625,-7.776153564453125,0.542724609375
1715093611042247700,4.85924755859375,-1.075958251953125,-9.198318481445312,1.409423828125
1715093611052196600,4.869196533203125,-1.2315826416015625,-10.304428100585938,1.8667144775390625
1715093611062175700,4.87917578125,-1.3943939208984375,-10.8670654296875,2.101348876953125
1715093611072155100,4.889155029296875,-2.174896240234375,-10.934112548828125,1.921783447265625
1715093611082134300,4.89913427734375,-1.7176055908203125,-10.74017333984375,1.5004119873046875
1715093611092113400,4.909113525390625,-2.019287109375,-10.4959716796875,1.2274627685546875
1715093611102062300,4.919062255859375,-2.194061279296875,-10.323593139648438,0.9928436279296875
1715093611112041500,4.92904150390625,-2.97216796875,-10.215850830078125,1.01678466796875
1715093611122020900,4.939020751953125,-1.18609619140625,-9.849533081054688,1.170013427734375
1715093611131969500,4.948969482421875,-2.4095306396484375,-10.00994873046875,1.13409423828125
1715093611141948700,4.95894873046875,-2.4023590087890625,-10.11529541015625,0.9138336181640625
1715093611151928000,4.968927978515625,-2.960205078125,-10.155990600585938,0.6360931396484375
1715093611161876700,4.978876708984375,0.86334228515625,-9.863906860351562,0.2003631591796875
1715093611171856000,4.98885595703125,3.8201751708984375,-9.646026611328125,-0.6519775390625
1715093611181835300,4.998835205078125,5.2136077880859375,-8.9229736328125,-0.8650665283203125
1715093611191784000,5.008783935546875,6.0539703369140625,-7.78094482421875,-1.312774658203125
1715093611201763000,5.01876318359375,6.822509765625,-6.3300628662109375,-1.545013427734375
1715093611211742500,5.028742431640625,5.2926177978515625,-5.4489898681640625,-1.7269744873046875
1715093611221691100,5.038691162109375,2.644622802734375,-6.0978240966796875,-1.9544219970703125
1715093611231670300,5.048670166015625,-0.13983154296875,-8.396255493164062,-1.5785369873046875
1715093611241649700,5.058649658203125,-1.138214111328125,-11.163955688476562,-1.025482177734375
1715093611251598300,5.068598388671875,-1.66015625,-13.819122314453125,-0.8961944580078125
1715093611261577700,5.07857763671875,-1.0831451416015625,-14.968338012695312,-0.5274810791015625
1715093611271556900,5.088556884765625,0.9830474853515625,-14.989883422851562,0.442169189453125
1715093611281505500,5.098505615234375,1.0668487548828125,-14.372177124023438,1.7661590576171875
1715093611291485000,5.10848486328125,0.6646270751953125,-12.732162475585938,4.01910400390625
1715093611301464000,5.118464111328125,-0.7599334716796875,-10.6875,4.8810272216796875
1715093611311412700,5.128412841796875,-1.4326934814453125,-9.085784912109375,4.3638763427734375
1715093611321392000,5.13839208984375,-1.8014068603515625,-8.559066772460938,3.2386016845703125
1715093611331371300,5.148371337890625,-2.0121002197265625,-9.14324951171875,1.5602569580078125
1715093611341350700,5.1583505859375,-2.4669952392578125,-11.080154418945312,0.7222900390625
1715093611351329800,5.168329833984375,-3.1493377685546875,-12.835098266601562,-7.1306915283203125
1715093611361278500,5.178278564453125,-3.3001708984375,-12.681869506835938,-9.386032104492188
1715093611371257900,5.1882578125,-4.784576416015625,-11.1519775390625,-10.544815063476562
1715093611381237000,5.198237060546875,-6.14208984375,-10.268524169921875,-13.808120727539062
1715093611391216400,5.20821630859375,-6.304901123046875,-10.170364379882812,-16.250198364257812
1715093611401165000,5.2181650390625,-6.15167236328125,-10.936508178710938,-14.74664306640625
1715093611411144200,5.228144287109375,-5.3783416748046875,-12.294021606445312,-10.554397583007812
1715093611421123600,5.23812353515625,-4.351226806640625,-13.965164184570312,-5.01422119140625
1715093611431072300,5.248072265625,-3.44622802734375,-14.453582763671875,-0.244964599609375
1715093611441051400,5.258051513671875,-2.1701202392578125,-12.562164306640625,5.1419830322265625
1715093611451030800,5.26803076171875,-1.7846527099609375,-10.445693969726562,9.48028564453125
1715093611460979500,5.2779794921875,-2.8740081787109375,-10.81439208984375,6.78680419921875
1715093611470958800,5.287958740234375,-3.324127197265625,-13.019454956054688,8.038970947265625
1715093611480938000,5.29793798828125,-3.41510009765625,-13.843063354492188,8.460357666015625
1715093611490886700,5.30788671875,-4.10223388671875,-11.34112548828125,6.363037109375
1715093611500866000,5.317865966796875,-3.6233978271484375,-9.30126953125,5.12762451171875
1715093611510845200,5.32784521484375,-2.1030731201171875,-8.132888793945312,3.5139312744140625
1715093611520793900,5.3377939453125,-0.1326446533203125,-7.8455963134765625,1.7685546875
1715093611530773200,5.347773193359375,1.6031494140625,-7.8791046142578125,-0.07977294921875
1715093611540752400,5.35775244140625,2.63983154296875,-8.037124633789062,-0.972808837890625
1715093611550701000,5.367701171875,2.7547607421875,-8.14007568359375,-1.5569915771484375
1715093611560680400,5.377680419921875,2.5321044921875,-7.9461517333984375,-1.9903411865234375
1715093611570659600,5.38765966796875,2.2352142333984375,-8.09698486328125,-2.210601806640625
1715093611580608500,5.3976083984375,1.7659454345703125,-7.4720916748046875,-2.464385986328125
1715093611590587600,5.407587646484375,1.16021728515625,-7.27337646484375,-2.56494140625
1715093611600566800,5.41756689453125,1.028533935546875,-6.787353515625,-2.3614349365234375
1715093611610546200,5.427546142578125,0.9184112548828125,-6.6053924560546875,-2.7828216552734375
1715093611620494800,5.437494873046875,0.96868896484375,-6.7227020263671875,-2.26806640625
1715093611630474000,5.447473876953125,0.995025634765625,-6.9477691650390625,-2.07891845703125
1715093611640453400,5.457453369140625,0.5880126953125,-7.2087249755859375,-1.7317657470703125
1715093611650432500,5.4674326171875,0.7077178955078125,-7.1009979248046875,-1.2098236083984375
1715093611660412000,5.477411865234375,1.356536865234375,-7.1129608154296875,-0.498748779296875
1715093611670360600,5.487360595703125,1.9622802734375,-6.8950958251953125,0.2745819091796875
1715093611680339700,5.497339599609375,2.644622802734375,-6.42822265625,0.9569244384765625
1715093611690319000,5.507319091796875,2.98699951171875,-6.4473724365234375,1.70391845703125
1715093611700267800,5.517267822265625,3.152191162109375,-6.6676483154296875,2.7118682861328125
1715093611710247200,5.5272470703125,3.1426239013671875,-7.184783935546875,3.7365875244140625
1715093611720226300,5.537226318359375,3.0157318115234375,-8.3411865234375,5.6878662109375
1715093611730175000,5.547175048828125,2.4459075927734375,-9.18634033203125,6.6096343994140625
1715093611740154400,5.557154296875,1.29669189453125,-8.750595092773438,6.42767333984375
1715093611750133500,5.567133544921875,-0.3170013427734375,-9.341964721679688,7.3925323486328125
1715093611760082200,5.577082275390625,-2.4574127197265625,-11.980377197265625,7.754058837890625
1715093611770061600,5.5870615234375,-3.525238037109375,-14.281204223632812,4.7660980224609375
1715093611780040700,5.597040771484375,-3.292999267578125,-15.73687744140625,0.674407958984375
1715093611789989400,5.6069892578125,-1.466217041015625,-16.58203125,-3.4172821044921875
1715093611799968800,5.61696875,4.0572052001953125,-19.25634765625,-4.7795867919921875
1715093611809948000,5.626947998046875,5.9127044677734375,-20.429519653320312,-3.0916748046875
1715093611819896800,5.636896728515625,3.5280914306640625,-17.202133178710938,-0.498748779296875
1715093611829876000,5.6468759765625,1.957489013671875,-14.867782592773438,1.7877044677734375
1715093611839855000,5.656855224609375,0.7508087158203125,-14.518234252929688,0.765380859375
1715093611849804000,5.666803955078125,-2.1509552001953125,-13.766448974609375,-0.7908477783203125
1715093611859783200,5.676783203125,-5.122161865234375,-12.152755737304688,-2.4188995361328125
1715093611869762600,5.686762451171875,-4.815704345703125,-12.748916625976562,-2.706207275390625
1715093611879711200,5.696711181640625,-3.398345947265625,-11.812774658203125,-1.4683990478515625
1715093611889690400,5.7066904296875,-2.723175048828125,-9.47125244140625,-0.3527069091796875
1715093611899669800,5.716669677734375,-2.1772918701171875,-7.132110595703125,1.265777587890625
1715093611909649000,5.72664892578125,-1.0185089111328125,-6.0762786865234375,3.2074737548828125
1715093611919628300,5.736628173828125,0.10198974609375,-5.9086761474609375,4.141204833984375
1715093611929577000,5.746576904296875,0.140289306640625,-5.4561767578125,2.64483642578125
1715093611939556000,5.75655615234375,-0.3864288330078125,-4.711578369140625,1.181976318359375
1715093611949535500,5.766535400390625,-0.621063232421875,-6.09063720703125,1.35675048828125
1715093611959514600,5.7765146484375,-0.9849853515625,-8.642852783203125,-0.1420135498046875
1715093611969463300,5.78646337890625,-0.64739990234375,-10.206268310546875,-2.0741424560546875
1715093611979442700,5.796442626953125,-0.568389892578125,-10.93890380859375,-3.77880859375
1715093611989421800,5.806421875,-0.8389434814453125,-11.855880737304688,-5.854583740234375
1715093611999370500,5.81637060546875,-1.3105926513671875,-11.860671997070312,-5.49066162109375
1715093612009350000,5.826349853515625,-2.2036285400390625,-11.051422119140625,-3.24969482421875
1715093612019329000,5.8363291015625,-1.9881591796875,-9.128875732421875,-1.4348907470703125
1715093612029277700,5.846277587890625,-0.862884521484375,-7.2613983154296875,-1.6360015869140625
1715093612039257000,5.856257080078125,0.192962646484375,-5.705169677734375,-3.0988616943359375
1715093612049236200,5.866236328125,0.631103515625,-4.5870819091796875,-4.3582000732421875
1715093612059185200,5.87618505859375,0.350982666015625,-4.10345458984375,-4.777191162109375
1715093612069164300,5.886164306640625,-0.4223480224609375,-4.3500518798828125,-4.1044158935546875
1715093612079143400,5.896143310546875,-0.980194091796875,-4.826507568359375,-3.003082275390625
1715093612089092400,5.90609228515625,-0.9227294921875,-6.0762786865234375,-0.84112548828125
1715093612099071500,5.916071533203125,-0.7742919921875,-7.7881317138671875,1.5387115478515625
1715093612109051000,5.92605078125,-0.24517822265625,-9.622085571289062,3.7437744140625
1715093612118999600,5.93599951171875,-0.0991363525390625,-10.974807739257812,5.280853271484375
1715093612128978700,5.945978759765625,-0.3433380126953125,-11.673919677734375,5.577728271484375
1715093612138958000,5.9559580078125,-0.9083709716796875,-11.080154418945312,4.2968292236328125
1715093612148906800,5.96590673828125,-1.602691650390625,-9.578994750976562,3.401397705078125
1715093612158886000,5.975885986328125,-2.1509552001953125,-8.997207641601562,2.4892120361328125
1715093612168865300,5.985865234375,-1.6266326904296875,-8.724258422851562,1.7996826171875
1715093612178814000,5.99581396484375,-1.633819580078125,-8.800872802734375,1.2274627685546875
1715093612188793000,6.00579296875,-1.834930419921875,-9.1767578125,0.9305877685546875
1715093612198772500,6.0157724609375,-2.4717864990234375,-9.44970703125,0.84918212890625
1715093612208751600,6.025751708984375,-1.0568084716796875,-9.53350830078125,1.0359344482421875
1715093612218731000,6.03573095703125,-1.31298828125,-9.679550170898438,0.8874969482421875
1715093612228679700,6.0456796875,1.3589324951171875,-9.210281372070312,0.2961273193359375
1715093612238658800,6.055658935546875,3.4131622314453125,-8.662017822265625,-0.402984619140625
1715093612248638200,6.06563818359375,3.932708740234375,-7.8000946044921875,-1.1188507080078125
1715093612258617300,6.075617431640625,4.016510009765625,-6.9669189453125,-1.2577056884765625
1715093612268566300,6.085566162109375,4.143402099609375,-6.50244140625,-1.1619415283203125
1715093612278545400,6.09554541015625,3.8680572509765625,-6.897491455078125,-0.6807098388671875
1715093612288524500,6.105524658203125,2.9223480224609375,-8.281326293945312,-0.0294952392578125
1715093612298473500,6.115473388671875,1.14825439453125,-10.072189331054688,1.7972869873046875
1715093612308452600,6.12545263671875,-0.6138763427734375,-12.246139526367188,2.70947265625
1715093612318432000,6.135431884765625,-1.6793060302734375,-14.625961303710938,1.3376007080078125
1715093612328380700,6.145380615234375,-0.87005615234375,-16.148681640625,-0.2066650390625
1715093612338359800,6.15535986328125,0.767578125,-16.02178955078125,-0.5753631591796875
1715093612348339200,6.165339111328125,1.979034423828125,-14.08966064453125,0.1285247802734375
1715093612358288000,6.175287841796875,0.7388458251953125,-12.13360595703125,1.4788665771484375
1715093612368267000,6.18526708984375,-0.407989501953125,-10.68511962890625,2.4197845458984375
1715093612378246400,6.195246337890625,-0.5061492919921875,-9.181549072265625,3.3343658447265625
1715093612388195000,6.205195068359375,-1.5428314208984375,-7.8192596435546875,3.4492950439453125
1715093612398174200,6.21517431640625,-2.5843048095703125,-7.005218505859375,1.5961761474609375
1715093612408153600,6.225153564453125,-2.692047119140625,-7.330841064453125,-1.3271484375
1715093612418102300,6.235102294921875,-2.9314727783203125,-8.295700073242188,-4.628753662109375
1715093612428081400,6.245081298828125,-4.075897216796875,-9.289291381835938,-7.75079345703125
1715093612438060800,6.255060791015625,-5.6201629638671875,-10.438507080078125,-10.188079833984375
1715093612448009500,6.265009521484375,-6.8795166015625,-12.128814697265625,-12.328506469726562
1715093612457988900,6.27498876953125,-7.60015869140625,-14.903701782226562,-15.773757934570312
1715093612467968000,6.284968017578125,-6.9776763916015625,-18.439926147460938,-17.279708862304688
1715093612477947100,6.294947021484375,-5.7398681640625,-20.728790283203125,-14.35638427734375
1715093612487926500,6.304926513671875,-4.6121978759765625,-20.024887084960938,-9.053237915039062
1715093612497875200,6.314875244140625,-4.4900970458984375,-16.785537719726562,-2.2082061767578125
1715093612507854600,6.3248544921875,-5.5291748046875,-13.572525024414062,4.5673828125
1715093612517833700,6.334833740234375,-4.9665374755859375,-12.286834716796875,5.9799652099609375
1715093612527812900,6.344812744140625,-5.4669342041015625,-11.544631958007812,6.5617523193359375
1715093612537761800,6.35476171875,-4.6169891357421875,-9.435333251953125,9.037353515625
1715093612547741000,6.364740966796875,-2.5292510986328125,-6.392303466796875,10.598373413085938
1715093612557720300,6.37472021484375,-2.1964569091796875,-6.04754638671875,7.0381927490234375
1715093612567669000,6.3846689453125,-1.3776397705078125,-6.57666015625,4.7349700927734375
1715093612577648000,6.394648193359375,-0.5109405517578125,-7.4290008544921875,3.4923858642578125
1715093612587627500,6.40462744140625,0.013397216796875,-8.00360107421875,1.921783447265625
1715093612597576200,6.414576171875,1.3206329345703125,-8.448928833007812,-0.096527099609375
1715093612607555300,6.424555419921875,2.1442413330078125,-8.295700073242188,-1.585723876953125
1715093612617534700,6.43453466796875,1.868896484375,-7.5415191650390625,-2.114837646484375
1715093612627483400,6.4444833984375,1.4044342041015625,-6.35400390625,-2.241729736328125
1715093612637462500,6.454462646484375,1.2679595947265625,-5.154510498046875,-2.3015899658203125
1715093612647442000,6.46444189453125,0.911224365234375,-4.7091827392578125,-1.999908447265625
1715093612657390600,6.474390625,0.86334228515625,-4.43145751953125,-1.523468017578125
1715093612667370000,6.484369873046875,0.8920745849609375,-4.4170989990234375,-1.386993408203125
1715093612677351200,6.49435107421875,0.530548095703125,-4.71636962890625,-1.142791748046875
1715093612687299800,6.5042998046875,0.2647857666015625,-5.166473388671875,-1.195465087890625
1715093612697279200,6.514279296875,0.456329345703125,-5.408294677734375,-1.5522003173828125
1715093612707258400,6.52425830078125,0.57843017578125,-5.714752197265625,-1.9903411865234375
1715093612717207000,6.53420703125,1.586395263671875,-6.0188140869140625,-1.873016357421875
1715093612727186400,6.5441865234375,2.263946533203125,-6.0762786865234375,-1.7437286376953125
1715093612737165600,6.55416552734375,2.508148193359375,-6.564697265625,-1.1499786376953125
1715093612747114500,6.564114501953125,2.5416717529296875,-7.627716064453125,-0.80999755859375
1715093612757093600,6.57409375,2.70208740234375,-8.891860961914062,1.0095977783203125
1715093612767072800,6.58407275390625,2.70208740234375,-8.666793823242188,4.1891021728515625
1715093612777052200,6.59405224609375,2.4411163330078125,-10.151199340820312,5.2521209716796875
1715093612787031300,6.60403125,1.794677734375,-11.946853637695312,6.571319580078125
1715093612796980200,6.613980224609375,0.6981353759765625,-14.22613525390625,6.5426025390625
1715093612806959400,6.62395947265625,-2.500518798828125,-16.577239990234375,4.2369842529296875
1715093612816938500,6.6339384765625,-3.051177978515625,-16.73046875,-0.1037139892578125
1715093612826918000,6.64391796875,0.0540924072265625,-17.345779418945312,-5.1291351318359375
1715093612836866600,6.653866455078125,5.2040252685546875,-17.094390869140625,-8.021331787109375
1715093612846845700,6.663845703125,10.363525390625,-14.460769653320312,-7.32940673828125
1715093612856825000,6.6738251953125,9.26458740234375,-9.150436401367188,-5.2871551513671875
1715093612866773800,6.683773681640625,7.2750091552734375,-6.4473724365234375,-1.4827728271484375
1715093612876753200,6.693753173828125,3.573577880859375,-6.433013916015625,2.407806396484375
1715093612886732300,6.703732177734375,-1.97857666015625,-8.199935913085938,4.45245361328125
1715093612896681000,6.713680908203125,-4.3201141357421875,-14.197402954101562,4.445281982421875
1715093612906660400,6.723660400390625,-7.731842041015625,-25.464523315429688,4.5075225830078125
1715093612916639500,6.733639404296875,-12.26885986328125,-30.013504028320312,2.661590576171875
1715093612926588200,6.743588134765625,-8.474044799804688,-24.1788330078125,-3.1036376953125
1715093612936567600,6.753567626953125,-2.6250152587890625,-15.305923461914062,-6.2615966796875
1715093612946546700,6.763546630859375,-1.1573638916015625,-9.7777099609375,-3.096466064453125
1715093612956495400,6.773495361328125,-0.630645751953125,-7.39068603515625,0.2219085693359375
1715093612966474800,6.783474853515625,0.3868865966796875,-6.4258270263671875,1.98883056640625
1715093612976454000,6.793453857421875,0.066070556640625,-5.7817840576171875,2.482025146484375
1715093612986402800,6.80340283203125,-1.2794647216796875,-5.0731048583984375,1.6201171875
1715093612996382000,6.8133818359375,-1.2315826416015625,-4.2183685302734375,-0.1444091796875
1715093613006361000,6.823361083984375,0.135498046875,-5.0371856689453125,0.05670166015625
1715093613016310000,6.83331005859375,0.8346099853515625,-7.680389404296875,-0.477203369140625
1715093613026289200,6.8432890625,0.64306640625,-9.526321411132812,-2.727752685546875
1715093613036268500,6.8532685546875,-0.769500732421875,-10.974807739257812,-4.956756591796875
1715093613046217200,6.86321728515625,-2.744720458984375,-11.52069091796875,-7.39166259765625
1715093613056196400,6.8731962890625,-3.20440673828125,-10.924530029296875,-8.820999145507812
1715093613066175700,6.88317578125,-1.435089111328125,-9.0474853515625,-8.322998046875
1715093613076155000,6.89315478515625,1.493011474609375,-5.7482757568359375,-6.1945648193359375
1715093613086103600,6.903103515625,2.9055938720703125,-3.296600341796875,-5.284759521484375
1715093613096083000,6.9130830078125,4.45703125,-1.5081329345703125,-4.2887725830078125
1715093613106062000,6.92306201171875,4.631805419921875,-1.1346435546875,-3.371795654296875
1715093613116041500,6.93304150390625,3.231201171875,-2.44427490234375,-2.4548187255859375
1715093613125990100,6.942990234375,1.988616943359375,-4.606231689453125,-1.24334716796875
1715093613135969300,6.95296923828125,0.9471282958984375,-7.0914154052734375,1.10296630859375
1715093613145948700,6.96294873046875,0.075653076171875,-9.53350830078125,3.209869384765625
1715093613155897300,6.9728974609375,-1.36566162109375,-12.408935546875,3.147613525390625
1715093613165876500,6.98287646484375,-2.7830352783203125,-14.341064453125,2.8842620849609375
1715093613175855900,6.99285595703125,-4.7606353759765625,-13.86700439453125,2.07501220703125
1715093613185804500,7.002804443359375,-2.534027099609375,-12.009109497070312,2.154022216796875
1715093613195784000,7.012783935546875,-0.9179534912109375,-10.778488159179688,1.01678466796875
1715093613205763000,7.02276318359375,-1.3848114013671875,-9.332382202148438,1.25140380859375
1715093613215711700,7.032711669921875,-1.8971710205078125,-8.147262573242188,1.59857177734375
1715093613225691100,7.042691162109375,-2.407135009765625,-7.7091217041015625,1.6081390380859375
1715093613235670300,7.052670166015625,-2.5627593994140625,-7.99163818359375,1.61053466796875
1715093613245619000,7.062618896484375,-1.51409912109375,-8.580612182617188,2.0510711669921875
1715093613255598300,7.072598388671875,-1.8852081298828125,-9.696304321289062,1.9385528564453125
1715093613265577500,7.082577392578125,-1.8277435302734375,-10.376266479492188,1.9768524169921875
1715093613275526100,7.092526123046875,-1.4781951904296875,-10.297256469726562,1.5650482177734375
1715093613285505500,7.102505615234375,0.805877685546875,-9.7777099609375,0.863555908203125
1715093613295484700,7.112484619140625,2.211273193359375,-8.865524291992188,0.18359375
1715093613305433300,7.122433349609375,3.331756591796875,-7.7665863037109375,-0.4891815185546875
1715093613315412700,7.132412841796875,4.124237060546875,-6.686798095703125,-0.6759185791015625
1715093613325392000,7.142391845703125,5.7523040771484375,-6.1241607666015625,0.1476898193359375
1715093613335371300,7.152371337890625,4.2056427001953125,-6.0499420166015625,1.7685546875
1715093613345350400,7.162350341796875,1.715667724609375,-6.349212646484375,2.968048095703125
1715093613355299000,7.172299072265625,-0.384033203125,-7.8958740234375,3.4037933349609375
1715093613365278500,7.182278564453125,-0.5923309326171875,-10.500762939453125,2.810028076171875
1715093613375257600,7.192257568359375,0.1786041259765625,-13.586883544921875,1.055084228515625
1715093613385237000,7.202237060546875,1.3182373046875,-15.67462158203125,-1.1930694580078125
1715093613395185700,7.212185546875,2.326202392578125,-15.207763671875,-1.9400634765625
1715093613405164800,7.222164794921875,2.960662841796875,-13.716171264648438,-1.1044769287109375
1715093613415144200,7.232144287109375,0.075653076171875,-11.958831787109375,0.37274169921875
1715093613425092900,7.2420927734375,-1.9187164306640625,-10.5390625,1.3471832275390625
1715093613435072300,7.252072265625,-2.8955535888671875,-8.846359252929688,1.445343017578125
1715093613445051400,7.262051513671875,-3.8819732666015625,-7.733062744140625,0.468505859375
1715093613455000000,7.272,-3.4701690673828125,-6.9286041259765625,-1.1571502685546875
1715093613464979500,7.2819794921875,-2.395172119140625,-6.8184814453125,-3.6734619140625
1715093613474958600,7.29195849609375,-2.8883819580078125,-7.522369384765625,-6.86492919921875
1715093613484907300,7.3019072265625,-3.853240966796875,-8.695526123046875,-9.9271240234375
1715093613494886700,7.31188671875,-4.6217803955078125,-10.826370239257812,-12.819320678710938
1715093613504865800,7.32186572265625,-4.8324737548828125,-14.029815673828125,-14.935791015625
1715093613514814500,7.331814453125,-4.676849365234375,-17.113540649414062,-15.522369384765625
1715093613524793900,7.3417939453125,-4.973724365234375,-19.9315185546875,-14.023590087890625
1715093613534773000,7.35177294921875,-4.265045166015625,-22.545989990234375,-10.26708984375
1715093613544722000,7.361721923828125,-4.2889862060546875,-23.053558349609375,-4.2432861328125
1715093613554701000,7.371701171875,-6.28814697265625,-18.897232055664062,4.4692230224609375
1715093613564680200,7.38168017578125,-8.725433349609375,-13.503082275390625,8.891311645507812
1715093613574629000,7.391629150390625,-8.565032958984375,-12.748916625976562,7.2919769287109375
1715093613584608300,7.401608154296875,-6.5179901123046875,-9.655609130859375,9.475494384765625
1715093613594587600,7.411587646484375,-3.2235565185546875,-7.237457275390625,9.034957885742188
1715093613604536300,7.421536376953125,-2.0551910400390625,-6.4569549560546875,6.0086822509765625
1715093613614515500,7.431515380859375,-1.4303131103515625,-6.2366790771484375,5.13720703125
1715093613624494800,7.441494873046875,-0.6186676025390625,-7.45294189453125,4.1843109130859375
1715093613634474000,7.451473876953125,0.564056396484375,-8.4345703125,2.324005126953125
1715093613644453000,7.461453125,2.1107177734375,-8.791305541992188,0.3128814697265625
1715093613654402000,7.471402099609375,3.0947418212890625,-8.36273193359375,-0.7764739990234375
1715093613664381200,7.481381103515625,3.17852783203125,-7.7139129638671875,-1.4636077880859375
1715093613674360600,7.491360595703125,2.644622802734375,-6.3420257568359375,-1.7102203369140625
1715093613684339700,7.501339599609375,1.914398193359375,-5.240692138671875,-2.050201416015625
1715093613694288400,7.511288330078125,1.5408935546875,-4.2973785400390625,-2.263275146484375
1715093613704267800,7.521267822265625,1.200927734375,-3.729949951171875,-2.359039306640625
1715093613714247000,7.531246826171875,1.1243133544921875,-3.8592376708984375,-2.60565185546875
1715093613724195600,7.541195556640625,0.8872833251953125,-4.2854156494140625,-2.3853759765625
1715093613734175000,7.551175048828125,0.5066070556640625,-4.6876373291015625,-2.4356536865234375
1715093613744154000,7.561154052734375,0.2073211669921875,-4.9102935791015625,-2.3231353759765625
1715093613754102800,7.571102783203125,0.149871826171875,-5.197601318359375,-2.3279266357421875
1715093613764082200,7.581082275390625,0.47308349609375,-5.7841796875,-2.0549774169921875
1715093613774061300,7.591061279296875,1.1841583251953125,-6.2725982666015625,-1.671905517578125
1715093613784010200,7.60101025390625,1.95269775390625,-6.6269378662109375,-1.12603759765625
1715093613793989400,7.6109892578125,2.4147796630859375,-7.1129608154296875,-0.254547119140625
1715093613803968500,7.620968505859375,2.496185302734375,-7.4864654541015625,0.832427978515625
1715093613813917400,7.63091748046875,2.740386962890625,-7.996429443359375,3.0015716552734375
1715093613823896600,7.640896484375,3.3221893310546875,-7.3380126953125,6.664703369140625
1715093613833876000,7.6508759765625,2.4028167724609375,-8.43695068359375,7.215362548828125
1715093613843824600,7.66082470703125,0.8202362060546875,-11.62603759765625,6.27923583984375
1715093613853803800,7.6708037109375,-0.008148193359375,-14.432037353515625,6.5306243896484375
1715093613863783200,7.680783203125,0.4180145263671875,-15.823074340820312,5.651947021484375
1715093613873731800,7.69073193359375,-0.2691192626953125,-16.720901489257812,-1.0829315185546875
1715093613883711000,7.7007109375,0.00860595703125,-17.451126098632812,-7.6478424072265625
1715093613893690400,7.7106904296875,5.180084228515625,-18.3154296875,-9.058029174804688
1715093613903669500,7.72066943359375,6.0372161865234375,-16.34979248046875,-3.8123321533203125
1715093613913618200,7.7306181640625,2.412384033203125,-14.223739624023438,1.31365966796875
1715093613923597600,7.74059765625,-3.326507568359375,-19.2755126953125,0.262603759765625
1715093613933576700,7.75057666015625,-3.494110107421875,-25.016799926757812,-0.6400146484375
1715093613943556000,7.76055615234375,2.2352142333984375,-21.899551391601562,-0.2258148193359375
1715093613953535200,7.77053515625,1.0716400146484375,-12.317962646484375,-4.633544921875
1715093613963484000,7.78048388671875,1.8808746337890625,-6.3611907958984375,-3.615997314453125
1715093613973463300,7.79046337890625,-0.472625732421875,-4.563140869140625,-1.75091552734375
1715093613983442400,7.8004423828125,-3.5491790771484375,-5.22393798828125,1.67279052734375
1715093613993391000,7.81039111328125,-5.1078033447265625,-7.2925262451171875,4.29205322265625
1715093614003370500,7.82037060546875,-3.8340911865234375,-12.004318237304688,4.1795196533203125
1715093614013349600,7.830349609375,-2.5699462890625,-15.636322021484375,4.8211669921875
1715093614023298600,7.840298583984375,-3.1685028076171875,-15.665054321289062,2.2521820068359375
1715093614033277700,7.850277587890625,-3.324127197265625,-14.719345092773438,-1.2816619873046875
1715093614043256800,7.8602568359375,-1.540435791015625,-12.329925537109375,-3.39813232421875
1715093614053205800,7.870205810546875,0.061279296875,-10.043472290039062,-4.8992919921875
1715093614063185000,7.880184814453125,1.9455108642578125,-8.458511352539062,-7.197723388671875
1715093614073164300,7.890164306640625,3.5089263916015625,-6.8950958251953125,-8.34454345703125
1715093614083113000,7.900113037109375,3.0324859619140625,-5.9709320068359375,-8.801849365234375
1715093614093092000,7.910092041015625,1.9191741943359375,-5.1640777587890625,-7.19293212890625
1715093614103071500,7.920071533203125,1.6917266845703125,-4.67327880859375,-4.33905029296875
1715093614113020200,7.930020263671875,1.524139404296875,-4.72833251953125,-2.548187255859375
1715093614122999300,7.939999267578125,1.349365234375,-5.7506561279296875,-1.6743011474609375
1715093614132978700,7.949978759765625,1.8712921142578125,-7.3763275146484375,-1.2098236083984375
1715093614142927400,7.95992724609375,2.3214111328125,-8.8798828125,-1.2361602783203125
1715093614152906500,7.969906494140625,1.852142333984375,-9.643630981445312,-1.4324951171875
1715093614162886000,7.979885986328125,0.7867279052734375,-9.634063720703125,-1.712615966796875
1715093614172834600,7.98983447265625,-0.029693603515625,-9.097763061523438,-1.8802032470703125
1715093614182814000,7.99981396484375,-0.6258544921875,-8.290908813476562,-1.1571502685546875
1715093614192793000,8.00979296875,-0.7551422119140625,-7.6971435546875,-0.88421630859375
1715093614202772200,8.019772216796875,-1.4638214111328125,-7.2446441650390625,-0.424530029296875
1715093614212751600,8.029751708984374,-0.6665496826171875,-6.9693145751953125,0.0423431396484375
1715093614222700300,8.0397001953125,-0.161376953125,-7.024383544921875,0.27935791015625
1715093614232679700,8.0496796875,-0.070404052734375,-7.2709808349609375,0.485260009765625
1715093614242658800,8.059658935546874,-0.008148193359375,-7.615753173828125,0.758209228515625
1715093614252638000,8.069637939453125,-0.3648834228515625,-8.20233154296875,0.7510223388671875
1715093614262587000,8.0795869140625,-0.9083709716796875,-9.033111572265625,0.67919921875
1715093614272566000,8.08956591796875,-1.5117034912109375,-9.495193481445312,0.09979248046875
1715093614282545400,8.09954541015625,-2.328125,-9.899810791015625,0.3176727294921875
1715093614292494000,8.109494140625,-1.3369293212890625,-10.12725830078125,0.9928436279296875
1715093614302473200,8.11947314453125,-0.6689453125,-10.292465209960938,2.127685546875
1715093614312452600,8.12945263671875,0.26239013671875,-10.065017700195312,2.89862060546875
1715093614322401300,8.1394013671875,0.3342132568359375,-9.519134521484375,4.076568603515625
1715093614332380400,8.14938037109375,2.6949005126953125,-8.278945922851562,4.699066162109375
1715093614342359800,8.15935986328125,3.152191162109375,-7.299713134765625,4.806793212890625
1715093614352308500,8.16930859375,3.3221893310546875,-6.05950927734375,4.55780029296875
1715093614362287600,8.17928759765625,3.52569580078125,-5.4011077880859375,4.27288818359375
1715093614372267000,8.18926708984375,2.711669921875,-5.53997802734375,3.9520721435546875
1715093614382215700,8.199215576171875,0.985443115234375,-6.76580810546875,3.2362060546875
1715093614392194800,8.20919482421875,-1.296234130859375,-8.930160522460938,2.46527099609375
1715093614402174200,8.21917431640625,-2.354461669921875,-12.138397216796875,2.6639862060546875
1715093614412123000,8.229122802734375,-1.4829864501953125,-15.143112182617188,1.8547515869140625
1715093614422102300,8.239102294921874,-0.3600921630859375,-16.768783569335938,0.5403289794921875
1715093614432081400,8.249081298828125,1.1721954345703125,-16.251632690429688,-1.0182952880859375
1715093614442030000,8.259030029296875,4.016510009765625,-13.6658935546875,-0.9297027587890625
1715093614452009500,8.269009521484374,3.954254150390625,-10.721023559570312,-0.3910064697265625
1715093614461988600,8.278988525390625,0.932769775390625,-8.015579223632812,0.430206298828125
1715093614471968000,8.288968017578124,-1.4255218505859375,-6.413848876953125,0.399078369140625
1715093614481916700,8.298916748046874,-2.775848388671875,-5.846435546875,-0.6519775390625
1715093614491895800,8.308895751953125,-3.453399658203125,-5.8751678466796875,-1.7796478271484375
1715093614501875200,8.318875244140624,-2.574737548828125,-6.107391357421875,-3.1730804443359375
1715093614511854300,8.328854248046875,-1.5572052001953125,-6.6413116455078125,-4.69818115234375
1715093614521833700,8.338833740234374,-1.4422760009765625,-7.9988250732421875,-7.334197998046875
1715093614531782400,8.348782470703124,-2.1389923095703125,-10.139236450195312,-10.38201904296875
1715093614541761500,8.358761474609375,-3.2762298583984375,-12.490341186523438,-12.656509399414062
1715093614551741000,8.368740966796874,-3.9202728271484375,-15.521392822265625,-14.071487426757812
1715093614561689600,8.378689697265624,-4.1836395263671875,-18.69610595703125,-14.265411376953125
1715093614571668700,8.388668701171875,-4.710357666015625,-22.091094970703125,-13.360397338867188
1715093614581648100,8.398648193359374,-3.7766265869140625,-24.15728759765625,-8.39483642578125
1715093614591596800,8.4085966796875,-5.07427978515625,-23.848434448242188,-0.5634002685546875
1715093614601576000,8.418575927734375,-8.004791259765625,-20.357681274414062,5.60406494140625
1715093614611555300,8.428555419921874,-8.7613525390625,-14.625961303710938,10.10516357421875
1715093614621504000,8.43850390625,-9.592147827148438,-12.384994506835938,9.614364624023438
1715093614631483400,8.4484833984375,-7.05908203125,-9.928543090820312,10.143478393554688
1715093614641462500,8.458462646484374,-3.6018524169921875,-7.9748687744140625,9.394088745117188
1715093614651411200,8.4684111328125,-0.6019134521484375,-5.86798095703125,8.862579345703125
1715093614661390600,8.478390625,0.583221435546875,-5.408294677734375,5.5106964111328125
1715093614671369700,8.48836962890625,0.35577392578125,-6.52398681640625,3.2697296142578125
1715093614681318400,8.498318359375,0.86334228515625,-7.8192596435546875,2.142059326171875
1715093614691297800,8.5082978515625,1.9766387939453125,-8.621307373046875,-0.1108856201171875
1715093614701277000,8.51827685546875,3.2958526611328125,-8.539901733398438,-1.1978607177734375
1715093614711225600,8.5282255859375,3.4011993408203125,-7.71630859375,-1.5210723876953125
1715093614721205000,8.538205078125,2.316619873046875,-6.380340576171875,-1.7413482666015625
1715093614731184000,8.54818408203125,1.435546875,-5.2215423583984375,-2.1507568359375
1715093614741133000,8.558133056640624,0.7364501953125,-4.575103759765625,-2.2489166259765625
1715093614751112200,8.5681123046875,0.4539337158203125,-4.342864990234375,-2.347076416015625
1715093614761091300,8.57809130859375,0.26239013671875,-4.436248779296875,-2.093292236328125
1715093614771070700,8.58807080078125,0.245635986328125,-4.6613006591796875,-1.7317657470703125
1715093614781049900,8.5980498046875,0.6382904052734375,-4.9629669189453125,-1.5785369873046875
1715093614790998500,8.60799853515625,0.9471282958984375,-5.259857177734375,-1.4324951171875
1715093614800978000,8.61797802734375,1.6486358642578125,-5.259857177734375,-0.9752044677734375
1715093614810957000,8.62795703125,2.2088775634765625,-5.4873046875,-1.260101318359375
1715093614820936400,8.6379365234375,2.73321533203125,-5.578277587890625,-0.8291473388671875
1715093614830885000,8.647885009765625,3.099517822265625,-5.7530517578125,-0.0462493896484375
1715093614840864300,8.6578642578125,3.25274658203125,-6.179229736328125,0.9880523681640625
1715093614850843600,8.66784375,3.341339111328125,-6.72509765625,2.65679931640625
1715093614860792300,8.677792236328125,3.7698974609375,-6.042755126953125,6.0350189208984375
1715093614870771700,8.687771728515624,2.814605712890625,-6.8807220458984375,6.82989501953125
1715093614880750800,8.697750732421875,1.4642791748046875,-9.078598022460938,6.370208740234375
1715093614890699500,8.707699462890625,-0.03448486328125,-11.860671997070312,5.5513916015625
1715093614900679000,8.717678955078124,0.4635009765625,-13.838272094726562,4.8953857421875
1715093614910658000,8.727657958984375,0.44195556640625,-14.599624633789062,-0.2808837890625
1715093614920606700,8.737606689453125,0.753204345703125,-16.184600830078125,-8.720443725585938
1715093614930586000,8.747586181640624,4.8544769287109375,-18.396835327148438,-12.017257690429688
1715093614940565200,8.757565185546875,4.4738006591796875,-13.577301025390625,-5.574462890625
1715093614950514000,8.767513916015625,3.235992431640625,-8.336395263671875,0.45892333984375
1715093614960493300,8.777493408203124,0.1857757568359375,-10.177536010742188,1.498016357421875
1715093614970472400,8.787472412109375,0.880096435546875,-19.344940185546875,1.2274627685546875
1715093614980421400,8.79742138671875,2.517730712890625,-24.808502197265625,-0.5657958984375
1715093614990400500,8.807400390625,-4.4470062255859375,-23.91546630859375,-2.3662261962890625
1715093615000379600,8.817379638671875,-6.3503875732421875,-18.581192016601562,0.114166259765625
1715093615010328600,8.82732861328125,-4.0998382568359375,-9.964462280273438,-4.54974365234375
1715093615020307700,8.8373076171875,-1.7918243408203125,-5.3388671875,-3.2401123046875
1715093615030287000,8.847287109375,-3.8556365966796875,-6.40667724609375,0.305694580078125
1715093615040235800,8.85723583984375,-2.206024169921875,-11.111282348632812,2.49639892578125
1715093615050215000,8.86721484375,-0.56121826171875,-16.251632690429688,2.860321044921875
1715093615060194300,8.8771943359375,-2.2922210693359375,-17.688156127929688,2.5921630859375
1715093615070173400,8.88717333984375,-4.7319183349609375,-16.450347900390625,1.1053619384765625
1715093615080152800,8.89715283203125,-3.4031219482421875,-13.383377075195312,-0.9704132080078125
1715093615090101500,8.9071015625,-0.43670654296875,-10.565399169921875,-3.3789825439453125
1715093615100080600,8.91708056640625,2.3956298828125,-9.341964721679688,-6.09161376953125
1715093615110060000,8.92706005859375,3.891998291015625,-8.602157592773438,-7.525726318359375
1715093615120039200,8.9370390625,3.44189453125,-7.5511016845703125,-7.9207763671875
1715093615129987800,8.94698779296875,1.1985321044921875,-6.772979736328125,-7.810638427734375
1715093615139967200,8.95696728515625,0.4012603759765625,-5.6644744873046875,-5.5409393310546875
1715093615149946400,8.9669462890625,-0.0105438232421875,-4.5272216796875,-3.795562744140625
1715093615159895000,8.97689501953125,-0.53009033203125,-4.1010589599609375,-3.149139404296875
1715093615169874400,8.98687451171875,0.0301513671875,-4.2494964599609375,-3.17547607421875
1715093615179853600,8.996853515625,1.354156494140625,-4.80255126953125,-3.4627685546875
1715093615189802200,9.00680224609375,2.1705780029296875,-5.76263427734375,-3.8099365234375
1715093615199781600,9.01678173828125,1.9335479736328125,-6.5958099365234375,-4.0325927734375
1715093615209760800,9.0267607421875,0.7292633056640625,-7.7953033447265625,-4.0445709228515625
1715093615219709700,9.036709716796874,0.013397216796875,-8.252609252929688,-3.283203125
1715093615229688800,9.046688720703125,-0.74078369140625,-8.9110107421875,-2.8259124755859375
1715093615239668000,9.05666796875,-1.930694580078125,-9.504776000976562,-2.157928466796875
1715093615249617000,9.066616943359374,-1.72479248046875,-9.332382202148438,-1.1356048583984375
1715093615259596000,9.076595947265625,-1.243560791015625,-8.872695922851562,-0.3742523193359375
1715093615269575400,9.086575439453124,-0.96343994140625,-8.475265502929688,0.717498779296875
1715093615279524000,9.096524169921874,-1.286651611328125,-8.195144653320312,2.1707763671875
1715093615289503200,9.106503173828125,-1.226806640625,-7.8623504638671875,2.89862060546875
1715093615299482600,9.116482666015624,-0.10870361328125,-7.0435333251953125,3.6623687744140625
1715093615309431300,9.126431396484374,-0.31939697265625,-8.03472900390625,2.2186737060546875
1715093615319410400,9.136410400390625,-0.6282501220703125,-8.808059692382812,1.2897186279296875
1715093615329389800,9.146389892578124,-0.6761322021484375,-9.358718872070312,1.4261932373046875
1715093615339369000,9.156368896484375,-0.757537841796875,-9.942916870117188,1.6488494873046875
1715093615349348400,9.166348388671874,1.0955810546875,-10.47442626953125,2.005584716796875
1715093615359297000,9.176297119140624,1.8258056640625,-10.883834838867188,2.343170166015625
1715093615369276200,9.186276123046875,1.5265350341796875,-10.395416259765625,2.6161041259765625
1715093615379255600,9.196255615234374,3.2647247314453125,-9.035507202148438,3.3032379150390625
1715093615389234700,9.206234619140625,2.31182861328125,-7.3547821044921875,4.2585296630859375
1715093615399183400,9.216183349609375,1.5648345947265625,-5.4633636474609375,4.9576416015625
1715093615409162800,9.226162841796874,0.5113983154296875,-4.6517181396484375,5.4628143310546875
1715093615419142000,9.236141845703125,-0.4750213623046875,-5.58306884765625,5.450836181640625
1715093615429090800,9.2460908203125,-1.2315826416015625,-8.2047119140625,4.435699462890625
1715093615439070000,9.256070068359374,-0.731201171875,-11.642791748046875,2.9393157958984375
1715093615449049000,9.266049072265625,0.5113983154296875,-15.047348022460938,0.980865478515625
1715093615458998000,9.275998046875,2.2759246826171875,-17.118331909179688,-1.1308135986328125
1715093615468977200,9.28597705078125,4.1218414306640625,-17.439163208007812,-2.3087615966796875
1715093615478956500,9.29595654296875,5.3883819580078125,-14.800750732421875,-1.9520263671875
1715093615488905200,9.3059052734375,2.8792572021484375,-12.32513427734375,-1.05419921875
1715093615498884400,9.31588427734375,-1.233978271484375,-9.394638061523438,-0.8028106689453125
1715093615508863700,9.32586376953125,-2.2395477294921875,-7.2637939453125,-0.118072509765625
1715093615518812400,9.3358125,-3.6353607177734375,-5.26702880859375,1.1747894287109375
1715093615528791600,9.34579150390625,-5.5722808837890625,-4.1585235595703125,0.937774658203125
1715093615538771000,9.35577099609375,-5.5243988037109375,-3.914306640625,-0.91534423828125
1715093615548719600,9.3657197265625,-4.128570556640625,-4.1848602294921875,-3.2065887451171875
1715093615558698800,9.37569873046875,-3.78619384765625,-5.504058837890625,-6.4842529296875
1715093615568678100,9.38567822265625,-4.4422149658203125,-8.137680053710938,-10.113861083984375
1715093615578626800,9.395626708984375,-5.332855224609375,-11.554214477539062,-12.285400390625
1715093615588606000,9.40560595703125,-4.9449920654296875,-15.416061401367188,-14.0379638671875
1715093615598585300,9.41558544921875,-3.92266845703125,-19.514923095703125,-15.761795043945312
1715093615608534000,9.425533935546875,-2.893157958984375,-23.707168579101562,-16.403427124023438
1715093615618513400,9.435513427734374,-2.8572540283203125,-26.096588134765625,-12.87677001953125
1715093615628492500,9.445492431640625,-5.249053955078125,-23.611404418945312,-4.6574859619140625
1715093615638471700,9.4554716796875,-8.134078979492188,-16.495834350585938,4.84271240234375
1715093615648451000,9.465451171875,-9.271316528320312,-11.144805908203125,7.155517578125
1715093615658399700,9.475399658203125,-9.48919677734375,-9.782501220703125,5.355072021484375
1715093615668379100,9.485379150390624,-7.2913055419921875,-7.733062744140625,7.98150634765625
1715093615678358300,9.495358154296875,-3.664093017578125,-7.0435333251953125,8.750045776367188
1715093615688337400,9.50533740234375,-1.095123291015625,-7.1225433349609375,6.834686279296875
1715093615698286300,9.515286376953124,-0.4486846923828125,-7.1919708251953125,4.773284912109375
1715093615708265500,9.525265380859375,-0.4151611328125,-7.5080108642578125,3.832366943359375
1715093615718244900,9.535244873046874,0.6287078857421875,-7.950927734375,2.920166015625
1715093615728193500,9.545193603515624,1.7013092041015625,-8.360336303710938,0.897064208984375
1715093615738172700,9.555172607421875,3.1234588623046875,-8.1927490234375,-0.472412109375
1715093615748152000,9.565152099609374,3.4275360107421875,-7.1488800048828125,-1.1020965576171875
1715093615758100700,9.575100830078124,2.7523651123046875,-5.5615234375,-1.6216278076171875
1715093615768080000,9.585079833984375,1.8641204833984375,-4.2590789794921875,-2.1962432861328125
1715093615778059300,9.595059326171874,1.2368316650390625,-3.6054534912109375,-2.653533935546875
1715093615788008000,9.605008056640624,0.9567108154296875,-3.559967041015625,-2.8666229248046875
1715093615797987000,9.614987060546875,0.880096435546875,-4.098663330078125,-2.9192962646484375
1715093615807966500,9.624966552734374,0.932769775390625,-4.9845123291015625,-3.0844879150390625
1715093615817915100,9.6349150390625,0.954315185546875,-5.894317626953125,-3.271240234375
1715093615827894500,9.64489453125,0.7508087158203125,-6.5335693359375,-2.9480133056640625
1715093615837873700,9.654873779296874,0.995025634765625,-6.8855133056640625,-2.464385986328125
1715093615847822300,9.664822265625,1.11712646484375,-7.2805633544921875,-2.505096435546875
1715093615857801700,9.6748017578125,1.77313232421875,-7.6301116943359375,-2.0597686767578125
1715093615867780900,9.68478076171875,2.812225341796875,-7.91741943359375,-1.458831787109375
1715093615877729500,9.6947294921875,3.0109405517578125,-8.185562133789062,-0.2210235595703125
1715093615887709000,9.704708984375,2.74517822265625,-8.559066772460938,1.20831298828125
1715093615897688000,9.71468798828125,2.7882843017578125,-7.8958740234375,4.9193267822265625
1715093615907667500,9.72466748046875,2.6039276123046875,-7.098602294921875,8.211349487304688
1715093615917616000,9.7346162109375,1.80426025390625,-8.599761962890625,7.943206787109375
1715093615927595300,9.74459521484375,0.731658935546875,-11.834335327148438,6.750885009765625
1715093615937574700,9.75457470703125,1.334991455078125,-14.52301025390625,7.6942138671875
1715093615947553800,9.7645537109375,2.216064453125,-16.024185180664062,5.52984619140625
1715093615957533200,9.774533203125,1.1506500244140625,-17.494216918945312,-4.8059234619140625
1715093615967481900,9.78448193359375,1.050079345703125,-18.471054077148438,-9.603897094726562
1715093615977461000,9.7944609375,1.3302154541015625,-15.586044311523438,-5.885711669921875
1715093615987440400,9.8044404296875,4.1745147705078125,-10.103317260742188,0.394287109375
1715093615997389000,9.81438916015625,1.9431304931640625,-7.8479766845703125,2.881866455078125
1715093616007368200,9.8243681640625,0.6119537353515625,-8.64764404296875,6.2576904296875
1715093616017347600,9.83434765625,2.15380859375,-12.832717895507812,7.031005859375
1715093616027296300,9.844296142578125,-2.1868743896484375,-15.825469970703125,2.9632720947265625
1715093616037275400,9.854275390625,-3.3025665283203125,-22.07672119140625,-1.501922607421875
1715093616047254800,9.8642548828125,-5.5579071044921875,-25.902664184570312,-0.3838348388671875
1715093616057203500,9.874203369140625,-6.326446533203125,-18.205307006835938,-4.8992919921875
1715093616067182800,9.884182861328124,-2.6417694091796875,-9.789688110351562,-8.117095947265625
1715093616077162000,9.894161865234375,-2.6513519287109375,-7.151275634765625,-5.600799560546875
1715093616087110700,9.904110595703125,-1.3943939208984375,-8.216690063476562,-1.2146148681640625
1715093616097090000,9.914090087890624,0.6406707763671875,-11.865447998046875,0.9665069580078125
1715093616107069200,9.924069091796875,1.868896484375,-14.068115234375,0.990447998046875
1715093616117017900,9.934017822265625,-0.407989501953125,-13.17987060546875,-0.3646697998046875
1715093616126997200,9.943997314453124,-1.2818603515625,-11.81756591796875,-1.6431732177734375
1715093616136976400,9.953976318359375,0.3054962158203125,-10.776092529296875,-4.355804443359375
1715093616146925000,9.963925048828125,1.567230224609375,-9.076202392578125,-6.93914794921875
1715093616156904400,9.973904541015624,2.1035308837890625,-7.9581146240234375,-8.050064086914062
1715093616166883600,9.983883544921875,2.4195709228515625,-6.7682037353515625,-7.133087158203125
1715093616176832500,9.99383251953125,1.4547119140625,-6.6053924560546875,-5.758819580078125
1715093616186811600,10.003811767578124,0.5113983154296875,-6.88311767578125,-5.24884033203125
1715093616196790800,10.013790771484375,0.1043701171875,-6.35400390625,-4.0732879638671875
1715093616206770200,10.023770263671874,-0.1326446533203125,-5.640533447265625,-3.182647705078125
1715093616216749300,10.033749267578125,0.446746826171875,-5.314910888671875,-3.0796966552734375
1715093616226698200,10.0436982421875,1.0716400146484375,-5.6788330078125,-3.1156158447265625
1715093616236677400,10.053677490234374,1.1506500244140625,-5.9015045166015625,-2.6870574951171875
1715093616246656500,10.063656494140625,0.561676025390625,-6.05950927734375,-2.315948486328125
1715093616256636000,10.073635986328124,-0.4654388427734375,-6.4090728759765625,-1.760498046875
1715093616266584600,10.08358447265625,-1.3776397705078125,-6.91424560546875,-1.18109130859375
1715093616276563700,10.093563720703125,-1.866058349609375,-7.565460205078125,-0.551422119140625
1715093616286543000,10.103543212890624,-2.00970458984375,-8.099380493164062,-0.2904510498046875
1715093616296491800,10.11349169921875,-2.328125,-8.683563232421875,-0.22821044921875
1715093616306471200,10.12347119140625,-2.2706756591796875,-8.8367919921875,-0.108489990234375
1715093616316450300,10.1334501953125,-2.438262939453125,-8.96368408203125,-0.27130126953125
1715093616326399000,10.14339892578125,-2.6250152587890625,-8.90142822265625,0.08782958984375
1715093616336378400,10.15337841796875,-2.0695648193359375,-9.179153442382812,0.3607635498046875
1715093616346357500,10.163357421875,-1.6912689208984375,-9.36590576171875,0.73187255859375
1715093616356306200,10.17330615234375,-1.7152099609375,-9.476043701171875,1.20831298828125
1715093616366285600,10.18328564453125,-2.0288543701171875,-9.4927978515625,2.2785186767578125
1715093616376264700,10.1932646484375,-1.102294921875,-9.86151123046875,2.70947265625
1715093616386213400,10.20321337890625,0.224090576171875,-9.89263916015625,2.845947265625
1715093616396192800,10.21319287109375,1.291900634765625,-9.363510131835938,2.640045166015625
1715093616406172000,10.223171875,1.5217437744140625,-8.4345703125,1.8236236572265625
1715093616416120800,10.233120849609374,3.3485260009765625,-7.517578125,0.7342681884765625
1715093616426100000,10.243099853515625,3.4299163818359375,-6.7155303955078125,0.0902252197265625
1715093616436079000,10.2530791015625,3.6406097412109375,-6.105010986328125,0.03515625
1715093616446028000,10.263028076171874,3.66455078125,-5.937408447265625,0.0638885498046875
1715093616456007200,10.273007080078125,2.7308197021484375,-6.7490386962890625,0.8707275390625
1715093616465986600,10.282986572265624,1.5528717041015625,-8.410614013671875,2.0510711669921875
1715093616475965700,10.292965576171875,0.477874755859375,-10.527099609375,2.68792724609375
1715093616485914400,10.302914306640625,0.4323883056640625,-12.823135375976562,2.015167236328125
1715093616495893800,10.312893798828124,0.542510986328125,-15.107208251953125,0.612152099609375
1715093616505873000,10.322872802734375,0.688568115234375,-16.428802490234375,-0.8387298583984375
1715093616515852300,10.332852294921874,1.3182373046875,-16.239654541015625,-1.2577056884765625
1715093616525831400,10.34283154296875,2.4315338134765625,-14.630752563476562,-0.3096160888671875
1715093616535780000,10.352780029296875,0.6646270751953125,-12.605255126953125,1.045501708984375
1715093616545759500,10.362759521484374,-2.0863189697265625,-10.280487060546875,2.4437255859375
1715093616555738600,10.372738525390625,-3.92266845703125,-8.2550048828125,3.454071044921875
1715093616565687300,10.382687255859375,-4.1309661865234375,-6.665252685546875,2.4245758056640625
1715093616575666700,10.392666748046874,-4.023223876953125,-5.1736602783203125,0.7725677490234375
1715093616585645800,10.402645751953125,-3.326507568359375,-4.488922119140625,-1.1140594482421875
1715093616595594500,10.412594482421875,-2.354461669921875,-4.8887481689453125,-4.2001800537109375
1715093616605574000,10.422573974609374,-2.687255859375,-6.4521636962890625,-8.176956176757812
1715093616615553000,10.432552978515625,-3.5826873779296875,-8.767349243164062,-11.75628662109375
1715093616625502000,10.442501953125,-4.01605224609375,-11.724197387695312,-14.392303466796875
1715093616635481000,10.452481201171874,-3.87957763671875,-14.963546752929688,-15.790512084960938
1715093616645460200,10.462460205078125,-2.8093719482421875,-18.5692138671875,-16.966064453125
1715093616655409200,10.4724091796875,-3.5084686279296875,-20.633026123046875,-14.897476196289062
1715093616665388300,10.48238818359375,-3.96337890625,-21.99053955078125,-8.435531616210938
1715093616675367400,10.492367431640625,-4.277008056640625,-21.978561401367188,-1.55938720703125
1715093616685316400,10.50231640625,-6.1612548828125,-19.682525634765625,3.6144866943359375
1715093616695295500,10.51229541015625,-7.5163726806640625,-13.653915405273438,8.601608276367188
1715093616705275000,10.52227490234375,-10.999923706054688,-11.578155517578125,7.4188690185546875
1715093616715223600,10.5322236328125,-7.035125732421875,-8.958892822265625,8.702163696289062
1715093616725202700,10.54220263671875,-3.7407073974609375,-7.1177520751953125,8.948776245117188
1715093616735182000,10.55218212890625,-1.5643768310546875,-6.3899078369140625,7.2656402587890625
1715093616745130800,10.562130859375,-0.53009033203125,-7.1608428955078125,4.351898193359375
1715093616755110000,10.57210986328125,-0.197296142578125,-7.93896484375,2.4844207763671875
1715093616765089300,10.58208935546875,1.0931854248046875,-8.547088623046875,0.865936279296875
1715093616775068400,10.592068359375,2.1777496337890625,-8.937347412109375,-0.6591644287109375
1715093616785047800,10.6020478515625,3.0851593017578125,-8.875091552734375,-1.944854736328125
1715093616794996500,10.61199658203125,3.1162872314453125,-7.575042724609375,-2.2010345458984375
1715093616804975600,10.6219755859375,2.2184600830078125,-6.0499420166015625,-2.062164306640625
1715093616814955000,10.631955078125,1.5528717041015625,-4.7235565185546875,-1.7676849365234375
1715093616824934100,10.64193408203125,0.7484130859375,-3.9310760498046875,-2.03582763671875
1715093616834882800,10.6518828125,0.17620849609375,-3.92388916015625,-1.9544219970703125
1715093616844862200,10.6618623046875,-0.2068634033203125,-4.215972900390625,-1.7174072265625
1715093616854841300,10.67184130859375,-0.28826904296875,-4.5918731689453125,-1.7365570068359375
1715093616864790300,10.681790283203124,-0.3002471923828125,-5.039581298828125,-1.93048095703125
1715093616874769400,10.691769287109375,-0.00335693359375,-5.3891448974609375,-2.1268157958984375
1715093616884748500,10.70174853515625,0.71728515625,-5.9350128173828125,-2.33270263671875
1715093616894697500,10.711697509765624,1.7803192138671875,-6.296539306640625,-2.3183441162109375
1715093616904676600,10.721676513671875,2.34295654296875,-7.0267791748046875,-1.82513427734375
1715093616914656000,10.731656005859374,2.81939697265625,-7.531951904296875,-1.0829315185546875
1715093616924604700,10.741604736328124,2.814605712890625,-7.9365692138671875,-0.592132568359375
1715093616934583800,10.751583740234375,3.16656494140625,-8.580612182617188,1.5602569580078125
1715093616944563200,10.761563232421874,3.79144287109375,-8.391464233398438,5.237762451171875
1715093616954512000,10.771511962890624,3.341339111328125,-9.104934692382812,6.8897552490234375
1715093616964491000,10.781490966796875,2.3309783935546875,-11.17352294921875,7.155517578125
1715093616974470400,10.791470458984374,2.08917236328125,-13.488723754882812,7.627166748046875
1715093616984419000,10.801419189453124,1.0261383056640625,-15.748855590820312,6.41571044921875
1715093616994398200,10.811398193359375,-0.537261962890625,-16.562881469726562,2.3072509765625
1715093617004377600,10.821377685546874,0.3390045166015625,-16.680191040039062,-2.6607208251953125
1715093617014326300,10.831326171875,2.8409423828125,-16.905242919921875,-6.943939208984375
1715093617024305700,10.8413056640625,6.690826416015625,-15.200576782226562,-7.0660400390625
1715093617034284800,10.851284912109374,5.9127044677734375,-11.123245239257812,-4.216949462890625
1715093617044264000,10.861263916015625,6.0539703369140625,-8.513565063476562,-1.4995269775390625
1715093617054212900,10.871212890625,4.5073089599609375,-6.935791015625,1.3064727783203125
1715093617064192000,10.88119189453125,-0.2068634033203125,-6.5958099365234375,3.279296875
1715093617074171100,10.891171142578125,-1.7104339599609375,-9.866302490234375,5.2162017822265625
1715093617084150500,10.901150634765624,-5.428619384765625,-19.198898315429688,2.9488983154296875
1715093617094129700,10.911129638671875,-10.834732055664062,-25.459732055664062,1.6392669677734375
1715093617104078600,10.92107861328125,-10.310394287109375,-24.758224487304688,-2.1387786865234375
1715093617114057700,10.9310576171875,-6.347991943359375,-20.096725463867188,-9.500946044921875
1715093617124036900,10.941036865234375,-3.082305908203125,-12.0186767578125,-8.435531616210938
1715093617133985800,10.95098583984375,-1.4303131103515625,-7.7570037841796875,-4.4994659423828125
1715093617143965000,10.96096484375,1.334991455078125,-5.7650299072265625,-1.9209136962890625
1715093617153944300,10.9709443359375,2.6685638427734375,-4.13458251953125,0.44696044921875
1715093617163893000,10.98089306640625,1.646240234375,-3.117034912109375,0.9449462890625
1715093617173872000,10.9908720703125,0.1786041259765625,-3.253509521484375,-0.9249267578125
1715093617183851500,11.0008515625,0.0948028564453125,-3.9765625,-2.61761474609375
1715093617193800200,11.01080029296875,0.6717987060546875,-6.011627197265625,-4.1259613037109375
1715093617203779300,11.020779296875,1.63427734375,-7.977264404296875,-6.0269622802734375
1715093617213758700,11.0307587890625,1.840179443359375,-9.332382202148438,-6.2065277099609375
1715093617223707400,11.040707275390625,-0.012939453125,-10.847915649414062,-4.566497802734375
1715093617233686500,11.0506865234375,-1.202850341796875,-11.2261962890625,-3.182647705078125
1715093617243666000,11.060666015625,-2.59149169921875,-10.31640625,-3.75726318359375
1715093617253614600,11.070614501953125,-2.3927764892578125,-8.496810913085938,-4.1403350830078125
1715093617263594000,11.080593994140624,-1.255523681640625,-7.2398529052734375,-3.8817596435546875
1715093617273573000,11.090572998046875,0.6550445556640625,-6.43780517578125,-4.2193450927734375
1715093617283521800,11.100521728515625,2.0604400634765625,-5.8871307373046875,-4.111602783203125
1715093617293501200,11.110501220703124,2.2088775634765625,-5.647705078125,-3.70458984375
1715093617303480300,11.120480224609375,1.0524749755859375,-5.9302215576171875,-2.9671783447265625
1715093617313429000,11.130428955078125,-0.230804443359375,-6.5000457763671875,-1.585723876953125
1715093617323408400,11.140408447265624,-1.1717376708984375,-7.3882904052734375,-0.0725860595703125
1715093617333387500,11.150387451171875,-1.339324951171875,-8.24542236328125,0.8946685791015625
1715093617343367000,11.160366943359374,-1.7223968505859375,-9.152816772460938,1.3543548583984375
1715093617353346000,11.170345947265625,-2.3401031494140625,-10.378662109375,1.2370452880859375
1715093617363294700,11.180294677734375,-2.54840087890625,-11.106491088867188,1.1724090576171875
1715093617373274000,11.190274169921874,-2.4669952392578125,-11.314788818359375,1.318450927734375
1715093617383253200,11.200253173828125,-2.57952880859375,-11.4368896484375,1.3232421875
1715093617393232600,11.210232666015624,-2.3879852294921875,-11.41534423828125,1.1149444580078125
1715093617403181300,11.220181396484374,-2.1557464599609375,-10.761734008789062,0.9521331787109375
1715093617413160400,11.230160400390625,-2.299407958984375,-10.910171508789062,-0.000762939453125
1715093617423139800,11.240139892578124,-2.014495849609375,-10.258941650390625,-0.49395751953125
1715093617433088500,11.250088623046874,-1.7008514404296875,-9.689117431640625,-0.6016998291015625
1715093617443067600,11.260067626953125,0.9088287353515625,-9.085784912109375,-0.551422119140625
1715093617453047000,11.270047119140624,2.3836517333984375,-8.88946533203125,-0.127655029296875
1715093617462995700,11.27999560546875,4.916717529296875,-8.101776123046875,0.1069793701171875
1715093617472974800,11.289974853515625,7.6341400146484375,-7.2613983154296875,0.468505859375
1715093617482954200,11.299954345703124,7.631744384765625,-6.1193695068359375,0.7965087890625
1715093617492903000,11.30990283203125,5.7451171875,-5.6237640380859375,0.7222900390625
1715093617502882300,11.31988232421875,3.1234588623046875,-6.253448486328125,1.0000152587890625
1715093617512861400,11.329861328125,1.3780975341796875,-7.7474212646484375,1.9912261962890625
1715093617522810000,11.33981005859375,0.075653076171875,-10.278091430664062,2.8890380859375
1715093617532789500,11.34978955078125,-0.7862701416015625,-13.141555786132812,2.6041412353515625
1715093617542768600,11.3597685546875,-1.2986297607421875,-15.289169311523438,1.0143890380859375
1715093617552717300,11.36971728515625,-0.568389892578125,-16.093612670898438,-0.034271240234375
1715093617562696700,11.37969677734375,0.4132232666015625,-15.459152221679688,1.1197357177734375
1715093617572675800,11.38967578125,0.061279296875,-13.270843505859375,3.008758544921875
1715093617582624500,11.39962451171875,-0.9849853515625,-10.733001708984375,3.9640350341796875
1715093617592604000,11.40960400390625,-1.8014068603515625,-8.015579223632812,3.9520721435546875
1715093617602583000,11.4195830078125,-2.84527587890625,-5.8272705078125,3.90179443359375
1715093617612532000,11.429531982421874,-3.05596923828125,-4.6253814697265625,2.40301513671875
1715093617622511000,11.439510986328125,-2.32574462890625,-4.2590789794921875,-0.139617919921875
1715093617632490200,11.449490234375,-1.866058349609375,-4.8121337890625,-3.5441741943359375
1715093617642469600,11.4594697265625,-1.3728485107421875,-6.6796112060546875,-7.13787841796875
1715093617652448800,11.46944873046875,-2.14617919921875,-9.557449340820312,-10.070770263671875
1715093617662397700,11.479397705078124,-3.09906005859375,-12.547805786132812,-12.04119873046875
1715093617672376800,11.489376953125,-3.757476806640625,-15.265213012695312,-13.829666137695312
1715093617682356000,11.49935595703125,-4.1549072265625,-18.559646606445312,-16.2789306640625
1715093617692335400,11.50933544921875,-6.08941650390625,-21.645767211914062,-14.96929931640625
1715093617702284000,11.519283935546875,-6.6041717529296875,-22.988922119140625,-10.27667236328125
1715093617712263400,11.529263427734374,-6.642486572265625,-21.672103881835938,-3.35504150390625
1715093617722242600,11.53924267578125,-7.7557830810546875,-18.552459716796875,2.671173095703125
1715093617732191200,11.549191162109375,-7.8300018310546875,-12.284439086914062,9.087631225585938
1715093617742170600,11.559170654296874,-7.0303497314453125,-9.1217041015625,11.0125732421875
1715093617752149800,11.569149658203125,-3.3911590576171875,-7.4194183349609375,11.163406372070312
1715093617762098400,11.579098388671875,-1.71282958984375,-6.265411376953125,8.541748046875
1715093617772077800,11.589077880859374,-0.9179534912109375,-4.90789794921875,5.7596893310546875
1715093617782057000,11.599056884765625,-0.4534759521484375,-4.9940948486328125,3.9736175537109375
1715093617792005600,11.609005615234375,-0.1182861328125,-6.2486572265625,1.4692840576171875
1715093617801985000,11.618985107421874,0.5281524658203125,-7.5343475341796875,-0.2042694091796875
1715093617811964200,11.628964111328125,1.47625732421875,-8.54229736328125,-1.7940216064453125
1715093617821913000,11.6389130859375,2.180145263671875,-8.9541015625,-3.1060333251953125
1715093617831892200,11.648892333984374,2.338165283203125,-8.513565063476562,-3.48193359375
1715093617841871400,11.658871337890625,2.0508575439453125,-7.3451995849609375,-3.139556884765625
1715093617851820300,11.6688203125,1.840179443359375,-6.0882415771484375,-2.5027008056640625
1715093617861799400,11.67879931640625,1.69891357421875,-5.3891448974609375,-1.9759674072265625
1715093617871778600,11.688778564453125,1.248809814453125,-5.6070098876953125,-1.585723876953125
1715093617881727500,11.6987275390625,0.815460205078125,-6.1145782470703125,-1.6240234375
1715093617891706600,11.70870654296875,0.2959136962890625,-6.48089599609375,-1.6431732177734375
1715093617901686000,11.71868603515625,0.04931640625,-6.751434326171875,-1.70782470703125
1715093617911665200,11.7286650390625,0.42041015625,-6.440185546875,-1.384613037109375
1715093617921613800,11.73861376953125,1.1626129150390625,-7.2757720947265625,-1.0733642578125
1715093617931593200,11.74859326171875,2.347747802734375,-7.5199737548828125,-0.6519775390625
1715093617941572400,11.758572265625,3.300628662109375,-8.075439453125,0.2434539794921875
1715093617951551700,11.7685517578125,3.85369873046875,-8.513565063476562,1.9409332275390625
1715093617961531000,11.77853076171875,3.61187744140625,-8.36273193359375,4.44049072265625
1715093617971479600,11.7884794921875,3.046844482421875,-8.295700073242188,6.5354156494140625
1715093617981459000,11.798458984375,2.328582763671875,-8.906219482421875,7.7301177978515625
1715093617991438000,11.80843798828125,1.92156982421875,-10.383438110351562,7.880950927734375
1715093618001386800,11.81838671875,2.15380859375,-12.339508056640625,6.590484619140625
1715093618011366100,11.8283662109375,2.3525390625,-14.307540893554688,4.11248779296875
1715093618021345300,11.83834521484375,1.2799224853515625,-16.129531860351562,1.1269073486328125
1715093618031294000,11.8482939453125,-0.6497955322265625,-18.016159057617188,-2.5218505859375
1715093618041273300,11.8582734375,0.1809844970703125,-19.292266845703125,-5.8737335205078125
1715093618051252500,11.86825244140625,2.728424072265625,-17.774337768554688,-6.204132080078125
1715093618061201400,11.878201416015624,3.288665771484375,-11.99713134765625,-4.2576446533203125
1715093618071180500,11.8881806640625,3.183319091796875,-6.739471435546875,-0.7166290283203125
1715093618081159700,11.89815966796875,2.8529205322265625,-5.1257781982421875,2.1444549560546875
1715093618091108600,11.908108642578124,1.4954071044921875,-6.3779449462890625,3.61688232421875
1715093618101087700,11.918087646484375,0.9998016357421875,-9.04986572265625,5.3095855712890625
1715093618111067100,11.928067138671874,-1.7894439697265625,-14.391342163085938,2.350341796875
1715093618121015800,11.938015869140624,-7.2218780517578125,-19.136642456054688,0.6720123291015625
1715093618130995000,11.947994873046875,-11.07415771484375,-21.25311279296875,-2.4332733154296875
1715093618140974300,11.957974365234374,-8.426162719726562,-20.961029052734375,-8.61749267578125
1715093618150923000,11.967923095703124,-2.8692169189453125,-15.818283081054688,-8.567214965820312
1715093618160902100,11.977902099609375,-0.0416717529296875,-9.2701416015625,-3.6064300537109375
1715093618170881500,11.987881591796874,0.7484130859375,-6.564697265625,-1.23138427734375
1715093618180830200,11.997830322265624,1.4666748046875,-4.9318389892578125,1.0478973388671875
1715093618190809300,12.007809326171875,2.0604400634765625,-3.2822418212890625,2.28570556640625
1715093618200788700,12.017788818359374,1.6007537841796875,-3.0021209716796875,0.82763671875
1715093618210768000,12.027767822265625,0.60955810546875,-4.488922119140625,-0.9967498779296875
1715093618220747300,12.037747314453124,0.8872833251953125,-5.1640777587890625,-1.7437286376953125
1715093618230696000,12.047696044921874,0.6622314453125,-6.169647216796875,-3.077301025390625
1715093618240675000,12.057675048828125,1.076416015625,-8.221481323242188,-3.8913421630859375
1715093618250654500,12.067654541015624,1.8234100341796875,-9.6292724609375,-2.981536865234375
1715093618260633600,12.077633544921875,0.477874755859375,-11.010726928710938,-1.746124267578125
1715093618270582300,12.087582275390625,-1.6529693603515625,-11.549423217773438,-3.1802520751953125
1715093618280561700,12.097561767578124,-2.9266815185546875,-10.577377319335938,-4.1355438232421875
1715093618290540800,12.107540771484375,-2.0623779296875,-8.606948852539062,-2.9528045654296875
1715093618300489700,12.11748974609375,-0.49896240234375,-7.543914794921875,-2.8139495849609375
1715093618310468900,12.12746875,1.0668487548828125,-7.01959228515625,-2.7828216552734375
1715093618320448000,12.137447998046875,1.993408203125,-6.686798095703125,-2.5098876953125
1715093618330397000,12.14739697265625,1.0405120849609375,-6.782562255859375,-2.1627197265625
1715093618340376000,12.1573759765625,0.15704345703125,-7.120147705078125,-1.339111328125
1715093618350355500,12.16735546875,-0.07757568359375,-7.215911865234375,-0.096527099609375
1715093618360304000,12.17730419921875,-0.57318115234375,-7.3140716552734375,1.3376007080078125
1715093618370283300,12.187283203125,-1.5739593505859375,-7.8455963134765625,1.835601806640625
1715093618380262700,12.1972626953125,-2.426300048828125,-8.808059692382812,1.9337615966796875
1715093618390211300,12.20721142578125,-2.8165435791015625,-9.883056640625,1.905029296875
1715093618400190500,12.2171904296875,-2.5196685791015625,-10.582168579101562,2.0103759765625
1715093618410169900,12.227169921875,-2.9170989990234375,-11.223800659179688,2.1085357666015625
1715093618420118500,12.237118408203125,-1.7439422607421875,-11.374649047851562,1.28253173828125
1715093618430097700,12.24709765625,-1.9546356201171875,-11.324371337890625,0.7510223388671875
1715093618440077000,12.2570771484375,-1.444671630859375,-11.08734130859375,0.52117919921875
1715093618450025700,12.267025634765625,-0.9394989013671875,-10.823974609375,0.1955718994140625
1715093618460005000,12.277005126953124,-0.1063079833984375,-10.352325439453125,-0.0414581298828125
1715093618469984300,12.286984375,2.158599853515625,-9.507171630859375,-0.149200439453125
1715093618479963400,12.29696337890625,4.387603759765625,-8.353164672851562,-0.6639556884765625
1715093618489912300,12.306912353515624,7.4282379150390625,-7.321258544921875,-1.2840423583984375
1715093618499891500,12.316891357421875,6.88714599609375,-6.3851318359375,-1.2984161376953125
1715093618509870800,12.326870849609374,4.514495849609375,-5.6501007080078125,-0.920135498046875
1715093618519850000,12.33685009765625,2.031707763671875,-6.0666961669921875,-0.6519775390625
1715093618529829000,12.3468291015625,-0.271514892578125,-7.977264404296875,0.705535888671875
1715093618539778000,12.356778076171874,-0.8724517822265625,-10.86468505859375,1.541107177734375
1715093618549757200,12.366757080078125,-0.4462890625,-13.275634765625,2.237823486328125
1715093618559736300,12.376736328125,-0.587554931640625,-14.946792602539062,1.8188323974609375
1715093618569685200,12.386685302734374,0.7292633056640625,-14.798355102539062,1.73504638671875
1715093618579664400,12.396664306640625,1.7180633544921875,-12.95721435546875,3.039886474609375
1715093618589643800,12.406643798828124,2.31182861328125,-9.854324340820312,3.516326904296875
1715093618599592400,12.416592529296874,1.0572662353515625,-7.67559814453125,2.48681640625
1715093618609571600,12.426571533203125,-0.3313751220703125,-6.1097869873046875,1.476470947265625
1715093618619551000,12.436551025390624,-1.2698974609375,-5.0108489990234375,0.95452880859375
1715093618629499600,12.446499755859374,-2.2299652099609375,-4.7355194091796875,-0.0582122802734375
1715093618639478800,12.456478759765625,-2.68487548828125,-5.772216796875,-2.3111572265625
1715093618649458200,12.466458251953124,-2.5412139892578125,-7.606170654296875,-5.2704010009765625
1715093618659406800,12.47640673828125,-2.7519073486328125,-9.933334350585938,-8.507354736328125
1715093618669386000,12.486385986328125,-3.4031219482421875,-12.5765380859375,-10.477783203125
1715093618679365400,12.496365478515624,-4.3368682861328125,-14.776809692382812,-12.302169799804688
1715093618689314000,12.50631396484375,-4.64093017578125,-17.72406005859375,-15.440963745117188
1715093618699293400,12.51629345703125,-5.215545654296875,-21.633804321289062,-16.231048583984375
1715093618709272600,12.5262724609375,-5.1604766845703125,-23.613800048828125,-12.713973999023438
1715093618719221200,12.53622119140625,-5.3998870849609375,-21.696044921875,-6.4651031494140625
1715093618729200600,12.54620068359375,-6.94415283203125,-17.647445678710938,-0.666351318359375
1715093618739179800,12.5561796875,-7.054290771484375,-14.123184204101562,5.745330810546875
1715093618749128400,12.56612841796875,-5.84521484375,-11.925308227539062,8.632736206054688
1715093618759107800,12.57610791015625,-3.790985107421875,-10.024307250976562,12.633438110351562
1715093618769087000,12.5860869140625,-2.7183837890625,-9.435333251953125,12.2503662109375
1715093618779066400,12.59606640625,-2.2299652099609375,-7.85516357421875,9.339019775390625
1715093618789045500,12.60604541015625,-2.3760223388671875,-6.37554931640625,6.422882080078125
1715093618798994200,12.615994140625,-2.4502410888671875,-5.8512115478515625,4.1220550537109375
1715093618808973600,12.6259736328125,-1.028076171875,-6.16485595703125,1.9864349365234375
1715093618818952700,12.63595263671875,0.7915191650390625,-6.476104736328125,-0.108489990234375
1715093618828932000,12.64593212890625,2.6158905029296875,-6.69158935546875,-1.935272216796875
1715093618838880800,12.655880859375,3.5448455810546875,-6.861572265625,-2.8354949951171875
1715093618848860000,12.66585986328125,3.350921630859375,-6.5694732666015625,-3.3023681640625
1715093618858839300,12.67583935546875,2.6422271728515625,-5.800933837890625,-3.223358154296875
1715093618868788000,12.6857880859375,2.35491943359375,-5.1593017578125,-2.9216766357421875
1715093618878767000,12.69576708984375,2.3046417236328125,-5.11859130859375,-2.9575958251953125
1715093618888746500,12.70574658203125,2.05804443359375,-5.6333465576171875,-2.950408935546875
1715093618898695200,12.715695068359375,1.6007537841796875,-6.2989349365234375,-2.3925628662109375
1715093618908674600,12.725674560546874,1.0309295654296875,-6.9429779052734375,-2.189056396484375
1715093618918653700,12.73565380859375,0.6646270751953125,-7.1800079345703125,-1.85626220703125
1715093618928602400,12.745602294921875,0.4180145263671875,-7.3547821044921875,-1.9496307373046875
1715093618938581800,12.755581787109374,0.8920745849609375,-7.6947479248046875,-1.7628936767578125
1715093618948561000,12.765560791015625,1.5648345947265625,-8.005996704101562,-0.893798828125
1715093618958509600,12.775509521484375,2.4626617431640625,-8.111343383789062,0.47808837890625
1715093618968489000,12.785489013671874,2.749969482421875,-7.912628173828125,2.448516845703125
1715093618978468000,12.795468017578125,2.570404052734375,-7.6253204345703125,4.6703338623046875
1715093618988416800,12.805416748046875,2.1442413330078125,-8.377105712890625,6.2337493896484375
1715093618998396200,12.815396240234374,1.94073486328125,-10.196701049804688,7.4667510986328125
1715093619008375300,12.825375244140625,2.5201263427734375,-12.279647827148438,7.4093017578125
1715093619018324000,12.835323974609375,2.7882843017578125,-14.192611694335938,5.4268951416015625
1715093619028303400,12.845303466796874,1.9120025634765625,-15.401687622070312,2.376678466796875
1715093619038282500,12.855282470703125,1.20330810546875,-17.017776489257812,-1.015899658203125
1715093619048262000,12.865261962890624,1.78271484375,-18.152633666992188,-3.888946533203125
1715093619058210600,12.87521044921875,3.319793701171875,-17.39605712890625,-5.167449951171875
1715093619068189700,12.885189697265625,3.0324859619140625,-12.976364135742188,-4.123565673828125
1715093619078169000,12.895169189453124,0.9615020751953125,-8.602157592773438,-0.94647216796875
1715093619088148200,12.905148193359375,1.406829833984375,-8.8798828125,2.1564178466796875
1715093619098127600,12.915127685546874,0.29351806640625,-10.141632080078125,3.834747314453125
1715093619108076300,12.925076171875,-0.240386962890625,-14.094451904296875,3.1500091552734375
1715093619118055400,12.935055419921875,-2.0073089599609375,-19.2874755859375,2.407806396484375
