time,seconds_elapsed,z,y,x
1715093376392220400,0.164220458984375,2.082249641418457,-0.15371382236480713,-0.7652736902236938
1715093376402199600,0.174199462890625,1.1525449752807617,-0.27071380615234375,-0.26838409900665283
1715093376412179000,0.184178955078125,-0.20584964752197266,-0.41344642639160156,0.42375099658966064
1715093376422158000,0.194157958984375,-1.01715087890625,-0.07665705680847168,-0.07216501235961914
1715093376432137500,0.204137451171875,-1.221480369567871,-0.1682877540588379,0.05761849880218506
1715093376442116600,0.21411669921875,-0.9445466995239258,-0.10983586311340332,-0.23122823238372803
1715093376452096000,0.224095947265625,-0.6708393096923828,-0.19618821144104004,-0.6499948501586914
1715093376462075100,0.2340751953125,-0.3383817672729492,-0.20048308372497559,-0.7856903076171875
1715093376472054300,0.24405419921875,-0.12195777893066406,-0.27071285247802734,-0.6477205753326416
1715093376482033700,0.25403369140625,-0.022188186645507812,-0.21568751335144043,-0.26906824111938477
1715093376492012800,0.2640126953125,-0.1577615737915039,-0.023827552795410156,0.0757523775100708
1715093376501961700,0.273961669921875,-0.32198524475097656,0.22301673889160156,0.35329627990722656
1715093376511940900,0.28394091796875,-0.6190080642700195,0.3692927360534668,0.7890742421150208
1715093376521889500,0.2938896484375,-0.8334150314331055,0.3180239200592041,0.9729873538017273
1715093376531869000,0.303868896484375,-1.1176443099975586,0.10319209098815918,0.6965859532356262
1715093376541817600,0.313817626953125,-1.4405879974365234,-0.12141060829162598,0.6651046872138977
1715093376551796700,0.323796630859375,-1.6196279525756836,-0.18340444564819336,0.7831035256385803
1715093376561776000,0.333776123046875,-1.9365320205688477,-0.1034092903137207,0.8336652517318726
1715093376571724800,0.343724853515625,-2.563720703125,0.10147476196289062,0.7928622364997864
1715093376581704000,0.353703857421875,-2.2068166732788086,-0.14558792114257812,0.6025791168212891
1715093376591652900,0.36365283203125,-1.5197744369506836,-0.5864911079406738,0.6224235892295837
1715093376601632000,0.373632080078125,-1.6074542999267578,-0.4403700828552246,0.7055774331092834
1715093376611611400,0.383611328125,-2.361234664916992,-0.1479358673095703,0.8497244119644165
1715093376621560000,0.39356005859375,-3.2911109924316406,0.030493736267089844,0.7024638652801514
1715093376631539200,0.403539306640625,-4.000513076782227,0.045691490173339844,0.4632492661476135
1715093376641518600,0.4135185546875,-4.413372039794922,-0.20100927352905273,0.05457967519760132
1715093376651467300,0.42346728515625,-4.406558036804199,-0.12067794799804688,0.021680351346731186
1715093376661446400,0.4334462890625,-3.727871894836426,0.060163021087646484,0.17809703946113586
1715093376671425800,0.44342578125,-2.952423095703125,0.12303972244262695,0.1874212920665741
1715093376681374500,0.45337451171875,-0.9372081756591797,-0.10968494415283203,0.11149962246417999
1715093376691353600,0.463353515625,0.7563610076904297,-0.5482001304626465,-0.1467602550983429
1715093376701333000,0.4733330078125,0.5274572372436523,-1.1314139366149902,-0.084734246134758
1715093376711281700,0.48328173828125,-0.18096923828125,-0.8513169288635254,0.003533409908413887
1715093376721261000,0.493260986328125,-1.1727638244628906,-0.5422720909118652,0.2737576365470886
1715093376731240200,0.503240234375,-1.9640617370605469,-0.41162872314453125,0.2643401324748993
1715093376741219300,0.51321923828125,-2.2900876998901367,-0.618161678314209,-0.03946806117892265
1715093376751168300,0.523168212890625,-1.9233980178833008,-0.9962544441223145,-0.7411136627197266
1715093376761147400,0.5331474609375,-1.466914176940918,-1.1627397537231445,-1.1626611948013306
1715093376771126800,0.543126708984375,-1.18377685546875,-1.1139144897460938,-0.8489301204681396
1715093376781075500,0.553075439453125,-1.356344223022461,-1.8620686531066895,-1.0937154293060303
1715093376791054600,0.5630546875,-1.1425390243530273,-0.7714128494262695,-0.11194513738155365
1715093376801034000,0.573033935546875,-2.5747909545898438,0.2620677947998047,0.32000643014907837
1715093376810982700,0.582982666015625,-2.5158843994140625,0.8202886581420898,1.6716755628585815
1715093376820961800,0.5929619140625,-0.11983394622802734,0.5414543151855469,1.528480887413025
1715093376830941200,0.602941162109375,0.0794992446899414,0.518282413482666,1.2045962810516357
1715093376840889900,0.612889892578125,-0.08547782897949219,-0.3441190719604492,0.31311458349227905
1715093376850869000,0.622868896484375,-0.020575523376464844,-0.418215274810791,-0.04795724153518677
1715093376860848400,0.632848388671875,-0.32791805267333984,0.2358846664428711,0.0011277496814727783
1715093376870797000,0.642797119140625,-0.6785440444946289,-0.2596879005432129,-0.449545294046402
1715093376880776400,0.6527763671875,-0.2718973159790039,0.10316038131713867,-0.5507350564002991
1715093376890755600,0.662755615234375,0.014047622680664062,0.7988882064819336,0.13443893194198608
1715093376900704300,0.672704345703125,-0.024118423461914062,0.16405963897705078,0.13058367371559143
1715093376910683600,0.68268359375,0.30013084411621094,0.28308725357055664,-0.3506558835506439
1715093376920662800,0.692662841796875,0.2536296844482422,0.27927160263061523,-0.30951040983200073
1715093376930611500,0.702611572265625,0.2898998260498047,0.34534168243408203,-0.1792428344488144
1715093376940590800,0.7125908203125,0.09175395965576172,0.4948420524597168,0.05723421275615692
1715093376950570000,0.722570068359375,0.0044231414794921875,0.5686993598937988,0.3798581659793854
1715093376960518700,0.7325185546875,-0.250091552734375,0.6659045219421387,0.5701989531517029
1715093376970498000,0.742498046875,-0.5386180877685547,0.5128030776977539,0.40247100591659546
1715093376980477200,0.752477294921875,-0.4870338439941406,0.3580360412597656,0.2990257143974304
1715093376990425900,0.76242578125,-0.4176216125488281,0.2553553581237793,0.4803274869918823
1715093377000405200,0.7724052734375,-0.4875755310058594,0.17058324813842773,0.5650355815887451
1715093377010384400,0.78238427734375,-0.9962053298950195,0.13475465774536133,0.7227596044540405
1715093377020363800,0.79236376953125,-1.2039661407470703,0.05587959289550781,0.8199521899223328
1715093377030343000,0.802343017578125,-1.2187490463256836,0.04503202438354492,0.9603767395019531
1715093377040291600,0.81229150390625,-1.435378074645996,-0.1907367706298828,1.5679441690444946
1715093377050271000,0.82227099609375,-1.0623979568481445,-0.23047828674316406,1.4191982746124268
1715093377060250000,0.83225,0.6393280029296875,-0.27097225189208984,0.07481051981449127
1715093377070199000,0.842198974609375,1.581735610961914,-0.5980973243713379,0.14509905874729156
1715093377080178200,0.85217822265625,1.761566162109375,-0.13919973373413086,0.7053598165512085
1715093377090157300,0.8621572265625,0.684962272644043,-0.21303939819335938,0.6691057682037354
1715093377100106200,0.872106201171875,0.33647632598876953,-0.4024491310119629,0.5808373689651489
1715093377110085400,0.88208544921875,0.07411766052246094,-0.2894282341003418,0.7045289278030396
1715093377120064800,0.892064697265625,0.01761150360107422,-0.23051834106445312,0.5995104312896729
1715093377130013400,0.902013427734375,-0.011918067932128906,-0.25990962982177734,0.4629898965358734
1715093377139992600,0.91199267578125,-0.2833824157714844,-0.16325950622558594,0.38339707255363464
1715093377149972000,0.921971923828125,-0.623138427734375,-0.09447431564331055,0.4187804162502289
1715093377159920600,0.931920654296875,-0.7764368057250977,-0.1024785041809082,0.6529297232627869
1715093377169899800,0.941899658203125,-0.7768278121948242,0.20949077606201172,0.8538543581962585
1715093377179879200,0.951879150390625,-1.1539278030395508,0.18443012237548828,0.7283154129981995
1715093377189827800,0.961827880859375,-1.226449966430664,0.2753167152404785,0.3991970419883728
1715093377199807000,0.971806884765625,-1.2170896530151367,0.1738729476928711,-0.053865790367126465
1715093377209786400,0.981786376953125,-1.1539411544799805,-0.09384346008300781,-0.3658246397972107
1715093377219735000,0.991735107421875,-1.32427978515625,-0.21537446975708008,-0.19162964820861816
1715093377229714400,1.00171435546875,-1.6004791259765625,-0.30498170852661133,-0.08065086603164673
1715093377239693600,1.011693603515625,3.300919532775879,-0.779900074005127,-0.17044052481651306
1715093377249642200,1.021642333984375,3.1571998596191406,-0.44715118408203125,0.37303170561790466
1715093377259621600,1.03162158203125,0.03946208953857422,-0.031758785247802734,2.7926950454711914
1715093377269600800,1.041600830078125,-0.8497161865234375,0.21671390533447266,1.8596341609954834
1715093377279549400,1.051549560546875,-1.7236261367797852,-0.7619514465332031,1.518033742904663
1715093377289528800,1.06152880859375,0.032318115234375,0.2780594825744629,0.4929647445678711
1715093377299508000,1.071508056640625,-0.3476247787475586,-0.01699066162109375,0.6563253402709961
1715093377309487400,1.0814873046875,-1.3505010604858398,0.007672309875488281,0.4268757700920105
1715093377319466500,1.091466552734375,-2.1429128646850586,0.3543987274169922,1.1131500005722046
1715093377329415200,1.101415283203125,-1.834671974182129,0.09871101379394531,0.8779038786888123
1715093377339394600,1.11139453125,-1.168320655822754,0.3687877655029297,0.7591373324394226
1715093377349373700,1.121373779296875,-1.165053367614746,0.2263774871826172,0.894187867641449
1715093377359322400,1.131322265625,-0.941462516784668,0.14240264892578125,0.8909858465194702
1715093377369301800,1.1413017578125,-1.189610481262207,0.14030122756958008,0.7963300347328186
1715093377379281000,1.151281005859375,-1.5884027481079102,0.22411060333251953,0.9391506314277649
1715093377389229600,1.1612294921875,-1.2378644943237305,0.26247692108154297,1.2865493297576904
1715093377399209000,1.171208984375,-0.02100849151611328,0.024454116821289062,1.0778064727783203
1715093377409188000,1.18118798828125,0.2048482894897461,0.03138017654418945,-0.4247416853904724
1715093377419137000,1.191136962890625,-0.5270271301269531,-0.9739537239074707,0.5860435962677002
1715093377429116200,1.2011162109375,-1.1210832595825195,-1.2135028839111328,-0.3113859295845032
1715093377439095300,1.21109521484375,2.1699018478393555,-0.22392511367797852,-0.0233839750289917
1715093377449044200,1.221044189453125,1.6061134338378906,-1.4097380638122559,-0.49954259395599365
1715093377459023400,1.2310234375,1.5886726379394531,-0.19673728942871094,0.09593808650970459
1715093377469002800,1.241002685546875,-0.716944694519043,-0.8500466346740723,0.9815528988838196
1715093377478951400,1.250951416015625,-1.573822021484375,-0.9764809608459473,1.0436577796936035
1715093377488941300,1.26094140625,-1.41387939453125,-0.5631113052368164,1.069254994392395
1715093377498920400,1.27092041015625,-1.2903289794921875,-0.6613950729370117,0.5426371097564697
1715093377508869000,1.280869140625,-1.4159374237060547,-0.9029545783996582,0.19699907302856445
1715093377518848500,1.2908486328125,-1.7983884811401367,-1.251154899597168,-0.26018011569976807
1715093377528797200,1.300797119140625,-2.68918514251709,-1.7396855354309082,-1.1419801712036133
1715093377538776600,1.310776611328125,-3.4686708450317383,-2.5658483505249023,-1.560474157333374
1715093377548755700,1.320755615234375,-3.6815099716186523,-2.7721471786499023,-1.5117409229278564
1715093377558734800,1.33073486328125,-4.504605293273926,-3.1957099437713623,-1.5932801961898804
1715093377568683800,1.340683837890625,-4.079554557800293,-3.492845058441162,-1.1299608945846558
1715093377578663000,1.350662841796875,-3.6879234313964844,-3.2525413036346436,0.12469696998596191
1715093377588642300,1.360642333984375,-2.772618293762207,-2.691535711288452,1.1934914588928223
1715093377598621400,1.370621337890625,-1.1356792449951172,-2.28202486038208,1.3675038814544678
1715093377608600600,1.3806005859375,-0.009871482849121094,-3.1670081615448,0.8842031955718994
1715093377618549500,1.390549560546875,0.19295883178710938,-5.421917915344238,-0.15299105644226074
1715093377628528600,1.400528564453125,-0.26528453826904297,-7.41050386428833,-0.4369080066680908
1715093377638508000,1.410508056640625,-1.556814193725586,-8.349740028381348,0.48062431812286377
1715093377648456700,1.420456787109375,-3.0553903579711914,-8.506479263305664,1.5025606155395508
1715093377658435800,1.430435791015625,-4.184185028076172,-8.191354751586914,2.311894416809082
1715093377668415200,1.440415283203125,-2.8774423599243164,-6.926512241363525,3.3834428787231445
1715093377678364000,1.450364013671875,-2.079310417175293,-6.7076544761657715,3.6460728645324707
1715093377688343000,1.460343017578125,-1.5527725219726562,-6.1777729988098145,3.751997470855713
1715093377698322400,1.470322509765625,-1.1056394577026367,-6.558740615844727,1.852614402770996
1715093377708271000,1.48027099609375,-2.01031494140625,-7.79838752746582,-0.78336501121521
1715093377718250200,1.490250244140625,-3.093918800354004,-8.929281234741211,-3.6374521255493164
1715093377728229600,1.500229736328125,-2.74581241607666,-9.310999870300293,-5.363264083862305
1715093377738178300,1.51017822265625,-2.8289613723754883,-8.384500503540039,-5.321314334869385
1715093377748157700,1.52015771484375,-5.1046037673950195,-7.957009315490723,-4.284116744995117
1715093377758106400,1.5301064453125,-7.030735969543457,-7.900430202484131,-3.3200907707214355
1715093377768085500,1.54008544921875,-4.045380115509033,-6.760490417480469,-3.5889158248901367
1715093377778065000,1.55006494140625,-0.7123284339904785,-4.2854437828063965,-3.2882771492004395
1715093377788013600,1.560013671875,1.6060452461242676,-3.367271900177002,-2.5901565551757812
1715093377797992700,1.56999267578125,4.4254841804504395,-2.2846693992614746,1.907191276550293
1715093377807972000,1.57997216796875,7.345384120941162,-0.8938157558441162,6.410000801086426
1715093377817920800,1.589920654296875,9.620956420898438,-1.4534416198730469,4.245824813842773
1715093377827900000,1.59989990234375,10.967978477478027,-0.7892608642578125,5.941778182983398
1715093377837879300,1.60987939453125,14.455118179321289,4.321766376495361,21.109764099121094
1715093377847858400,1.6198583984375,20.033851623535156,4.686412811279297,19.742717742919922
1715093377857837800,1.629837890625,20.5966854095459,0.5196247100830078,10.031716346740723
1715093377867775000,1.63977490234375,15.171521186828613,-1.5292139053344727,-1.664372444152832
1715093377877754400,1.64975439453125,7.884721755981445,1.0265464782714844,-8.152748107910156
1715093377887733500,1.6597333984375,5.795409202575684,7.177468776702881,-7.748093128204346
1715093377897713000,1.669712890625,4.241966247558594,8.723739624023438,-2.8626339435577393
1715093377907661600,1.67966162109375,7.4355621337890625,11.706012725830078,1.2553300857543945
1715093377917640700,1.689640625,8.57731819152832,12.09683895111084,2.6097490787506104
1715093377927620000,1.6996201171875,5.1307549476623535,8.58664321899414,1.03916597366333
1715093377937568800,1.70956884765625,4.950783729553223,9.07876205444336,1.2759764194488525
1715093377947548000,1.7195478515625,5.085133075714111,10.133779525756836,2.9261326789855957
1715093377957496800,1.729496826171875,4.551275730133057,10.236141204833984,4.87233829498291
1715093377967476000,1.73947607421875,4.575046062469482,10.311251640319824,5.678669452667236
1715093377977455400,1.749455322265625,4.4912285804748535,10.137728691101074,4.513769149780273
1715093377987404000,1.759404052734375,4.132374286651611,9.968564987182617,3.532221794128418
1715093377997383200,1.769383056640625,2.4757118225097656,9.915250778198242,3.655646800994873
1715093378007362600,1.779362548828125,-0.22608375549316406,9.468156814575195,3.5880024433135986
1715093378017311200,1.789311279296875,-1.213578224182129,9.165414810180664,3.1381185054779053
1715093378027290400,1.799290283203125,-1.427217960357666,8.177606582641602,3.5582363605499268
1715093378037269800,1.809269775390625,-0.7182512283325195,6.638261318206787,4.775095462799072
1715093378047218400,1.819218505859375,1.0764307975769043,5.541569709777832,5.590272426605225
1715093378057197600,1.829197509765625,1.754500389099121,4.562082290649414,6.597057342529297
1715093378067177000,1.839177001953125,1.4034967422485352,3.86837100982666,8.10853385925293
1715093378077125600,1.849125732421875,-0.4681711196899414,2.6040897369384766,9.308771133422852
1715093378087104800,1.859104736328125,-0.1452333927154541,0.9299507141113281,8.199861526489258
1715093378097084200,1.869084228515625,0.5240702629089355,-0.5545806884765625,7.1260857582092285
1715093378107032800,1.87903271484375,1.5034663677215576,-2.629964828491211,5.54133415222168
1715093378117012200,1.88901220703125,1.8655908107757568,-2.7851457595825195,4.849596977233887
1715093378126991400,1.898991455078125,2.208772659301758,-2.872861862182617,4.1392669677734375
1715093378136970500,1.908970458984375,3.1261112689971924,-2.704151153564453,3.642150640487671
1715093378146919400,1.91891943359375,4.1025190353393555,-3.092082977294922,3.007336139678955
1715093378156898600,1.928898681640625,0.016312241554260254,-3.0130138397216797,2.089642286300659
1715093378166878000,1.9388779296875,-5.544589042663574,-3.8081560134887695,0.8960444331169128
1715093378176857000,1.948857177734375,-4.68189001083374,-3.7122068405151367,0.8198882937431335
1715093378186805800,1.9588056640625,-2.0276880264282227,-4.633388519287109,1.8897268772125244
1715093378196785200,1.96878515625,-0.950741708278656,-7.741580963134766,0.35480040311813354
1715093378206764300,1.978764404296875,0.01803412288427353,-9.330981254577637,-0.12415575981140137
1715093378216713000,1.988712890625,-2.835707902908325,-9.403929710388184,1.7574524879455566
1715093378226692400,1.9986923828125,-2.841679334640503,-8.009424209594727,3.750654935836792
1715093378236671500,2.00867138671875,-4.853361129760742,-8.284341812133789,4.934955596923828
1715093378246620200,2.0186201171875,-4.221538543701172,-6.42458438873291,2.4963150024414062
1715093378256602600,2.0286025390625,-2.7748374938964844,-4.261530876159668,-1.7050819396972656
1715093378266582000,2.03858203125,-3.4972739219665527,-4.544390678405762,-1.4776172637939453
1715093378276530700,2.04853076171875,2.454319715499878,-7.220854759216309,-2.1256532669067383
1715093378286509800,2.058509765625,6.23169469833374,-7.096048355102539,1.6197056770324707
1715093378296489200,2.0684892578125,4.814096927642822,-5.6503190994262695,2.254544973373413
1715093378306438000,2.07843798828125,2.1355278491973877,-3.7545976638793945,1.0971945524215698
1715093378316417300,2.088417236328125,-0.5899605751037598,-1.9068889617919922,0.4056011438369751
1715093378326396400,2.098396484375,0.7604876756668091,-0.516840934753418,0.45747828483581543
1715093378336345000,2.108344970703125,1.2572929859161377,1.192704200744629,-0.21421384811401367
1715093378346309600,2.1183095703125,0.46500563621520996,2.5015029907226562,-3.029017448425293
1715093378356289000,2.1282890625,-1.502008318901062,2.56264591217041,-6.913269996643066
1715093378366237700,2.13823779296875,-2.610265016555786,3.8308563232421875,-8.471826553344727
1715093378376217000,2.148217041015625,-3.2405824661254883,3.530588150024414,-7.38751220703125
1715093378386196200,2.1581962890625,-2.7715795040130615,2.915250778198242,-4.362442970275879
1715093378396145000,2.168144775390625,-2.0359246730804443,5.128698348999023,-3.3293042182922363
1715093378406124300,2.178124267578125,-0.9948931932449341,7.453075408935547,-1.2835450172424316
1715093378416103400,2.188103515625,-0.42022860050201416,7.413931846618652,-1.5216225385665894
1715093378426082800,2.198082763671875,-0.1684887409210205,5.571446418762207,-2.3001530170440674
1715093378436031500,2.208031494140625,0.10140430927276611,3.9291677474975586,-1.2905454635620117
1715093378446010600,2.2180107421875,0.2585552930831909,3.0445480346679688,0.4160485565662384
1715093378455990000,2.227989990234375,0.37297606468200684,1.8612232208251953,1.040421962738037
1715093378465969200,2.23796923828125,0.08806115388870239,0.09174060821533203,-0.10003942251205444
1715093378475917800,2.247917724609375,0.5901582837104797,-1.3242034912109375,0.3143632411956787
1715093378485897200,2.257897216796875,0.8860482573509216,-2.375112533569336,0.6454124450683594
1715093378495876400,2.26787646484375,1.8754467964172363,-3.4099597930908203,2.669045925140381
1715093378505825000,2.277824951171875,0.5582588911056519,-3.367319107055664,-0.7716277837753296
1715093378515804400,2.287804443359375,-1.2675809860229492,-3.282071113586426,-14.258966445922852
1715093378525798100,2.297798095703125,-1.0214340686798096,-5.691682815551758,-8.260066986083984
1715093378535747000,2.3077470703125,2.4217960834503174,-1.1726837158203125,1.8187315464019775
1715093378545726200,2.317726318359375,0.5077747106552124,0.9439973831176758,7.591386795043945
1715093378555705600,2.32770556640625,0.4197993874549866,1.8316211700439453,14.266761779785156
1715093378565654300,2.337654296875,0.568959653377533,2.051194190979004,16.31363868713379
1715093378575633400,2.34763330078125,-0.3082195520401001,-2.503826141357422,6.527612209320068
1715093378585612800,2.35761279296875,0.7807690501213074,-4.246133804321289,2.161648988723755
1715093378595561500,2.3675615234375,1.8455435037612915,-3.1264915466308594,3.1674132347106934
1715093378605540600,2.37754052734375,1.7936536073684692,-1.6798944473266602,4.499118804931641
1715093378615520000,2.38752001953125,0.6265450119972229,-0.21639442443847656,5.337688446044922
1715093378625468700,2.39746875,-1.581600546836853,2.6263809204101562,7.1523637771606445
1715093378635447800,2.40744775390625,-3.188181161880493,5.370168685913086,9.911569595336914
1715093378645427200,2.41742724609375,-1.8661739826202393,8.079463005065918,13.631916046142578
1715093378655376000,2.4273759765625,-2.9853854179382324,8.036293983459473,13.704754829406738
1715093378665355300,2.437355224609375,-4.0378031730651855,7.681371688842773,11.622823715209961
1715093378675334400,2.44733447265625,-3.1304073333740234,5.678872108459473,7.437224864959717
1715093378685283000,2.457282958984375,-2.3923139572143555,3.712611198425293,3.6138317584991455
1715093378695262500,2.467262451171875,0.1181412935256958,1.7195167541503906,3.496824264526367
1715093378705241600,2.47724169921875,2.1248865127563477,-2.18192195892334,-1.6497560739517212
1715093378715220700,2.487220703125,1.1720696687698364,-6.413297653198242,-10.581539154052734
1715093378725200100,2.4972001953125,8.105352401733398,-7.816481590270996,-18.764989852905273
1715093378735148800,2.507148681640625,9.9163818359375,-14.57807731628418,-21.353897094726562
1715093378745128200,2.517128173828125,8.538040161132812,-16.642662048339844,-11.158662796020508
1715093378755107300,2.527107421875,7.025810718536377,-13.481935501098633,-3.0127148628234863
1715093378765056000,2.537055908203125,1.5410442352294922,-10.169384956359863,-0.8871097564697266
1715093378775035400,2.547035400390625,-2.014960765838623,-6.118549346923828,0.08282899856567383
1715093378785014500,2.5570146484375,-1.4176537990570068,-2.0441389083862305,-0.15561115741729736
1715093378794963200,2.566963134765625,-2.482285499572754,0.8721075057983398,-1.426768183708191
1715093378804942600,2.576942626953125,-2.377854824066162,3.19180965423584,-4.153751373291016
1715093378814921700,2.586921630859375,-3.3156251907348633,2.6474266052246094,-0.8093715906143188
1715093378824870400,2.596870361328125,2.519943952560425,3.387613296508789,-1.2460145950317383
1715093378834849800,2.606849853515625,0.008655130863189697,2.6536989212036133,0.5640242099761963
1715093378844829000,2.616828857421875,0.318973183631897,1.772233009338379,0.4989973306655884
1715093378854777900,2.62677783203125,1.5189197063446045,0.783778190612793,1.4021490812301636
1715093378864757000,2.636757080078125,0.3276365399360657,0.5114707946777344,1.7138592004776
1715093378874736000,2.646736083984375,0.6614939570426941,-0.0752573013305664,1.6373021602630615
1715093378884685000,2.65668505859375,0.21243710815906525,-0.036388397216796875,1.2448662519454956
1715093378894664200,2.666664306640625,-0.6577439308166504,0.4614543914794922,0.6836098432540894
1715093378904643600,2.6766435546875,-1.3354237079620361,0.7927894592285156,0.25095731019973755
1715093378914592300,2.68659228515625,-1.4264768362045288,0.8107824325561523,0.10020077228546143
1715093378924571400,2.6965712890625,-0.9680252075195312,0.4477500915527344,-0.2531697750091553
1715093378934550800,2.70655078125,-0.8713362812995911,-0.10343647003173828,-0.6801643371582031
1715093378944499500,2.71649951171875,0.31678318977355957,0.9547882080078125,-0.33128756284713745
1715093378954478600,2.726478515625,0.9845587015151978,1.8552837371826172,0.3270636200904846
1715093378964458000,2.7364580078125,0.5383794903755188,1.0315046310424805,0.2162134349346161
1715093378974406700,2.74640673828125,0.18296360969543457,3.2465076446533203,0.09984773397445679
1715093378984385800,2.7563857421875,2.3899099826812744,6.215494155883789,0.7260457873344421
1715093378994365200,2.766365234375,1.9330642223358154,5.7204484939575195,0.4121004343032837
1715093379004344300,2.77634423828125,-0.14587825536727905,2.6275720596313477,-0.8470627069473267
1715093379014293200,2.786293212890625,1.4790911674499512,-0.10863876342773438,-1.311772346496582
1715093379024272400,2.7962724609375,-0.40775686502456665,0.42453670501708984,-0.760404109954834
1715093379034253300,2.80625341796875,-3.4069395065307617,1.394871711730957,-0.5315110683441162
1715093379044232700,2.816232666015625,-2.613574504852295,3.812488555908203,-0.020305514335632324
1715093379054181400,2.826181396484375,-2.378352642059326,2.775986671447754,-0.38323646783828735
1715093379064160500,2.836160400390625,-0.3285675644874573,1.107736587524414,-1.4290480613708496
1715093379074140000,2.846139892578125,4.686773777008057,-7.0404157638549805,-6.5311431884765625
1715093379084088600,2.856088623046875,5.619555473327637,-6.7544965744018555,5.413331508636475
1715093379094067700,2.866067626953125,-0.6797983646392822,-4.307389259338379,8.99997615814209
1715093379104047000,2.876047119140625,-1.0333905220031738,-11.433632850646973,-5.103866100311279
1715093379113995800,2.885995849609375,0.6138975024223328,-2.9794130325317383,3.1547789573669434
1715093379123975200,2.89597509765625,1.6638610363006592,-0.5165853500366211,1.6577357053756714
1715093379133954300,2.905954345703125,1.3694051504135132,0.35513782501220703,1.055100440979004
1715093379143903000,2.915903076171875,1.318359136581421,0.4609403610229492,1.0272643566131592
1715093379153882400,2.92588232421875,1.1432081460952759,0.47705841064453125,0.6641901731491089
1715093379163861500,2.935861572265625,0.752086877822876,0.5700006484985352,1.032991647720337
1715093379173810200,2.94581005859375,0.7435840368270874,0.11758613586425781,1.540276050567627
1715093379183789600,2.95578955078125,0.7194347381591797,-0.4493522644042969,2.2076878547668457
1715093379193768700,2.965768798828125,0.4318022131919861,-0.5874862670898438,2.723653793334961
1715093379203717400,2.97571728515625,-0.10813271999359131,-0.19218921661376953,2.2341785430908203
1715093379213696800,2.98569677734375,-2.854159355163574,1.4611997604370117,1.1908677816390991
1715093379223676000,2.995676025390625,-3.7592363357543945,3.91091251373291,-1.314933180809021
1715093379233624800,3.005624755859375,-1.9199261665344238,4.693368911743164,-2.1768312454223633
1715093379243604000,3.01560400390625,-1.2535459995269775,4.41928768157959,-1.1713640689849854
1715093379253583000,3.0255830078125,-1.2228050231933594,4.37470817565918,-1.2592538595199585
1715093379263532000,3.035531982421875,-5.4620680809021,6.976613998413086,-0.44090282917022705
1715093379273511200,3.04551123046875,-1.1352994441986084,7.775566101074219,1.8629369735717773
1715093379283490600,3.055490478515625,-1.395890235900879,8.097780227661133,1.4392764568328857
1715093379293469700,3.0654697265625,6.561160564422607,2.3509130477905273,-2.614246368408203
1715093379303418400,3.07541845703125,6.086695194244385,-1.5425920486450195,-0.6778590083122253
1715093379313397800,3.085397705078125,5.6837005615234375,-3.468839645385742,1.5132637023925781
1715093379323377000,3.095376953125,3.585289478302002,-6.262691497802734,2.389925718307495
1715093379333356300,3.105356201171875,0.5066618919372559,-6.720728874206543,3.770761251449585
1715093379343305000,3.115304931640625,-2.1544923782348633,-7.699251174926758,5.379528045654297
1715093379353284000,3.1252841796875,-3.328932762145996,-8.403243064880371,5.2511515617370605
1715093379363263500,3.135263427734375,-3.3812031745910645,-4.924844741821289,4.189507007598877
1715093379373212200,3.145212158203125,-2.7440829277038574,-4.140682220458984,1.6198971271514893
1715093379383191300,3.15519140625,-3.116762161254883,-3.0049076080322266,3.6667652130126953
1715093379393170700,3.165170654296875,-1.9425687789916992,-1.7720375061035156,2.97149920463562
1715093379403119400,3.175119384765625,-1.5338351726531982,-1.6489944458007812,1.8709900379180908
1715093379413098500,3.185098388671875,-0.6404888033866882,-1.2981538772583008,1.519141435623169
1715093379423078000,3.195077880859375,0.3084299564361572,-0.7473821640014648,1.4192787408828735
1715093379433026600,3.205026611328125,0.5759694576263428,-0.2963724136352539,1.134827971458435
1715093379443005700,3.215005615234375,0.6573599576950073,0.23357200622558594,0.942680835723877
1715093379452985000,3.224985107421875,0.533261239528656,0.4271221160888672,0.5941139459609985
1715093379462933800,3.234933837890625,0.6077227592468262,0.5909585952758789,0.3791975975036621
1715093379472913200,3.2449130859375,0.5569607019424438,0.6443729400634766,0.15300333499908447
1715093379482892300,3.254892333984375,0.6788477301597595,0.8172826766967773,0.12988626956939697
1715093379492841000,3.264841064453125,0.6278709173202515,0.8561868667602539,0.25591957569122314
1715093379502820400,3.2748203125,0.20814496278762817,0.7284173965454102,0.18761765956878662
1715093379512799500,3.284799560546875,0.0742444396018982,0.9327917098999023,0.44274890422821045
1715093379522748200,3.294748046875,-0.2854822278022766,0.9938421249389648,0.2963533401489258
1715093379532727600,3.3047275390625,-0.2793579697608948,1.2515249252319336,0.373468279838562
1715093379542706700,3.314706787109375,-0.13811486959457397,1.4001855850219727,0.2510443925857544
1715093379552655400,3.3246552734375,0.05528461933135986,1.5741653442382812,0.16361165046691895
1715093379562634800,3.334634765625,0.17394506931304932,1.647324562072754,-0.013201475143432617
1715093379572614000,3.34461376953125,0.6585269570350647,1.91070556640625,0.01606297492980957
1715093379582593300,3.35459326171875,1.0080164670944214,1.9267473220825195,-0.2069838047027588
1715093379592542000,3.3645419921875,0.966757595539093,1.9873266220092773,-0.26491785049438477
1715093379602521000,3.37452099609375,1.0331776142120361,2.1158504486083984,-0.1985006332397461
1715093379612500500,3.38450048828125,1.1087250709533691,2.1994571685791016,-0.08192265033721924
1715093379622479600,3.394479736328125,1.2003939151763916,2.247478485107422,0.044880032539367676
1715093379632428500,3.404428466796875,1.2750051021575928,2.2432069778442383,0.16209959983825684
1715093379642407700,3.41440771484375,1.3540496826171875,2.241607666015625,0.2885305881500244
1715093379652386800,3.42438671875,1.38206148147583,2.1996192932128906,0.45978593826293945
1715093379662335700,3.434335693359375,1.4021940231323242,2.2056779861450195,0.6377301216125488
1715093379672315000,3.44431494140625,1.4190094470977783,2.2716169357299805,0.8110008239746094
1715093379682294300,3.454294189453125,1.4297361373901367,2.2063283920288086,1.0135360956192017
1715093379692243000,3.464242919921875,1.3750529289245605,2.057954788208008,1.3458513021469116
1715093379702222000,3.47422216796875,1.1794151067733765,1.7121639251708984,1.8337836265563965
1715093379712201500,3.484201416015625,0.9267936944961548,1.2837762832641602,2.4081544876098633
1715093379722150100,3.494150146484375,0.6518968939781189,0.6342239379882812,2.81597638130188
1715093379732129300,3.50412939453125,0.35783666372299194,-0.11220264434814453,3.1004140377044678
1715093379742108700,3.514108642578125,0.06984931230545044,-0.8102197647094727,3.2548205852508545
1715093379752057300,3.524057373046875,-0.12898927927017212,-1.162257194519043,3.2181944847106934
1715093379762036500,3.534036376953125,0.005551755428314209,-1.5829153060913086,2.6780810356140137
1715093379772015900,3.544015869140625,0.5878909230232239,-1.9578619003295898,1.7738944292068481
1715093379781964500,3.553964599609375,1.3954905271530151,-2.2080583572387695,0.8216778039932251
1715093379791944000,3.56394384765625,2.4867820739746094,-2.0987672805786133,0.624082088470459
1715093379801892600,3.573892578125,2.902971029281616,-1.7792234420776367,1.5322705507278442
1715093379811871700,3.583871826171875,2.9854371547698975,-1.0953121185302734,3.091397762298584
1715093379821851100,3.59385107421875,1.851402759552002,-1.7719230651855469,4.7182488441467285
1715093379831799800,3.6037998046875,0.8438168168067932,-3.5724573135375977,5.827376842498779
1715093379841779000,3.613779052734375,1.0680265426635742,-5.570241928100586,6.2782182693481445
1715093379851758300,3.62375830078125,1.0929807424545288,-6.898075103759766,4.826627731323242
1715093379861737500,3.633737548828125,2.287961006164551,-5.751877784729004,2.543621778488159
1715093379871716900,3.643716796875,1.5368809700012207,-4.524449348449707,1.5517829656600952
1715093379881665500,3.65366552734375,1.2411096096038818,-2.660677909851074,0.5021240711212158
1715093379891644700,3.663644775390625,0.24471038579940796,-2.6619653701782227,0.8701660633087158
1715093379901624000,3.6736240234375,1.3331331014633179,-0.32189083099365234,-0.19714510440826416
1715093379911603200,3.683603271484375,-2.34309720993042,-0.4093770980834961,-2.6419777870178223
1715093379921552000,3.6935517578125,-1.6315438747406006,-1.2785711288452148,-2.2263429164886475
1715093379931531300,3.70353125,-3.1389613151550293,-1.8853979110717773,-1.1311808824539185
1715093379941510400,3.713510498046875,-2.955925703048706,-0.5904130935668945,-0.920555830001831
1715093379951459000,3.723458984375,-1.743577241897583,1.055872917175293,-1.4070606231689453
1715093379961438500,3.7334384765625,-1.2834396362304688,1.994307518005371,-1.2452301979064941
1715093379971417600,3.74341748046875,-1.6970683336257935,2.1165590286254883,-1.5598201751708984
1715093379981366500,3.753366455078125,-1.9870984554290771,1.9400815963745117,-2.600595474243164
1715093379991345700,3.763345703125,-1.4779633283615112,1.1766471862792969,-3.9959189891815186
1715093380001324800,3.77332470703125,-0.5228676795959473,0.7079734802246094,-4.931902885437012
1715093380011273700,3.783273681640625,0.5866241455078125,0.7718448638916016,-5.547225475311279
1715093380021252900,3.7932529296875,0.8766099810600281,0.9295816421508789,-5.803007125854492
1715093380031232300,3.803232177734375,1.2459527254104614,1.3990936279296875,-5.1458940505981445
1715093380041181000,3.813180908203125,1.2220184803009033,2.1826725006103516,-3.988823890686035
1715093380051160000,3.82316015625,0.8262295126914978,2.238123893737793,-2.69565486907959
1715093380061139500,3.833139404296875,0.59493088722229,2.0037784576416016,-1.720413088798523
1715093380071088000,3.843088134765625,0.43815696239471436,1.8963794708251953,-1.6065877676010132
1715093380081067300,3.8530673828125,0.5078986287117004,1.299330711364746,-1.6051057577133179
1715093380091046700,3.863046630859375,1.1505229473114014,1.020956039428711,-1.300653338432312
1715093380100995300,3.872995361328125,1.3464562892913818,0.5619573593139648,-1.461036205291748
1715093380110974500,3.882974365234375,1.778186321258545,0.3914327621459961,-1.1360065937042236
1715093380120923400,3.89292333984375,1.587856650352478,0.5965290069580078,-0.8948541879653931
1715093380130902500,3.902902587890625,0.8424559831619263,1.0891647338867188,-0.6119644641876221
1715093380140882000,3.9128818359375,0.4516255855560303,1.5531253814697266,-0.28402191400527954
1715093380150861000,3.922861083984375,0.2565619945526123,1.8188438415527344,0.007320821285247803
1715093380160840200,3.932840087890625,0.46772098541259766,1.6916074752807617,-0.13526323437690735
1715093380170789000,3.9427890625,0.6168889999389648,1.5639657974243164,-0.017736375331878662
1715093380180768300,3.952768310546875,0.9433220624923706,1.3521671295166016,0.23648737370967865
1715093380190747600,3.96274755859375,1.2256536483764648,1.0064325332641602,0.6574534773826599
1715093380200726800,3.972726806640625,1.3531115055084229,0.6590404510498047,0.9864992499351501
1715093380210675500,3.982675537109375,1.346374273300171,0.8380899429321289,1.5566412210464478
1715093380220654800,3.99265478515625,1.0923378467559814,0.27136707305908203,2.082939386367798
1715093380230634000,4.002634033203125,1.028232455253601,0.23576068878173828,2.0951743125915527
1715093380240582700,4.012582763671875,1.0105299949645996,0.2788839340209961,2.7228410243988037
1715093380250562000,4.02256201171875,0.7708917856216431,0.45282936096191406,3.3282034397125244
1715093380260541200,4.032541259765625,-0.014971733093261719,0.36932373046875,3.886357545852661
1715093380270489900,4.04248974609375,-0.7075413465499878,0.8232707977294922,4.136821746826172
1715093380280469200,4.05246923828125,-1.3214837312698364,0.9090986251831055,4.43613862991333
1715093380290448400,4.062448486328125,-1.4296694993972778,0.7316112518310547,4.224969863891602
1715093380300397000,4.07239697265625,-1.4311448335647583,0.4466714859008789,4.1510186195373535
1715093380310376400,4.08237646484375,-0.2637810707092285,0.08420562744140625,3.500955104827881
1715093380320355600,4.09235546875,1.1011908054351807,-0.18625450134277344,2.6534066200256348
1715093380330304500,4.102304443359375,2.857583522796631,0.039078712463378906,1.5728428363800049
1715093380340283600,4.11228369140625,5.194633483886719,0.8152828216552734,0.8861925005912781
1715093380350262800,4.1222626953125,6.603963851928711,1.3350000381469727,1.0382213592529297
1715093380360211700,4.132211669921875,7.353585243225098,1.697011947631836,0.4554549753665924
1715093380370190800,4.14219091796875,6.581911087036133,1.8796577453613281,0.05774727463722229
1715093380380139500,4.152139404296875,3.9617786407470703,1.5756959915161133,0.5184497833251953
1715093380390119000,4.162118896484375,2.2135231494903564,0.07366275787353516,1.3964526653289795
1715093380400098000,4.17209814453125,1.7420117855072021,-1.9661312103271484,1.1915727853775024
1715093380410046700,4.182046630859375,1.9064664840698242,-3.399747848510742,0.9257940053939819
1715093380420026000,4.192026123046875,2.8676934242248535,-4.1241559982299805,1.0543345212936401
1715093380430005200,4.202005126953125,4.6483683586120605,-3.916379928588867,1.9685670137405396
1715093380439984600,4.211984619140625,3.8124301433563232,-3.266519546508789,3.4822700023651123
1715093380449963800,4.2219638671875,1.8617751598358154,-2.4133529663085938,3.864020824432373
1715093380459912400,4.231912353515625,0.6248185634613037,-1.2511978149414062,3.3819591999053955
1715093380469891800,4.241891845703125,-0.4234902858734131,0.12128925323486328,2.644012928009033
1715093380479871000,4.25187109375,-1.134686827659607,0.8130569458007812,1.0278964042663574
1715093380489820000,4.26181982421875,-1.4790723323822021,0.8537883758544922,-0.7675529718399048
1715093380499799000,4.271799072265625,-1.778333306312561,0.4514141082763672,-2.319605588912964
1715093380509778200,4.281778076171875,-1.9449248313903809,-0.39527034759521484,-4.291437149047852
1715093380519757600,4.291757568359375,-2.9604969024658203,-1.0771093368530273,-6.892643451690674
1715093380529706200,4.301706298828125,-3.785015344619751,-1.281930923461914,-8.888399124145508
1715093380539685600,4.311685546875,-4.032552242279053,-1.817530632019043,-9.833640098571777
1715093380549664800,4.321664794921875,-3.518296718597412,-3.6289939880371094,-9.118175506591797
1715093380559613400,4.331613525390625,-3.1501975059509277,-5.88238525390625,-6.9361772537231445
1715093380569592800,4.3415927734375,-2.9478187561035156,-7.345438003540039,-2.709686040878296
1715093380579572000,4.351572021484375,-3.4110522270202637,-6.980783462524414,1.6703853607177734
1715093380589520600,4.361520751953125,-5.878232955932617,-5.540197372436523,4.687453269958496
1715093380599500000,4.3715,-7.802786827087402,-4.509757995605469,6.050456523895264
1715093380609479200,4.381479248046875,-8.709399223327637,-4.4563398361206055,7.279077529907227
1715093380619427800,4.391427734375,-7.686481952667236,-2.3075103759765625,8.836345672607422
1715093380629407200,4.4014072265625,-5.854887962341309,0.7508230209350586,8.31080436706543
1715093380639356000,4.41135595703125,-4.263786315917969,2.0230703353881836,6.544732093811035
1715093380649335300,4.421335205078125,-3.2248973846435547,1.958897590637207,3.5219483375549316
1715093380659314400,4.431314453125,-1.7056879997253418,1.4915237426757812,1.4371337890625
1715093380669263000,4.44126318359375,0.16377246379852295,1.041280746459961,-0.20388054847717285
1715093380679242500,4.451242431640625,1.3060070276260376,0.7353096008300781,-1.730033278465271
1715093380689221600,4.4612216796875,2.039788007736206,0.7501125335693359,-2.472609043121338
1715093380699200800,4.47120068359375,2.002075672149658,1.1673297882080078,-2.6769933700561523
1715093380709149700,4.481149658203125,1.3904697895050049,1.9585752487182617,-3.1748831272125244
1715093380719128800,4.49112890625,0.6083732843399048,2.7281227111816406,-3.758784294128418
1715093380729108200,4.501108154296875,-0.1330430507659912,3.414693832397461,-3.7511110305786133
1715093380739087400,4.51108740234375,-0.8171758651733398,3.7851696014404297,-3.525545597076416
1715093380749066500,4.52106640625,-1.434437870979309,3.77996826171875,-3.266084909439087
1715093380759015400,4.531015380859375,-1.8867151737213135,3.5690746307373047,-3.07955002784729
1715093380768994600,4.54099462890625,-1.929886817932129,3.2761459350585938,-3.0257506370544434
1715093380778974000,4.550973876953125,-1.5112245082855225,3.1188573837280273,-2.9430928230285645
1715093380788922600,4.560922607421875,-0.9431647062301636,3.037468910217285,-3.0164177417755127
1715093380798901800,4.57090185546875,0.04101729393005371,3.08347225189209,-3.0304336547851562
1715093380808881200,4.580881103515625,0.7791882753372192,3.322040557861328,-2.7906153202056885
1715093380818829800,4.590829833984375,1.3201016187667847,3.577260971069336,-2.416302442550659
1715093380828809000,4.60080908203125,1.426051378250122,3.3904571533203125,-1.8197197914123535
1715093380838788400,4.610788330078125,1.150059461593628,2.8485918045043945,-0.7786619663238525
1715093380848737000,4.620737060546875,1.0334358215332031,2.5885610580444336,1.1679118871688843
1715093380858716200,4.630716064453125,0.9024364948272705,2.831724166870117,3.702836513519287
1715093380868665000,4.6406650390625,0.2103039026260376,2.215451240539551,5.704712867736816
1715093380878644200,4.650644287109375,-0.27293896675109863,0.7469320297241211,7.248273849487305
1715093380888623600,4.66062353515625,-0.4784146547317505,-1.2142353057861328,8.774670600891113
1715093380898572300,4.670572265625,-0.07292485237121582,-3.135194778442383,8.288898468017578
1715093380908551400,4.680551513671875,1.052744746208191,-4.176229476928711,6.280594825744629
1715093380918530800,4.69053076171875,0.14583373069763184,-5.671148300170898,3.1972291469573975
1715093380928479500,4.7004794921875,-0.6252870559692383,-6.755192756652832,-0.17058110237121582
1715093380938458600,4.710458740234375,0.11707770824432373,-8.122133255004883,-2.893789768218994
1715093380948438000,4.72043798828125,3.792269706726074,-8.345320701599121,-3.6623318195343018
1715093380958386700,4.73038671875,4.546497821807861,-5.412668228149414,-2.319491147994995
1715093380968365800,4.74036572265625,0.7867406606674194,-1.1063432693481445,0.4513571262359619
1715093380978345200,4.75034521484375,0.031417131423950195,-2.1418933868408203,3.1875486373901367
1715093380988324400,4.760324462890625,0.8986799716949463,-4.780994415283203,4.261141777038574
1715093380998273300,4.770273193359375,-0.9905664920806885,-5.54266357421875,3.7246813774108887
1715093381008252400,4.78025244140625,-6.592597961425781,-6.19947624206543,0.33292531967163086
1715093381018231600,4.7902314453125,-7.180436134338379,-8.82698917388916,-2.445643186569214
1715093381028211000,4.8002109375,-6.938435077667236,-10.336991310119629,-4.695616722106934
1715093381038190000,4.810190185546875,-3.436826705932617,-5.962337493896484,-6.304131507873535
1715093381048138800,4.820138671875,-0.8953202366828918,-0.8902807235717773,-4.0856733322143555
1715093381058118100,4.8301181640625,1.378868579864502,1.771352767944336,-0.8117067813873291
1715093381068066800,4.84006689453125,2.1160268783569336,3.944523811340332,1.2106013298034668
1715093381078046200,4.850046142578125,1.9310561418533325,5.881572723388672,0.28708934783935547
1715093381088025300,4.860025390625,1.4606969356536865,6.666614532470703,-2.364246129989624
1715093381098004500,4.87000439453125,0.8288528919219971,6.562835693359375,-3.775127649307251
1715093381107953400,4.879953369140625,0.33189064264297485,5.032954216003418,-4.510951042175293
1715093381117932500,4.8899326171875,0.39887285232543945,2.874032974243164,-4.755460739135742
1715093381127912000,4.899911865234375,0.8268563151359558,0.502532958984375,-4.481070518493652
1715093381137860600,4.909860595703125,1.1194446086883545,-1.9730596542358398,-4.438932418823242
1715093381147839700,4.91983984375,0.5522972941398621,-4.361827850341797,-5.176273822784424
1715093381157819100,4.929819091796875,-0.746780514717102,-5.231148719787598,-5.347250938415527
1715093381167767800,4.939767822265625,-1.0104196071624756,-3.7630062103271484,-5.684429168701172
1715093381177747000,4.949746826171875,0.23898953199386597,-0.23933792114257812,-4.363251686096191
1715093381187695900,4.95969580078125,1.513922929763794,2.980381965637207,-3.2037220001220703
1715093381197675000,4.969675048828125,2.667539596557617,4.587313652038574,-2.98988676071167
1715093381207654100,4.979654052734375,3.5179927349090576,5.50581169128418,-2.8382153511047363
1715093381217603000,4.98960302734375,3.2638440132141113,5.474660873413086,-2.5866036415100098
1715093381227582200,4.999582275390625,2.2031779289245605,5.10004997253418,-1.8686572313308716
1715093381237561600,5.0095615234375,1.413149118423462,4.720822334289551,-0.523700475692749
1715093381247510300,5.01951025390625,0.7895788550376892,3.8633413314819336,0.6707478761672974
1715093381257489400,5.029489501953125,0.326904833316803,2.5383052825927734,1.7380928993225098
1715093381267468800,5.03946875,0.31317341327667236,1.0575141906738281,2.9218902587890625
1715093381277417500,5.04941748046875,0.40414220094680786,0.039849281311035156,3.974963903427124
1715093381287396600,5.059396728515625,0.274267315864563,-0.08822154998779297,4.201662063598633
1715093381297376000,5.0693759765625,0.07458096742630005,0.5132989883422852,4.064788818359375
1715093381307355100,5.079355224609375,-0.302204966545105,1.1684398651123047,3.946103572845459
1715093381317334500,5.08933447265625,-0.8704619407653809,1.2984533309936523,3.6768698692321777
1715093381327283200,5.099283203125,-1.233912467956543,0.9092283248901367,3.41310977935791
1715093381337262300,5.109262451171875,-1.5539085865020752,0.5034608840942383,3.243621349334717
1715093381347241700,5.11924169921875,-1.470245599746704,0.43223094940185547,2.906691551208496
1715093381357220900,5.129220947265625,-1.4959157705307007,0.40294551849365234,2.661911964416504
1715093381367169500,5.13916943359375,-1.531491994857788,0.4437379837036133,2.7218246459960938
1715093381377149000,5.14914892578125,-0.7690209150314331,0.5065650939941406,2.7149031162261963
1715093381387128000,5.159128173828125,1.241100788116455,0.545222282409668,2.101667881011963
1715093381397077000,5.169076904296875,3.8318073749542236,0.7280054092407227,1.7272131443023682
1715093381407056100,5.17905615234375,5.95875883102417,1.0370569229125977,0.33461862802505493
1715093381417035300,5.18903515625,7.001972675323486,1.5287113189697266,-0.5553637146949768
1715093381426984200,5.198984130859375,6.646692276000977,1.5893735885620117,-0.8321771621704102
1715093381436963300,5.20896337890625,5.385981559753418,0.6606264114379883,-0.9802637696266174
1715093381446942500,5.2189423828125,4.092897415161133,-1.101358413696289,-0.6428784728050232
1715093381456891400,5.228891357421875,2.439614772796631,-2.5312376022338867,0.40786296129226685
1715093381466870500,5.23887060546875,1.875007152557373,-3.2133350372314453,0.6958616971969604
1715093381476819200,5.248819091796875,1.068251132965088,-3.4402294158935547,0.8777099847793579
1715093381486798600,5.258798583984375,1.9415197372436523,-3.199295997619629,1.7750548124313354
1715093381496777700,5.26877783203125,2.3233702182769775,-2.4604578018188477,3.172354221343994
1715093381506726400,5.278726318359375,1.7394951581954956,-1.7261552810668945,3.9837026596069336
1715093381516705800,5.288705810546875,1.848190188407898,-0.9984636306762695,4.102906227111816
1715093381526685000,5.298684814453125,1.4398763179779053,-0.5772056579589844,2.9510550498962402
1715093381536633900,5.3086337890625,0.8679631948471069,-0.9892377853393555,1.0033599138259888
1715093381546613000,5.318613037109375,0.5563842058181763,-2.1253652572631836,-0.6436917185783386
1715093381556592000,5.328592041015625,0.035170674324035645,-3.3132076263427734,-2.671156406402588
1715093381566571500,5.338571533203125,-0.5731910467147827,-3.875168800354004,-4.512151718139648
1715093381576550700,5.348550537109375,-2.7149410247802734,-2.6047706604003906,-8.103128433227539
1715093381586499600,5.35849951171875,-5.168126106262207,-1.789443016052246,-10.547257423400879
1715093381596478700,5.368478759765625,-6.905804634094238,-2.314375877380371,-12.599112510681152
1715093381606457900,5.378457763671875,-7.093022346496582,-2.5908966064453125,-12.057416915893555
1715093381616437200,5.388437255859375,-6.217128276824951,-2.4082136154174805,-8.543174743652344
1715093381626386000,5.398385986328125,-5.691566467285156,-2.900052070617676,-3.006270408630371
1715093381636365300,5.408365234375,-5.934458255767822,-3.2804718017578125,1.7336211204528809
1715093381646344400,5.418344482421875,-5.939088821411133,-1.8782176971435547,4.686488628387451
1715093381656293000,5.428293212890625,-5.577307224273682,0.3554849624633789,6.106015205383301
1715093381666272500,5.4382724609375,-5.419832229614258,0.3094625473022461,6.854728698730469
1715093381676251600,5.448251708984375,-4.572620391845703,-1.974222183227539,9.989508628845215
1715093381686200300,5.458200439453125,-5.037417888641357,-2.405406951904297,10.823912620544434
1715093381696179700,5.4681796875,-5.652350425720215,-1.914881706237793,7.832271099090576
1715093381706158800,5.478158935546875,-4.4680070877075195,-0.5174894332885742,5.062230110168457
1715093381716107500,5.488107421875,-3.6076948642730713,0.9761056900024414,3.838296413421631
1715093381726087000,5.4980869140625,-2.250978946685791,1.3920040130615234,2.693289279937744
1715093381736066000,5.508066162109375,-0.5998133420944214,0.9207859039306641,0.715402364730835
1715093381746015000,5.518014892578125,0.23231840133666992,0.03548431396484375,-1.0345752239227295
1715093381755994000,5.527994140625,0.6625255346298218,-0.4906654357910156,-2.1319260597229004
1715093381765973200,5.53797314453125,1.1880167722702026,0.013009071350097656,-2.5491111278533936
1715093381775922200,5.547922119140625,1.4031957387924194,1.2940473556518555,-2.649703025817871
1715093381785901300,5.5579013671875,1.2051713466644287,2.612420082092285,-3.060744285583496
1715093381795850000,5.56785009765625,0.8536547422409058,3.4770822525024414,-3.697070837020874
1715093381805829400,5.577829345703125,0.3072373867034912,4.1442108154296875,-3.7482168674468994
1715093381815808500,5.58780859375,-0.1496957540512085,4.537956237792969,-3.4066507816314697
1715093381825757200,5.597757080078125,-0.5081257820129395,4.25466251373291,-3.6843373775482178
1715093381835736600,5.607736572265625,-0.8556952476501465,4.51991081237793,-3.5523664951324463
1715093381845715700,5.6177158203125,-0.9448933601379395,4.424890518188477,-3.3602170944213867
1715093381855695000,5.627695068359375,-0.6425957679748535,4.250699043273926,-3.2219791412353516
1715093381865674200,5.63767431640625,0.14142084121704102,4.197888374328613,-3.230673313140869
1715093381875623000,5.647622802734375,1.1168785095214844,4.042807579040527,-2.9475936889648438
1715093381885602300,5.657602294921875,1.7702044248580933,3.9205236434936523,-2.580038547515869
1715093381895581400,5.66758154296875,2.008837938308716,3.5958662033081055,-1.8193211555480957
1715093381905560800,5.677560791015625,2.265136241912842,3.1055307388305664,-0.6856536865234375
1715093381915509500,5.687509521484375,2.3528380393981934,2.3849411010742188,1.0101101398468018
1715093381925488600,5.697488525390625,2.18766450881958,1.976475715637207,3.544619560241699
1715093381935468000,5.707468017578125,1.637176752090454,1.7584705352783203,6.593709468841553
1715093381945416700,5.717416748046875,0.417999267578125,0.3093070983886719,8.646917343139648
1715093381955395800,5.727395751953125,-0.5116573572158813,-1.8037090301513672,10.261667251586914
1715093381965375200,5.737375244140625,-2.7126457691192627,-4.264017105102539,9.347993850708008
1715093381975324000,5.747323974609375,-5.498199939727783,-6.241283416748047,6.169796943664551
1715093381985303300,5.75730322265625,-4.376712799072266,-7.850225448608398,1.842529535293579
1715093381995282400,5.767282470703125,-0.5384340286254883,-8.491146087646484,-1.6878504753112793
1715093382005231000,5.777231201171875,3.6829111576080322,-9.079309463500977,-3.320185899734497
1715093382015210500,5.78721044921875,7.599979877471924,-7.009450912475586,-2.71724534034729
1715093382025159200,5.7971591796875,4.693085193634033,-2.104466438293457,-1.4911208152770996
1715093382035138300,5.80713818359375,1.6362736225128174,0.33737945556640625,1.8865008354187012
1715093382045117700,5.81711767578125,0.9017473459243774,-2.2034997940063477,4.788607597351074
1715093382055066400,5.82706640625,-0.050559937953948975,-3.580874443054199,4.274818420410156
1715093382065045500,5.83704541015625,-7.08134126663208,-7.0716047286987305,1.3132789134979248
1715093382075025000,5.84702490234375,-7.970318794250488,-12.126850128173828,0.5003113746643066
1715093382084973600,5.8569736328125,-8.599932670593262,-13.1138916015625,-2.644834518432617
1715093382094953000,5.866952880859375,-6.611164569854736,-8.224738121032715,-7.67371940612793
1715093382104932000,5.87693212890625,-0.962035596370697,-1.4704046249389648,-6.955850601196289
1715093382114880800,5.886880859375,1.355890154838562,1.6004152297973633,-3.6798970699310303
1715093382124860200,5.896860107421875,2.408259391784668,3.6250457763671875,-0.8955831527709961
1715093382134839300,5.90683935546875,2.688128709793091,5.62498664855957,-0.06748342514038086
1715093382144818700,5.916818603515625,1.9418399333953857,6.752915382385254,-0.8585174083709717
1715093382154797800,5.9267978515625,0.6659641265869141,6.974708557128906,-2.8779118061065674
1715093382164746500,5.93674658203125,-0.45439666509628296,5.685094833374023,-4.734321594238281
1715093382174726000,5.946725830078125,-0.2891240119934082,2.8395862579345703,-4.724230766296387
1715093382184705000,5.956705078125,0.265602707862854,-0.020049095153808594,-4.848715782165527
1715093382194684400,5.966684326171875,1.0099183320999146,-3.1215686798095703,-5.462588787078857
1715093382204633000,5.976633056640625,1.5549019575119019,-5.377784729003906,-6.832069396972656
1715093382214612200,5.9866123046875,0.09030139446258545,-4.908095359802246,-7.790102958679199
1715093382224591600,5.996591552734375,-0.8382102251052856,-2.525613784790039,-8.083563804626465
1715093382234540300,6.006540283203125,0.5077532529830933,1.250290870666504,-6.137425422668457
1715093382244519400,6.01651953125,1.913986325263977,3.8116188049316406,-5.71666145324707
1715093382254498800,6.026498779296875,3.3734097480773926,5.745708465576172,-4.8564019203186035
1715093382264447500,6.036447509765625,4.1060099601745605,6.390381813049316,-4.392450332641602
1715093382274426600,6.046426513671875,3.912008285522461,5.719870567321777,-3.740555763244629
1715093382284406000,6.056406005859375,3.3608756065368652,4.972161293029785,-0.9274742603302002
1715093382294354700,6.066354736328125,1.9884403944015503,2.7396059036254883,-0.7714728116989136
1715093382304333800,6.076333740234375,0.7793065309524536,0.8735980987548828,1.4053094387054443
1715093382314313200,6.086313232421875,0.7778984308242798,-0.6353120803833008,4.05665397644043
1715093382324262000,6.096261962890625,0.987690806388855,-2.1201772689819336,4.275794982910156
1715093382334241300,6.1062412109375,0.7817363739013672,-2.576992988586426,3.565626621246338
1715093382344220400,6.116220458984375,0.4789336919784546,-1.6343278884887695,3.2260689735412598
1715093382354169000,6.126169189453125,0.13457739353179932,-0.53350830078125,2.7313575744628906
1715093382364148500,6.1361484375,0.06981539726257324,0.4099693298339844,2.531073570251465
1715093382374097200,6.14609716796875,-0.13455569744110107,1.072484016418457,2.5917842388153076
1715093382384076300,6.156076171875,-0.33677637577056885,1.3273744583129883,2.81103515625
1715093382394055700,6.1660556640625,-0.3908170461654663,1.3351240158081055,2.9872469902038574
1715093382404004400,6.17600439453125,-0.33394861221313477,1.3583040237426758,3.4593679904937744
1715093382413983500,6.1859833984375,-0.580308198928833,1.3698606491088867,3.251424789428711
1715093382423963000,6.195962890625,-0.39373326301574707,1.502640724182129,3.3596086502075195
1715093382433942000,6.20594189453125,0.3500394821166992,1.0414257049560547,2.9977004528045654
1715093382443921400,6.21592138671875,2.370657444000244,1.1010494232177734,2.5616583824157715
1715093382453870000,6.2258701171875,5.990334510803223,1.8390216827392578,2.636692523956299
1715093382463849200,6.23584912109375,9.24793815612793,3.0779924392700195,2.9561867713928223
1715093382473828600,6.24582861328125,10.683947563171387,4.608368873596191,3.1350016593933105
1715093382483807700,6.255807861328125,9.032082557678223,4.951349258422852,2.5268077850341797
1715093382493756700,6.265756591796875,4.223538398742676,3.7671642303466797,1.8378642797470093
1715093382503735800,6.27573583984375,-0.10751771926879883,0.5194149017333984,2.779740810394287
1715093382513715000,6.28571484375,-1.484773874282837,-3.766331672668457,3.274324417114258
1715093382523664000,6.295663818359375,-0.4256448745727539,-7.009539604187012,3.234537124633789
1715093382533643000,6.30564306640625,3.3638978004455566,-8.646899223327637,2.8059098720550537
1715093382543622400,6.315622314453125,6.631649017333984,-7.865621566772461,2.815096855163574
1715093382553571000,6.325571044921875,5.434114933013916,-4.2066802978515625,3.9489941596984863
1715093382563550200,6.33555029296875,3.4588193893432617,-0.36444664001464844,3.906998634338379
1715093382573529600,6.345529541015625,2.5602617263793945,2.628185272216797,3.1264452934265137
1715093382583478300,6.355478271484375,1.6933465003967285,4.60567569732666,1.8165558576583862
1715093382593457400,6.36545751953125,1.1323442459106445,5.238032341003418,-0.25697624683380127
1715093382603406300,6.37540625,0.8302860260009766,4.2434892654418945,-2.685239553451538
1715093382613385500,6.385385498046875,-0.09278416633605957,2.3544931411743164,-4.593837738037109
1715093382623364600,6.395364501953125,-1.2112338542938232,0.2512054443359375,-6.258793354034424
1715093382633313500,6.4053134765625,-2.0545647144317627,-2.117487907409668,-8.028119087219238
1715093382643292700,6.415292724609375,-4.050665378570557,-4.167059898376465,-10.16496467590332
1715093382653291300,6.425291259765625,-5.852818012237549,-6.048577308654785,-11.003955841064453
1715093382663240000,6.435239990234375,-6.316549777984619,-8.591355323791504,-10.163885116577148
1715093382673219000,6.445218994140625,-6.76878023147583,-11.769009590148926,-8.05331802368164
1715093382683198500,6.455198486328125,-6.463435173034668,-14.833281517028809,-3.7689461708068848
1715093382693147100,6.465147216796875,-6.823879241943359,-15.657102584838867,1.7352710962295532
1715093382703126300,6.475126220703125,-7.782970905303955,-13.57269287109375,6.073919773101807
1715093382713105700,6.485105712890625,-8.681676864624023,-6.884296417236328,11.186964988708496
1715093382723084800,6.495084716796875,-9.650981903076172,-1.309849739074707,13.413971900939941
1715093382733064200,6.505064208984375,-7.778955459594727,2.0498228073120117,10.645892143249512
1715093382743012900,6.515012939453125,-3.924560785293579,5.444387435913086,10.13589096069336
1715093382752992000,6.524991943359375,-2.3250458240509033,6.063780784606934,7.932837963104248
1715093382762971400,6.534971435546875,-2.0373761653900146,4.5171308517456055,5.627208232879639
1715093382772950500,6.544950439453125,-1.6596304178237915,2.680018424987793,3.106128454208374
1715093382782899200,6.554899169921875,-0.14646577835083008,1.573089599609375,0.26924920082092285
1715093382792878600,6.564878662109375,1.9632192850112915,0.6557197570800781,-1.3957207202911377
1715093382802857700,6.574857666015625,3.5612430572509766,0.5903224945068359,-2.561213970184326
1715093382812806700,6.584806640625,3.391793727874756,0.9974403381347656,-3.6215271949768066
1715093382822785800,6.594785888671875,2.303597927093506,2.073758125305176,-4.315515518188477
1715093382832765000,6.604764892578125,1.2292535305023193,3.490485191345215,-4.573822975158691
1715093382842713900,6.6147138671875,0.5014113187789917,4.78568172454834,-4.734161376953125
1715093382852693000,6.62469287109375,0.2866600751876831,5.767045974731445,-5.0357866287231445
1715093382862672400,6.63467236328125,0.02015852928161621,5.71408748626709,-4.806065082550049
1715093382872621000,6.64462109375,-0.09029293060302734,5.552877426147461,-4.848725318908691
1715093382882600200,6.65460009765625,-0.2962484359741211,5.144586563110352,-4.92735481262207
1715093382892548900,6.664548828125,-0.2155306339263916,4.799675941467285,-4.891726970672607
1715093382902528300,6.6745283203125,0.3087131977081299,4.546769142150879,-4.727351188659668
1715093382912507400,6.68450732421875,0.9480587244033813,4.486861228942871,-4.490732669830322
1715093382922456300,6.694456298828125,1.346954584121704,4.446994781494141,-3.593900442123413
1715093382932435500,6.704435546875,1.8197367191314697,3.8078269958496094,-2.467376470565796
1715093382942414600,6.71441455078125,2.2868812084198,3.377004623413086,-0.08561563491821289
1715093382952363500,6.724363525390625,2.5312254428863525,3.5657825469970703,2.9602956771850586
1715093382962342700,6.7343427734375,2.0605874061584473,4.3837890625,6.030620574951172
1715093382972322000,6.744322021484375,0.5727986693382263,2.863041877746582,7.186885833740234
1715093382982270700,6.754270751953125,-1.913259506225586,-0.6891765594482422,8.47807788848877
1715093382992249900,6.764249755859375,-2.1583189964294434,-4.626612663269043,7.855175018310547
1715093383002229200,6.774229248046875,0.7393138408660889,-6.126459121704102,3.75475811958313
1715093383012208400,6.78420849609375,1.740045189857483,-7.529850006103516,-3.3513340950012207
1715093383022187800,6.794187744140625,1.6491619348526,-10.530385971069336,-8.776657104492188
1715093383032136400,6.804136474609375,1.6817816495895386,-10.066564559936523,-9.417068481445312
1715093383042115600,6.814115478515625,1.99861741065979,-2.2520952224731445,-1.0821402072906494
1715093383052095000,6.824094970703125,-0.15895295143127441,1.8433170318603516,3.559377670288086
1715093383062074000,6.83407421875,-1.0102320909500122,-1.0514717102050781,5.8083953857421875
1715093383072022800,6.844022705078125,0.7831228971481323,-8.598424911499023,7.036969184875488
1715093383082002200,6.854002197265625,-1.0519044399261475,-13.826399803161621,5.565520286560059
1715093383091981300,6.863981201171875,-7.498683929443359,-15.138055801391602,2.203921318054199
1715093383101930000,6.873929931640625,-9.42386245727539,-9.713343620300293,-1.7107818126678467
1715093383111909400,6.883909423828125,-6.195878505706787,-2.4996232986450195,-7.834434509277344
1715093383121888500,6.893888427734375,-4.170604228973389,1.186497688293457,-6.5688066482543945
1715093383131837200,6.903837158203125,-1.1425234079360962,1.6525955200195312,-2.420232057571411
1715093383141816600,6.913816650390625,0.761103093624115,0.18349838256835938,-0.447711706161499
1715093383151795700,6.923795654296875,-0.09389713406562805,-1.6292705535888672,-0.4452941417694092
1715093383161744600,6.93374462890625,-1.3554744720458984,-1.4251556396484375,-2.1807644367218018
1715093383171723800,6.943723876953125,-1.7860673666000366,-1.2293930053710938,-3.0849430561065674
1715093383181703000,6.953702880859375,-0.946192741394043,-1.7063922882080078,-2.9776315689086914
1715093383191651800,6.96365185546875,1.2300708293914795,-2.398604393005371,-4.609492301940918
1715093383201631000,6.973630859375,2.374194860458374,-1.4578218460083008,-5.946881294250488
1715093383211610400,6.9836103515625,2.6624183654785156,-0.0797882080078125,-5.286645889282227
1715093383221559000,6.99355908203125,1.8480751514434814,1.4683332443237305,-4.557553291320801
1715093383231538200,7.0035380859375,1.2638318538665771,2.265376091003418,-4.3058671951293945
1715093383241486800,7.01348681640625,0.7791004180908203,3.0500659942626953,-3.4063172340393066
1715093383251466200,7.02346630859375,0.4947735071182251,3.687833786010742,-2.829007863998413
1715093383261445400,7.0334453125,0.6422547101974487,3.9535837173461914,-2.2394888401031494
1715093383271394300,7.043394287109375,1.3080275058746338,3.5921144485473633,-2.990402936935425
1715093383281373400,7.05337353515625,2.2864885330200195,3.5733776092529297,-2.5190253257751465
1715093383291352600,7.0633525390625,2.6736702919006348,2.8964452743530273,-3.022541046142578
1715093383301332000,7.07333203125,2.08001708984375,2.216127395629883,-3.2158422470092773
1715093383311311000,7.08331103515625,1.1679950952529907,1.6042594909667969,-2.7847671508789062
1715093383321260000,7.093260009765625,0.6945164203643799,1.1854925155639648,-2.8086981773376465
1715093383331239200,7.1032392578125,0.42984116077423096,0.9440116882324219,-2.77793550491333
1715093383341218300,7.11321826171875,0.0021816492080688477,0.8456745147705078,-2.188720226287842
1715093383351197700,7.12319775390625,-0.4098697900772095,0.6611747741699219,-1.112362027168274
1715093383361146400,7.133146484375,-0.20713818073272705,0.4961738586425781,0.17754650115966797
1715093383371125800,7.143125732421875,0.5806682109832764,0.2947502136230469,1.4591830968856812
1715093383381105000,7.15310498046875,0.9221166372299194,-0.027246475219726562,2.6586523056030273
1715093383391053600,7.163053466796875,1.5037815570831299,0.22753143310546875,3.4240682125091553
1715093383401033000,7.173032958984375,2.1446986198425293,0.8236427307128906,3.594046115875244
1715093383411012000,7.18301220703125,2.3158552646636963,1.7800359725952148,4.148305892944336
1715093383420960800,7.192960693359375,1.8305644989013672,2.7783288955688477,4.83148193359375
1715093383430940200,7.202940185546875,1.4101667404174805,2.821864128112793,5.269309997558594
1715093383440919300,7.212919189453125,1.339355707168579,2.760270118713379,4.631097316741943
1715093383450868000,7.222867919921875,2.1038312911987305,2.587430000305176,4.018216133117676
1715093383460847400,7.232847412109375,3.3242413997650146,2.1075429916381836,3.320845603942871
1715093383470826500,7.242826416015625,5.034231185913086,1.6386022567749023,2.2782931327819824
1715093383480775400,7.252775390625,6.6700897216796875,1.3574142456054688,2.167698860168457
1715093383490754600,7.262754638671875,7.262655258178711,0.9098329544067383,2.368515968322754
1715093383500733700,7.272733642578125,6.432276248931885,0.21193599700927734,2.6459836959838867
1715093383510682600,7.2826826171875,4.768918037414551,-0.7021379470825195,3.237945556640625
1715093383520661800,7.292661865234375,3.060368776321411,-1.6334571838378906,4.684542655944824
1715093383530641000,7.302640869140625,2.497785806655884,-2.8065805435180664,5.126053333282471
1715093383540589800,7.31258984375,2.0935819149017334,-4.225226402282715,3.289358615875244
1715093383550569000,7.32256884765625,2.8429577350616455,-5.199847221374512,1.8128180503845215
1715093383560548400,7.33254833984375,4.185966491699219,-5.273093223571777,1.4167873859405518
1715093383570497000,7.3424970703125,4.837352275848389,-3.886434555053711,1.3076800107955933
1715093383580476200,7.35247607421875,3.4910409450531006,-1.9230804443359375,1.490365743637085
1715093383590455600,7.36245556640625,1.8951127529144287,0.13438034057617188,1.6302624940872192
1715093383600434700,7.3724345703125,0.3682689666748047,1.9383296966552734,1.6728529930114746
1715093383610414000,7.3824140625,-1.0002020597457886,3.2883148193359375,1.134002685546875
1715093383620362800,7.39236279296875,-1.175355076789856,3.7303647994995117,-0.9946441650390625
1715093383630342000,7.402341796875,-1.7551079988479614,3.2702112197875977,-2.959482192993164
1715093383640321300,7.4123212890625,-1.6891838312149048,2.259831428527832,-4.866943359375
1715093383650270000,7.42227001953125,-2.257694959640503,1.2243728637695312,-7.6406450271606445
1715093383660249000,7.4322490234375,-2.85184907913208,-0.5368528366088867,-9.695587158203125
1715093383670228500,7.442228515625,-3.6693615913391113,-3.2672595977783203,-10.181320190429688
1715093383680177200,7.45217724609375,-3.764327049255371,-6.427223205566406,-10.032170295715332
1715093383690156300,7.46215625,-4.001972198486328,-10.01137924194336,-9.778770446777344
1715093383700135700,7.4721357421875,-4.010819435119629,-13.26647663116455,-7.156473159790039
1715093383710084400,7.48208447265625,-3.935159921646118,-14.07071304321289,-2.345890998840332
1715093383720063700,7.492063720703125,-6.478324890136719,-11.92501449584961,1.832097053527832
1715093383730043000,7.50204296875,-9.259542465209961,-7.348881721496582,5.188488483428955
1715093383739991600,7.511991455078125,-10.999390602111816,-1.743006706237793,9.672097206115723
1715093383749971000,7.521970947265625,-9.176025390625,1.2248992919921875,10.99498462677002
1715093383759950000,7.5319501953125,-5.634392261505127,3.8909053802490234,10.655707359313965
1715093383769898800,7.541898681640625,-3.1503844261169434,5.440851211547852,8.774494171142578
1715093383779878100,7.551878173828125,-2.715235471725464,4.600541114807129,6.31578254699707
1715093383789857300,7.561857177734375,-2.478534698486328,3.261463165283203,4.314389705657959
1715093383799806000,7.571805908203125,-0.8052756786346436,2.525811195373535,2.4316797256469727
1715093383809785300,7.581785400390625,0.978853702545166,1.934671401977539,0.011261582374572754
1715093383819764500,7.591764404296875,2.0573248863220215,1.5493249893188477,-1.9974768161773682
1715093383829713400,7.60171337890625,2.321216583251953,1.4953546524047852,-3.202080726623535
1715093383839692500,7.611692626953125,1.9541754722595215,2.093611717224121,-4.280551910400391
1715093383849671700,7.621671630859375,1.0502691268920898,2.758577346801758,-4.7621259689331055
1715093383859620600,7.63162060546875,0.30746185779571533,3.609959602355957,-4.673639297485352
1715093383869599700,7.641599853515625,-0.022525310516357422,4.458747863769531,-4.39210844039917
1715093383879579100,7.6515791015625,-0.48505985736846924,4.592578887939453,-4.010849952697754
1715093383889558300,7.661558349609375,-0.952134370803833,4.158382415771484,-3.398043155670166
1715093383899537400,7.671537353515625,-1.196889042854309,3.658039093017578,-2.93224835395813
1715093383909486300,7.681486328125,-1.0364055633544922,3.352689743041992,-2.7254278659820557
1715093383919465500,7.691465576171875,-0.5375542640686035,3.38436222076416,-2.4491634368896484
1715093383929444600,7.701444580078125,0.14405012130737305,3.148077964782715,-2.47782301902771
1715093383939393500,7.7113935546875,0.8032934665679932,2.994198799133301,-1.9476680755615234
1715093383949372700,7.72137255859375,1.472281575202942,2.4133825302124023,-1.2606604099273682
1715093383959352000,7.73135205078125,1.9170796871185303,1.989607810974121,0.2677454948425293
1715093383969300700,7.74130078125,2.3404998779296875,2.3202733993530273,2.5330731868743896
1715093383979280000,7.75127978515625,2.1045565605163574,2.8693923950195312,5.096864700317383
1715093383989259300,7.76125927734375,1.5723888874053955,2.080166816711426,6.0354814529418945
1715093383999208000,7.7712080078125,1.2247976064682007,0.22138214111328125,6.78525447845459
1715093384009187000,7.78118701171875,1.1220333576202393,-2.403810501098633,6.448559284210205
1715093384019166500,7.79116650390625,0.22748899459838867,-5.044551849365234,3.3612732887268066
1715093384029115100,7.801115234375,0.15192699432373047,-7.443821907043457,-0.11748170852661133
1715093384039094300,7.81109423828125,0.7231608629226685,-9.767257690429688,-3.3416149616241455
1715093384049073700,7.82107373046875,2.545792579650879,-10.770962715148926,-5.906899452209473
1715093384059022300,7.831022216796875,2.5115747451782227,-5.625665664672852,-4.179215431213379
1715093384069001700,7.841001708984375,0.9575096368789673,-0.1986522674560547,-1.2413825988769531
1715093384078980900,7.85098095703125,-1.839242696762085,0.8292560577392578,2.50166392326355
1715093384088929500,7.860929443359375,-1.8024682998657227,-1.469400405883789,3.0903990268707275
1715093384098909000,7.870908935546875,-0.9994180202484131,-7.118185997009277,4.771660804748535
1715093384108857600,7.880857666015625,-5.733893394470215,-13.137560844421387,6.041882514953613
1715093384118836700,7.890836669921875,-8.312774658203125,-14.379976272583008,3.1595704555511475
1715093384128816000,7.900816162109375,-7.608407020568848,-12.89072036743164,-5.2704315185546875
1715093384138795300,7.910795166015625,-4.117180824279785,-5.557991027832031,-9.17878246307373
1715093384148744000,7.920743896484375,-1.2276172637939453,2.078603744506836,-6.588507652282715
1715093384158723300,7.930723388671875,0.044635236263275146,4.145404815673828,-3.312012195587158
1715093384168702500,7.940702392578125,0.8901008367538452,4.867664337158203,-0.023580312728881836
1715093384178681900,7.950681884765625,1.231475830078125,4.905360221862793,2.1225028038024902
1715093384188661000,7.960660888671875,0.7307314872741699,5.2181854248046875,2.3095099925994873
1715093384198609700,7.970609619140625,-0.695891797542572,4.352953910827637,0.34721803665161133
1715093384208589000,7.980589111328125,0.2407117486000061,3.15811824798584,-0.5378799438476562
1715093384218568200,7.990568115234375,1.5194666385650635,1.8982782363891602,-2.1554183959960938
1715093384228517000,8.00051708984375,2.2940797805786133,0.8295497894287109,-3.309305429458618
1715093384238496300,8.010496337890626,2.1435728073120117,-0.001300811767578125,-4.020240783691406
1715093384248475400,8.020475341796875,1.2858495712280273,-0.4212007522583008,-4.705506324768066
1715093384258424300,8.03042431640625,-0.25650107860565186,-0.4678792953491211,-6.06405782699585
1715093384268403500,8.040403564453126,-1.3286216259002686,0.3865671157836914,-6.639494895935059
1715093384278382800,8.0503828125,-0.662767767906189,2.072622299194336,-6.580043792724609
1715093384288331500,8.06033154296875,0.8020538091659546,3.728090286254883,-5.643451690673828
1715093384298310700,8.070310546875,2.3617782592773438,4.76579475402832,-5.110054016113281
1715093384308290000,8.0802900390625,3.1368887424468994,4.827543258666992,-4.744503974914551
1715093384318238700,8.09023876953125,2.8719289302825928,4.574170112609863,-3.0551135540008545
1715093384328217900,8.1002177734375,1.925518274307251,3.7158164978027344,-0.8532736301422119
1715093384338197200,8.110197265625,1.7670726776123047,2.8807239532470703,1.5176424980163574
1715093384348146000,8.12014599609375,1.600232481956482,1.6630678176879883,3.447740077972412
1715093384358125000,8.130125,0.9261678457260132,0.01638507843017578,4.169829845428467
1715093384368104400,8.1401044921875,0.13118362426757812,-1.1645832061767578,4.6167707443237305
1715093384378053000,8.15005322265625,-0.7112182378768921,-1.5321760177612305,4.782303810119629
1715093384388032300,8.1600322265625,-1.3937121629714966,-1.4251279830932617,4.116650581359863
1715093384398011600,8.17001171875,-1.577154517173767,-1.0916624069213867,2.7305855751037598
1715093384407960300,8.179960205078125,-1.4434140920639038,-0.6138029098510742,1.2231111526489258
1715093384417939700,8.189939697265626,-1.3901183605194092,-0.2411031723022461,0.6222522258758545
1715093384427918800,8.1999189453125,-1.560276985168457,0.19982051849365234,0.3859553337097168
1715093384437898000,8.20989794921875,-1.1385078430175781,0.13676929473876953,0.729316234588623
1715093384447847000,8.219846923828126,-0.3479030132293701,-0.37839221954345703,0.8132789134979248
1715093384457826000,8.229825927734375,1.736762285232544,-0.5276737213134766,0.9110906720161438
1715093384467805400,8.239805419921876,5.838977813720703,-0.11590385437011719,0.6491723656654358
1715093384477784600,8.24978466796875,10.685169219970703,0.9984159469604492,0.5580407381057739
1715093384487733200,8.259733154296875,14.01474666595459,2.6588172912597656,0.34021782875061035
1715093384497712600,8.269712646484376,13.123579025268555,4.301408767700195,-0.10983467102050781
1715093384507691800,8.27969189453125,8.21746826171875,5.406495094299316,-0.5661742687225342
1715093384517640400,8.289640380859375,3.6373376846313477,4.823162078857422,0.9240800142288208
1715093384527619800,8.299619873046876,0.8656885623931885,1.9664983749389648,3.1163599491119385
1715093384537599000,8.309598876953125,-1.0053622722625732,-2.3670034408569336,5.045831680297852
1715093384547547600,8.319547607421875,-0.453876256942749,-5.916284561157227,6.19145393371582
1715093384557527000,8.329527099609376,1.5014078617095947,-7.530797958374023,5.6666059494018555
1715093384567506200,8.339506103515625,2.7722342014312744,-6.206717491149902,5.965762615203857
1715093384577455000,8.349455078125,1.9341356754302979,-3.136350631713867,7.340117454528809
1715093384587434200,8.359434326171876,1.9088718891143799,-0.16246604919433594,6.32314395904541
1715093384597413400,8.369413330078125,2.484947443008423,1.8411931991577148,4.163292407989502
1715093384607362300,8.3793623046875,2.02986478805542,3.406989097595215,2.3738417625427246
1715093384617341400,8.389341552734376,1.3507006168365479,4.007683753967285,0.281444787979126
1715093384627320800,8.39932080078125,0.7067323923110962,3.1406335830688477,-2.2447779178619385
1715093384637269500,8.40926953125,-0.08690035343170166,1.5118703842163086,-3.9196982383728027
1715093384647248600,8.41924853515625,-1.3194541931152344,-0.9487495422363281,-5.647802829742432
1715093384657228000,8.42922802734375,-2.5353050231933594,-3.920010566711426,-7.998508930206299
1715093384667176700,8.4391767578125,-4.097832679748535,-5.91317081451416,-9.785981178283691
1715093384677155800,8.44915576171875,-4.623425483703613,-7.58106803894043,-10.700033187866211
1715093384687135200,8.45913525390625,-4.6706461906433105,-9.408801078796387,-11.037732124328613
1715093384697084000,8.469083984375,-5.886035919189453,-11.75955581665039,-9.487960815429688
1715093384707063000,8.47906298828125,-6.395005226135254,-12.750102996826172,-5.699794769287109
1715093384717042400,8.48904248046875,-6.586576461791992,-10.783441543579102,-0.038413047790527344
1715093384727021600,8.499021484375,-7.475287914276123,-7.505097389221191,4.052950382232666
1715093384736970200,8.50897021484375,-7.122274398803711,-2.0853662490844727,6.940417766571045
1715093384746949600,8.51894970703125,-6.894137382507324,1.9305953979492188,9.000932693481445
1715093384756928800,8.5289287109375,-6.623992919921875,2.791598320007324,10.187654495239258
1715093384766908200,8.538908203125,-5.640077114105225,3.4043540954589844,8.908947944641113
1715093384776856800,8.54885693359375,-4.430037498474121,3.9534873962402344,7.31379508972168
1715093384786836000,8.5588359375,-3.709268093109131,3.9450035095214844,6.007181167602539
1715093384796815400,8.5688154296875,-2.3220536708831787,3.2146148681640625,3.490384101867676
1715093384806764000,8.578763916015625,-0.35579514503479004,2.607839584350586,1.3788421154022217
1715093384816743400,8.588743408203126,1.3156094551086426,2.007901191711426,-0.72452712059021
1715093384826722600,8.59872265625,2.313992738723755,1.6373672485351562,-2.4677014350891113
1715093384836671200,8.608671142578125,2.631838083267212,1.5357789993286133,-3.6863749027252197
1715093384846650600,8.618650634765626,2.3703317642211914,1.9897966384887695,-4.47796630859375
1715093384856629800,8.628629638671875,1.7651259899139404,2.909590721130371,-4.945324897766113
1715093384866578400,8.638578369140625,1.0907126665115356,3.8306350708007812,-5.248298168182373
1715093384876557800,8.648557861328126,0.6102149486541748,4.209294319152832,-5.395774841308594
1715093384886537000,8.658536865234375,0.09719061851501465,4.242182731628418,-5.311666488647461
1715093384896485600,8.668485595703125,-0.2946352958679199,3.8577919006347656,-5.24571418762207
1715093384906465000,8.678465087890626,-0.49015772342681885,3.493100166320801,-5.167974472045898
1715093384916444200,8.688444091796875,-0.39842236042022705,3.6531362533569336,-5.0275774002075195
1715093384926393000,8.69839306640625,0.1923377513885498,3.717278480529785,-4.917861461639404
1715093384936372200,8.708372314453126,0.7569286823272705,3.4840707778930664,-3.996427536010742
1715093384946351400,8.718351318359375,0.969109058380127,2.913633346557617,-2.7372100353240967
1715093384956300300,8.72830029296875,1.3489022254943848,2.396245002746582,-1.1600024700164795
1715093384966279400,8.738279541015626,1.6911383867263794,2.119318962097168,1.3056514263153076
1715093384976258800,8.7482587890625,1.6694517135620117,2.486551284790039,5.04757022857666
1715093384986207500,8.75820751953125,0.9153500199317932,2.3777360916137695,7.644880771636963
1715093384996186600,8.7681865234375,-0.1318759322166443,0.10542678833007812,8.859649658203125
1715093385006166000,8.778166015625,-0.991668164730072,-3.0327682495117188,9.807942390441895
1715093385016145200,8.788145263671876,-3.099358320236206,-5.99293327331543,7.411064624786377
1715093385026093800,8.79809375,-0.5559377670288086,-7.167045593261719,1.713911533355713
1715093385036073200,8.8080732421875,2.8425207138061523,-8.828027725219727,-3.2904937267303467
1715093385046052400,8.81805224609375,3.1652302742004395,-11.166238784790039,-5.296525955200195
1715093385056031700,8.82803173828125,3.720235824584961,-8.614971160888672,-5.6269049644470215
1715093385065980400,8.83798046875,-0.16588044166564941,-1.3025712966918945,-3.4015235900878906
1715093385075959600,8.84795947265625,0.6033387184143066,1.7656917572021484,0.6004769802093506
1715093385085939000,8.85793896484375,1.2296818494796753,1.167099952697754,3.3789303302764893
1715093385095887600,8.8678876953125,-1.7098288536071777,0.16355323791503906,5.295427322387695
1715093385105866800,8.87786669921875,-0.8299045562744141,-4.243175506591797,6.294061183929443
1715093385115846100,8.88784619140625,-4.956634521484375,-11.662872314453125,7.051169395446777
1715093385125794800,8.897794921875,-12.354713439941406,-13.720080375671387,3.093769073486328
1715093385135774000,8.90777392578125,-11.626142501831055,-12.753646850585938,-4.464074611663818
1715093385145753300,8.91775341796875,-4.655211448669434,-6.876799583435059,-7.992825508117676
1715093385155702000,8.927701904296875,0.1727878451347351,0.01701641082763672,-5.248025894165039
1715093385165681400,8.937681396484376,3.1386184692382812,3.6678972244262695,-2.911484718322754
1715093385175660500,8.94766064453125,3.356227397918701,5.366758346557617,-1.7936110496520996
1715093385185609200,8.957609130859375,2.6370856761932373,6.056809425354004,-2.308049201965332
1715093385195588600,8.967588623046876,1.6665384769439697,6.302314758300781,-3.462832450866699
1715093385205567700,8.977567626953125,1.055389404296875,5.881521224975586,-4.574283599853516
1715093385215516400,8.987516357421875,0.7958912253379822,4.192056655883789,-4.120878219604492
1715093385225495800,8.997495849609376,1.0020660161972046,1.930776596069336,-3.16363787651062
1715093385235475000,9.007474853515625,1.4714348316192627,-0.7788190841674805,-2.6991307735443115
1715093385245423600,9.017423583984375,1.1483840942382812,-2.9107656478881836,-2.181933641433716
1715093385255403000,9.027403076171876,-0.6572748422622681,-3.4835519790649414,-2.7838497161865234
1715093385265382100,9.037382080078125,-1.450037956237793,-3.06546688079834,-4.164466857910156
1715093385275331000,9.0473310546875,-0.8007522821426392,-1.495955467224121,-4.267464637756348
1715093385285310200,9.057310302734376,0.8178802728652954,0.5452861785888672,-3.9118597507476807
1715093385295289300,9.067289306640625,2.3236279487609863,2.678142547607422,-3.910202741622925
1715093385305268700,9.077268798828126,2.9287362098693848,4.198019027709961,-4.302105903625488
1715093385315217400,9.087217529296876,2.8278775215148926,4.986891746520996,-4.234301567077637
1715093385325196800,9.09719677734375,2.351898670196533,4.979189872741699,-3.2462406158447266
1715093385335176000,9.107176025390626,1.818672776222229,4.580511093139648,-1.1586363315582275
1715093385345155000,9.117155029296875,1.4340076446533203,3.7748498916625977,0.9966827630996704
1715093385355104000,9.12710400390625,1.1223949193954468,2.271991729736328,2.3458127975463867
1715093385365083100,9.137083251953126,1.1988089084625244,0.8432598114013672,3.6308188438415527
1715093385375062500,9.1470625,1.246744990348816,-0.49190235137939453,4.276630401611328
1715093385385011200,9.15701123046875,0.9856876134872437,-1.1322135925292969,4.348207473754883
1715093385394990300,9.166990234375,0.633817195892334,-0.8686990737915039,4.354999542236328
1715093385404969700,9.1769697265625,0.31767427921295166,-0.2564973831176758,3.8791232109069824
1715093385414918400,9.18691845703125,-0.05837202072143555,0.177825927734375,3.1519241333007812
1715093385424897500,9.1968974609375,-0.4464435577392578,0.2669668197631836,2.4473202228546143
1715093385434877000,9.206876953125,-0.9149094820022583,0.22055530548095703,2.193599224090576
1715093385444825600,9.21682568359375,-1.1738271713256836,0.08720970153808594,2.0750136375427246
1715093385454804700,9.2268046875,-0.9104151725769043,0.009111404418945312,1.972010850906372
1715093385464784100,9.2367841796875,-0.0653696060180664,0.2440319061279297,1.9919624328613281
1715093385474732800,9.24673291015625,2.5720314979553223,-0.04784679412841797,2.4469480514526367
1715093385484712200,9.256712158203126,6.270383834838867,0.8250837326049805,2.3453168869018555
1715093385494691300,9.26669140625,10.558079719543457,2.3951616287231445,2.4300012588500977
1715093385504640000,9.276639892578125,11.911191940307617,3.5589847564697266,1.836355447769165
1715093385514619400,9.286619384765626,8.776540756225586,4.502547264099121,0.41454172134399414
1715093385524598500,9.2965986328125,3.9725849628448486,4.508416175842285,-0.11740303039550781
1715093385534547200,9.306547119140625,0.22809267044067383,2.2778244018554688,0.5378967523574829
1715093385544526600,9.316526611328126,-0.28105998039245605,-1.8223180770874023,1.7393466234207153
1715093385554505700,9.326505615234375,1.372490406036377,-5.018001556396484,1.4125796556472778
1715093385564485000,9.336485107421876,3.730569839477539,-6.250118255615234,1.1630538702011108
1715093385574433800,9.346433837890626,5.824817180633545,-6.0714311599731445,2.285708427429199
1715093385584413000,9.356412841796875,6.140636444091797,-4.564119338989258,3.9103469848632812
1715093385594392300,9.366392333984376,3.5255725383758545,-2.2144012451171875,4.619616508483887
1715093385604371500,9.376371337890625,1.6317381858825684,0.13924121856689453,4.157560348510742
1715093385614320000,9.386320068359375,0.9307069778442383,2.412057876586914,4.246847629547119
1715093385624299500,9.396299560546876,-0.28204798698425293,3.5815963745117188,3.148960828781128
1715093385634278700,9.406278564453125,-1.0608497858047485,3.303386688232422,0.833352267742157
1715093385644227300,9.416227294921875,-0.9781966209411621,2.458991050720215,-1.047945499420166
1715093385654206700,9.426206787109376,-0.5910351276397705,1.1807126998901367,-3.3113503456115723
1715093385664185900,9.436185791015625,-1.5764139890670776,-0.7377653121948242,-6.50892972946167
1715093385674134800,9.446134765625,-3.3309030532836914,-3.2310800552368164,-9.092798233032227
1715093385684114000,9.456114013671876,-4.4795308113098145,-5.598875045776367,-10.102474212646484
1715093385694093000,9.466093017578125,-4.7897419929504395,-8.223695755004883,-10.65690803527832
1715093385704042000,9.4760419921875,-5.328998565673828,-11.232555389404297,-11.153473854064941
1715093385714021000,9.486021240234376,-6.04476261138916,-13.924579620361328,-9.042790412902832
1715093385724000500,9.49600048828125,-6.484837055206299,-13.449824333190918,-4.078190803527832
1715093385733949200,9.50594921875,-7.578892230987549,-10.276825904846191,1.3957288265228271
1715093385743928300,9.51592822265625,-7.772250652313232,-4.948026657104492,5.949338912963867
1715093385753907700,9.52590771484375,-8.058647155761719,1.5225791931152344,9.214347839355469
1715093385763856400,9.5358564453125,-7.130486488342285,3.566730499267578,10.886438369750977
1715093385773835500,9.54583544921875,-5.398128509521484,4.677452087402344,10.522446632385254
1715093385783815000,9.55581494140625,-3.629260778427124,5.438540458679199,7.661822319030762
1715093385793763600,9.565763671875,-3.1114535331726074,5.601017951965332,5.693199634552002
1715093385803742700,9.57574267578125,-2.8788537979125977,4.834841728210449,3.531980037689209
1715093385813722000,9.58572216796875,-1.3589749336242676,4.02823543548584,1.8117727041244507
1715093385823670800,9.5956708984375,0.5153650045394897,3.0926122665405273,-0.6476019620895386
1715093385833650200,9.605650146484376,1.913954734802246,2.367107391357422,-2.358858823776245
1715093385843629300,9.61562939453125,3.006269693374634,2.016932487487793,-3.7036354541778564
1715093385853608400,9.6256083984375,3.018606185913086,1.8484821319580078,-4.701552391052246
1715093385863557400,9.635557373046876,1.9498218297958374,2.417510986328125,-4.777553558349609
1715093385873536500,9.64553662109375,0.6012319326400757,3.3954544067382812,-4.63966178894043
1715093385883516000,9.655515869140626,-0.2734717130661011,4.040648460388184,-4.4839887619018555
1715093385893495000,9.6654951171875,-1.0641748905181885,3.6954574584960938,-3.9264349937438965
1715093385903443700,9.675443603515625,-1.6076167821884155,3.0403976440429688,-3.0020859241485596
1715093385913423000,9.685423095703126,-1.7256101369857788,2.3884496688842773,-2.5693137645721436
1715093385923402200,9.69540234375,-1.2003296613693237,1.7666454315185547,-2.341846466064453
1715093385933351000,9.705350830078125,-0.5353604555130005,1.3874568939208984,-2.1877148151397705
1715093385943330300,9.715330322265626,0.36493778228759766,0.7052450180053711,-1.922532081604004
1715093385953309400,9.725309326171875,0.8542157411575317,0.34453296661376953,-1.1379022598266602
1715093385963258000,9.735258056640625,1.3128986358642578,0.09880924224853516,0.20526623725891113
1715093385973237500,9.745237548828126,1.7700881958007812,0.8489446640014648,2.5212929248809814
1715093385983216600,9.755216552734375,1.4869067668914795,1.9745607376098633,5.175320625305176
1715093385993165300,9.765165283203125,0.8746048212051392,2.55828857421875,6.852463722229004
1715093386003144700,9.775144775390626,0.5329079627990723,1.6400279998779297,7.80820369720459
1715093386013123800,9.785123779296875,0.465920090675354,0.30554771423339844,8.382796287536621
1715093386023072800,9.79507275390625,1.1690900325775146,-1.7677040100097656,6.50466251373291
1715093386033052000,9.805052001953126,2.300764560699463,-3.4916067123413086,2.5875418186187744
1715093386043031000,9.815031005859375,1.7658261060714722,-5.765413284301758,-1.7902042865753174
1715093386052980000,9.82497998046875,2.5745444297790527,-8.086392402648926,-4.625967025756836
1715093386062959000,9.834958984375,3.205002546310425,-8.19361400604248,-5.495264053344727
1715093386072938500,9.8449384765625,1.584303855895996,-3.0950546264648438,-5.440854072570801
1715093386082887200,9.85488720703125,-0.2995718717575073,2.9304981231689453,-1.906491994857788
1715093386092866300,9.8648662109375,-5.608695983886719,4.474586486816406,0.8677778244018555
1715093386102845700,9.874845703125,-6.2876667976379395,0.99951171875,3.8241233825683594
1715093386112794400,9.88479443359375,-2.115267276763916,-7.703549385070801,7.648238182067871
1715093386122773500,9.8947734375,-4.148099899291992,-17.754878997802734,8.295199394226074
1715093386132753000,9.9047529296875,-9.399385452270508,-19.520633697509766,4.862517356872559
1715093386142732000,9.91473193359375,-9.787035942077637,-14.925508499145508,-5.73709774017334
1715093386152680700,9.9246806640625,-3.992903232574463,-4.794761657714844,-10.867986679077148
1715093386162660000,9.93466015625,0.8333191275596619,2.5057849884033203,-6.574292182922363
1715093386172639200,9.94463916015625,3.1530284881591797,4.589632034301758,-3.0106794834136963
1715093386182618600,9.95461865234375,3.7537732124328613,5.527748107910156,-1.4507131576538086
1715093386192567300,9.9645673828125,3.3676576614379883,6.171200752258301,-0.740586519241333
1715093386202546400,9.97454638671875,2.2763383388519287,6.266596794128418,-1.9727911949157715
1715093386212525800,9.98452587890625,1.0827293395996094,5.41008186340332,-3.7799742221832275
1715093386222474500,9.994474609375,0.9379297494888306,4.134459495544434,-4.642871379852295
1715093386232454000,10.004453857421876,1.4594824314117432,2.1423168182373047,-5.154053688049316
1715093386242433000,10.01443310546875,2.1424779891967773,-0.19582080841064453,-5.247381687164307
1715093386252381700,10.024381591796875,1.735169768333435,-2.238128662109375,-4.5048933029174805
1715093386262361000,10.034361083984376,-0.15371441841125488,-3.7171287536621094,-4.62834358215332
1715093386272340200,10.04434033203125,-1.4042409658432007,-3.705878257751465,-5.8734893798828125
1715093386282289000,10.054288818359375,-0.6777452230453491,-1.4099702835083008,-6.030906677246094
1715093386292268300,10.064268310546876,0.9701837301254272,1.4290227890014648,-5.110828399658203
1715093386302247400,10.074247314453125,2.1160295009613037,2.9004106521606445,-4.897550582885742
1715093386312196000,10.084196044921875,2.058289051055908,3.767465591430664,-4.711933135986328
1715093386322175500,10.094175537109376,1.9752130508422852,4.101554870605469,-4.09751033782959
1715093386332154600,10.104154541015625,2.290937900543213,3.8693628311157227,-2.547292947769165
1715093386342103600,10.114103515625,2.7271761894226074,3.49326229095459,0.07951784133911133
1715093386352082700,10.124082763671876,2.642587184906006,2.476792335510254,1.6307522058486938
1715093386362061800,10.134061767578125,2.043203830718994,1.0489482879638672,2.2954154014587402
1715093386372010800,10.1440107421875,1.412407636642456,-0.30784130096435547,2.750812530517578
1715093386381990000,10.153989990234376,0.8726670742034912,-1.0606698989868164,2.940629243850708
1715093386391969000,10.163968994140625,0.4444441795349121,-1.0316181182861328,3.208402633666992
1715093386401918000,10.17391796875,0.10522174835205078,-0.6477346420288086,2.7737748622894287
1715093386411897000,10.18389697265625,0.27941274642944336,-0.03281211853027344,2.0569021701812744
1715093386421876500,10.19387646484375,0.9999889135360718,0.642827033996582,1.8838510513305664
1715093386431855600,10.203855712890626,0.6621428728103638,1.0480308532714844,2.0390994548797607
1715093386441804300,10.21380419921875,-0.46022260189056396,1.104196548461914,2.251593828201294
1715093386451783700,10.22378369140625,-1.3824273347854614,0.9719781875610352,2.416184186935425
1715093386461762800,10.2337626953125,-1.3253966569900513,1.4076223373413086,2.890524387359619
1715093386471742200,10.2437421875,0.019262075424194336,0.9452390670776367,3.9085283279418945
1715093386481691000,10.25369091796875,2.4045486450195312,0.9738979339599609,3.639890670776367
1715093386491670000,10.263669921875,5.586886405944824,1.678731918334961,3.5957963466644287
1715093386501649400,10.2736494140625,7.240500450134277,2.357198715209961,3.2703094482421875
1715093386511598000,10.28359814453125,6.90219783782959,2.984339714050293,2.8144092559814453
1715093386521577200,10.2935771484375,5.788276672363281,3.38809871673584,2.6803486347198486
1715093386531556600,10.303556640625,4.3391804695129395,2.8852529525756836,2.893721103668213
1715093386541505300,10.31350537109375,2.6122074127197266,1.466761589050293,3.2294015884399414
1715093386551484400,10.323484375,2.8831348419189453,-1.1551456451416016,3.5211081504821777
1715093386561463800,10.3334638671875,3.661691665649414,-4.0976762771606445,3.0112695693969727
1715093386571412500,10.34341259765625,4.44875431060791,-5.644261360168457,2.583259105682373
1715093386581392000,10.353391845703126,5.7241668701171875,-5.27501106262207,2.8020825386047363
1715093386591371000,10.36337109375,5.388047218322754,-3.34371280670166,3.0612971782684326
1715093386601319700,10.373319580078125,3.1918985843658447,-1.295466423034668,2.989830493927002
1715093386611299000,10.383299072265626,1.8558743000030518,0.4896373748779297,2.742495536804199
1715093386621278200,10.3932783203125,1.3043735027313232,2.089719772338867,2.565657138824463
1715093386631227000,10.403226806640625,0.28734660148620605,2.888681411743164,0.8085339069366455
1715093386641206300,10.413206298828126,-0.8789534568786621,2.8028125762939453,-1.6057555675506592
1715093386651185400,10.423185302734375,-0.7577093839645386,2.3177928924560547,-3.2103123664855957
1715093386661134000,10.433134033203125,-0.356723427772522,1.1553163528442383,-4.818089485168457
1715093386671113500,10.443113525390626,-1.535602331161499,-0.6275510787963867,-7.58988618850708
1715093386681092600,10.453092529296875,-3.4175424575805664,-3.0652828216552734,-9.841897964477539
1715093386691041500,10.46304150390625,-4.727077960968018,-5.825667381286621,-11.249000549316406
1715093386701020700,10.473020751953126,-4.9478535652160645,-8.893157958984375,-11.666728019714355
1715093386710999800,10.482999755859375,-5.251475811004639,-12.05997085571289,-10.510331153869629
1715093386720979200,10.492979248046876,-5.164262294769287,-13.409613609313965,-6.923685073852539
1715093386730927900,10.502927978515626,-4.886855602264404,-12.008272171020508,-1.8407230377197266
1715093386740907000,10.512906982421875,-5.449479103088379,-8.966592788696289,2.27089524269104
1715093386750886400,10.522886474609376,-6.340610504150391,-4.519830703735352,5.841651916503906
1715093386760865500,10.532865478515625,-7.724147319793701,0.4200601577758789,9.334151268005371
1715093386770814500,10.542814453125,-7.68086051940918,1.7034196853637695,11.01679801940918
1715093386780793600,10.552793701171876,-6.111029624938965,2.205794334411621,9.777050018310547
1715093386790772700,10.562772705078125,-3.5616631507873535,3.5011425018310547,8.310172080993652
1715093386800721700,10.5727216796875,-2.788613796234131,3.6040096282958984,5.792720317840576
1715093386810700800,10.58270068359375,-3.0882747173309326,3.038050651550293,3.9088830947875977
1715093386820680200,10.59268017578125,-1.9894248247146606,2.489574432373047,2.545057773590088
1715093386830628900,10.60262890625,-0.414705753326416,1.8992319107055664,0.4774661064147949
1715093386840608000,10.61260791015625,1.7245838642120361,1.5743741989135742,-1.509354591369629
1715093386850587400,10.62258740234375,2.810948371887207,2.022458076477051,-2.590062141418457
1715093386860536000,10.6325361328125,2.9190101623535156,2.2564096450805664,-3.2061607837677
1715093386870515200,10.64251513671875,2.3407235145568848,3.212244987487793,-3.479698896408081
1715093386880494600,10.65249462890625,1.3044121265411377,3.9791717529296875,-3.9139230251312256
1715093386890443300,10.662443359375,0.26495444774627686,4.394961357116699,-4.270803451538086
1715093386900422400,10.67242236328125,-0.4630779027938843,4.34846305847168,-4.227881908416748
1715093386910401800,10.68240185546875,-0.9472047090530396,4.09893798828125,-4.006424903869629
1715093386920350500,10.6923505859375,-1.121605634689331,3.958616256713867,-3.937598943710327
1715093386930329900,10.702329833984376,-0.9190915822982788,3.8938779830932617,-3.8832461833953857
1715093386940309000,10.71230908203125,-0.5258078575134277,3.9082441329956055,-3.6727659702301025
1715093386950257700,10.722257568359375,0.418479323387146,4.167898178100586,-4.001720428466797
1715093386960237000,10.732237060546876,1.2400144338607788,4.058175086975098,-3.9921340942382812
1715093386970216200,10.74221630859375,1.5276440382003784,3.6706104278564453,-3.0507497787475586
1715093386980164900,10.752164794921875,1.83948814868927,3.1852779388427734,-2.1259069442749023
1715093386990144300,10.762144287109376,1.898186206817627,2.961620330810547,-0.06409335136413574
1715093387000123400,10.772123291015625,1.7653284072875977,2.8729324340820312,1.898641586303711
1715093387010102800,10.782102783203126,2.0104122161865234,2.8300466537475586,5.371386528015137
1715093387020082000,10.79208203125,1.2537858486175537,0.5458793640136719,7.236103057861328
1715093387030030600,10.802030517578125,0.273626446723938,-2.5172815322875977,8.268733978271484
1715093387040010000,10.812010009765626,-0.6300641298294067,-5.36198616027832,6.910794734954834
1715093387049989000,10.821989013671875,-0.8506877422332764,-7.35897159576416,3.017174005508423
1715093387059937800,10.831937744140625,0.18886995315551758,-8.421649932861328,-1.230947494506836
1715093387069917200,10.841917236328126,1.7645748853683472,-9.665740013122559,-4.498811721801758
1715093387079896300,10.851896240234375,4.350137710571289,-8.436911582946777,-6.260316848754883
1715093387089845200,10.86184521484375,2.829608917236328,-3.058401107788086,-4.16838264465332
1715093387099824400,10.871824462890626,1.678878903388977,2.0243940353393555,-0.11514163017272949
1715093387109803500,10.881803466796875,0.5953890085220337,3.3723926544189453,2.17669677734375
1715093387119752400,10.89175244140625,-2.977691173553467,1.020456314086914,4.060692310333252
1715093387129731600,10.901731689453126,-1.7516183853149414,-5.420166969299316,6.644104957580566
1715093387139710700,10.911710693359375,-6.053888320922852,-14.748225212097168,7.74943733215332
1715093387149659600,10.92165966796875,-14.565067291259766,-18.706073760986328,5.897436618804932
1715093387159638800,10.931638671875,-13.421348571777344,-16.963468551635742,-2.302445650100708
1715093387169618200,10.9416181640625,-5.067722320556641,-7.973386764526367,-8.984519958496094
1715093387179566800,10.95156689453125,0.7156085968017578,-0.4619016647338867,-6.306321144104004
1715093387189546000,10.9615458984375,2.0828351974487305,3.8426475524902344,-2.619795799255371
1715093387199525400,10.971525390625,2.3369140625,5.686739921569824,-0.7726857662200928
1715093387209474000,10.98147412109375,3.114917755126953,5.957514762878418,-0.45271968841552734
1715093387219453200,10.991453125,2.099128007888794,6.20319938659668,-2.5676262378692627
1715093387229432600,11.0014326171875,2.3546547889709473,6.530733108520508,-3.8094961643218994
1715093387239381200,11.01138134765625,3.0159659385681152,5.248665809631348,-3.1793220043182373
1715093387249360400,11.0213603515625,3.1902856826782227,2.683544158935547,-3.5811355113983154
1715093387259339800,11.03133984375,2.645094394683838,-0.44875335693359375,-3.5858123302459717
1715093387269288400,11.041288330078125,0.22739553451538086,-3.1401262283325195,-3.2131941318511963
1715093387279267800,11.051267822265626,-1.9185235500335693,-4.553704261779785,-3.0428051948547363
1715093387289247000,11.0612470703125,-2.422297954559326,-4.651575088500977,-4.644211769104004
1715093387299226000,11.07122607421875,-1.2045186758041382,-2.568535804748535,-6.385849475860596
1715093387309205500,11.08120556640625,1.2902171611785889,0.4742393493652344,-5.360324382781982
1715093387319154200,11.091154296875,2.2769126892089844,3.015425682067871,-5.498770236968994
1715093387329133600,11.101133544921876,2.4932518005371094,5.008681297302246,-5.335320472717285
1715093387339112700,11.11111279296875,3.4089603424072266,6.22982120513916,-4.090150356292725
1715093387349061400,11.121061279296875,4.392313003540039,6.05605411529541,-3.095014810562134
1715093387359040800,11.131040771484376,5.21524715423584,5.548215866088867,-1.4258273839950562
1715093387369020000,11.14102001953125,5.485383987426758,4.44687557220459,0.7584964036941528
1715093387378968600,11.150968505859375,4.483164310455322,2.540201187133789,2.137819290161133
1715093387388948000,11.160947998046876,3.1990413665771484,0.5532236099243164,3.2408313751220703
1715093387398927000,11.170927001953125,1.8074649572372437,-0.9747858047485352,4.392139911651611
1715093387408875800,11.180875732421875,0.26246869564056396,-1.7942800521850586,4.921778678894043
1715093387418855200,11.190855224609376,-1.182744026184082,-1.9679460525512695,4.478396415710449
1715093387428834300,11.200834228515625,-2.050772190093994,-1.5542383193969727,3.842133045196533
1715093387438783200,11.210783203125,-2.3822741508483887,-1.0832738876342773,3.2503533363342285
1715093387448762400,11.220762451171876,-2.3130409717559814,-0.7223758697509766,2.7599124908447266
1715093387458741500,11.230741455078125,-2.0747320652008057,-0.32326412200927734,2.642981767654419
1715093387468690400,11.2406904296875,-1.8936011791229248,-0.45525169372558594,2.928737163543701
1715093387478669600,11.250669677734376,-0.927811861038208,-0.6799964904785156,3.1205739974975586
1715093387488649000,11.26064892578125,1.1394829750061035,-0.696263313293457,3.0907487869262695
1715093387498597600,11.27059765625,4.429461479187012,-0.011342048645019531,2.906437635421753
1715093387508576800,11.28057666015625,7.846134662628174,1.271188735961914,2.730337619781494
1715093387518556200,11.29055615234375,10.896108627319336,3.2255020141601562,2.7253921031951904
1715093387528504800,11.3005048828125,11.744268417358398,5.32003116607666,2.9851903915405273
1715093387538484000,11.31048388671875,9.760364532470703,6.590913772583008,2.437382698059082
1715093387548463400,11.32046337890625,5.782201766967773,6.472982406616211,1.5395976305007935
1715093387558412000,11.330412109375,2.183438301086426,4.0226335525512695,1.766541838645935
1715093387568391200,11.34039111328125,1.67649245262146,-0.17609500885009766,3.273198127746582
1715093387578370600,11.35037060546875,2.250016927719116,-4.58473014831543,2.565758228302002
1715093387588349700,11.360349609375,2.0667474269866943,-7.683742523193359,0.9464418292045593
1715093387598329000,11.3703291015625,2.841567039489746,-9.143820762634277,-0.013416945934295654
1715093387608277800,11.38027783203125,3.560091495513916,-8.503898620605469,-0.37489038705825806
1715093387618257000,11.3902568359375,1.5907585620880127,-5.516286849975586,1.6715461015701294
1715093387628236300,11.400236328125,-0.4650750160217285,-1.644230842590332,3.565856695175171
1715093387638185000,11.41018505859375,-2.167943000793457,1.284505844116211,4.111311912536621
1715093387648164000,11.4201640625,-2.2322006225585938,3.7650327682495117,3.6401684284210205
1715093387658143500,11.4301435546875,-1.269056797027588,4.605751037597656,1.0690120458602905
1715093387668092200,11.440092041015625,-0.40511345863342285,4.403633117675781,-1.5407648086547852
1715093387678071600,11.450071533203126,-0.6548359394073486,3.448396682739258,-5.2385969161987305
1715093387688050700,11.46005078125,-1.7496495246887207,1.6022520065307617,-8.1207857131958
1715093387697999400,11.469999267578125,-2.7804744243621826,-1.3053503036499023,-10.564972877502441
1715093387707978800,11.479978759765626,-3.45778751373291,-4.506717681884766,-11.350808143615723
1715093387717958000,11.4899580078125,-3.162142276763916,-7.6844987869262695,-11.37148666381836
1715093387727906600,11.499906494140625,-3.093886613845825,-11.071151733398438,-10.549020767211914
1715093387737886000,11.509885986328126,-3.806980848312378,-14.156453132629395,-7.434196949005127
1715093387747865000,11.519864990234375,-4.179376125335693,-14.612282752990723,-1.3353633880615234
1715093387757813800,11.529813720703125,-6.441237926483154,-12.008768081665039,4.323708534240723
1715093387767793200,11.539793212890626,-10.172953605651855,-7.372309684753418,6.8606719970703125
1715093387777772300,11.549772216796875,-12.546489715576172,-1.7108478546142578,10.23637580871582
1715093387787721200,11.55972119140625,-9.139714241027832,1.8228025436401367,11.583845138549805
1715093387797700400,11.569700439453126,-6.036321640014648,4.248012542724609,10.330151557922363
1715093387807679500,11.579679443359375,-4.459873199462891,5.255634307861328,7.210766792297363
1715093387817628400,11.58962841796875,-2.847749710083008,5.787785530090332,5.688803195953369
1715093387827607600,11.599607666015626,-1.8240207433700562,4.748247146606445,4.102027893066406
1715093387837587000,11.6095869140625,-0.8327823877334595,3.435969352722168,1.7556763887405396
1715093387847535600,11.61953564453125,0.08869528770446777,2.3880615234375,-0.7341506481170654
1715093387857514800,11.6295146484375,1.5140867233276367,1.9520044326782227,-2.8234987258911133
1715093387867494100,11.639494140625,2.3535454273223877,1.6117515563964844,-4.197473526000977
1715093387877473300,11.649473388671876,2.919243335723877,1.776402473449707,-5.136338233947754
1715093387887452700,11.65945263671875,2.615339756011963,2.8978137969970703,-5.39720344543457
1715093387897401300,11.6694013671875,1.7554482221603394,4.154003143310547,-5.2623491287231445
1715093387907380500,11.67938037109375,0.6504204273223877,4.8556928634643555,-4.873690605163574
1715093387917359900,11.68935986328125,-0.38093435764312744,5.041889190673828,-3.9105002880096436
1715093387927308500,11.69930859375,-1.0738621950149536,4.864360809326172,-3.2402615547180176
1715093387937287700,11.70928759765625,-1.6218287944793701,4.479362487792969,-2.749357223510742
1715093387947267000,11.71926708984375,-1.7384494543075562,4.067755699157715,-2.4361319541931152
1715093387957215700,11.7292158203125,-1.3899379968643188,3.6576709747314453,-2.125037670135498
1715093387967195000,11.73919482421875,-0.6726646423339844,2.787740707397461,-2.40461802482605
1715093387977174300,11.74917431640625,0.49295878410339355,2.328989028930664,-2.2180886268615723
1715093387987123000,11.759123046875,1.2586413621902466,1.9522666931152344,-1.688295841217041
1715093387997102000,11.76910205078125,1.3854267597198486,1.6375398635864258,-0.6448938846588135
1715093388007081500,11.77908154296875,1.4300545454025269,1.8997220993041992,1.6907453536987305
1715093388017030100,11.789030029296875,1.7750762701034546,2.685051918029785,4.822399139404297
1715093388027009500,11.799009521484376,1.4171146154403687,1.6801376342773438,6.838555812835693
1715093388036988700,11.80898876953125,0.9601267576217651,-0.5259799957275391,8.498601913452148
1715093388046937300,11.818937255859375,1.376568078994751,-3.074648857116699,10.486640930175781
1715093388056916700,11.828916748046876,1.1519787311553955,-6.422665596008301,9.64146900177002
1715093388066896000,11.838895751953125,-2.966456890106201,-8.623766899108887,5.543741226196289
1715093388076844500,11.848844482421875,-4.22495174407959,-10.064004898071289,-0.3061354160308838
1715093388086824000,11.858823974609376,-2.6707959175109863,-10.606603622436523,-5.30363130569458
1715093388096803000,11.868802978515625,1.2915937900543213,-8.042022705078125,-6.381505966186523
1715093388106751700,11.878751708984375,3.252028226852417,-1.0920038223266602,-3.5678000450134277
1715093388116731100,11.888731201171876,3.1039538383483887,3.4234886169433594,0.52052903175354
1715093388126710300,11.898710205078125,1.266764521598816,1.7879953384399414,0.6370289325714111
1715093388136659200,11.9086591796875,0.8574877381324768,-0.7151374816894531,0.2517063617706299
1715093388146638300,11.918638427734376,-2.551178216934204,-6.1800737380981445,2.1607367992401123
1715093388156617500,11.928617431640625,-6.0264482498168945,-14.62161922454834,6.472637176513672
1715093388166596900,11.938596923828126,-10.59170913696289,-17.193452835083008,4.026991367340088
1715093388176576000,11.948575927734375,-9.719077110290527,-13.050408363342285,-6.3137922286987305
1715093388186525000,11.95852490234375,-2.9056313037872314,-4.363126754760742,-8.227852821350098
1715093388196504000,11.968504150390626,1.1575336456298828,2.1363039016723633,-3.7954299449920654
1715093388206483200,11.978483154296875,3.4238460063934326,4.376870155334473,-1.0910208225250244
1715093388216432000,11.98843212890625,4.124351978302002,5.868473052978516,0.40144848823547363
1715093388226411300,11.998411376953126,3.7262701988220215,6.913647651672363,0.8996376991271973
1715093388236390700,12.008390625,2.214977264404297,6.967340469360352,-0.5509724617004395
1715093388246339300,12.01833935546875,0.9820566177368164,5.9187726974487305,-2.714625120162964
1715093388256318500,12.028318359375,1.0631049871444702,4.429925918579102,-4.0436906814575195
1715093388266297900,12.0382978515625,1.0334210395812988,2.1590490341186523,-5.896585941314697
1715093388276246500,12.04824658203125,1.6784002780914307,-0.3726053237915039,-6.973439693450928
1715093388286225700,12.0582255859375,2.3479607105255127,-2.4496021270751953,-6.186365127563477
1715093388296205000,12.068205078125,0.8391819000244141,-3.592402458190918,-5.34678316116333
1715093388306153700,12.07815380859375,-1.5088610649108887,-3.239971160888672,-5.61159086227417
1715093388316132900,12.0881328125,-1.329959750175476,-0.8551912307739258,-5.693947792053223
1715093388326112300,12.0981123046875,0.5225002765655518,2.0204267501831055,-4.567460536956787
1715093388336061000,12.10806103515625,2.142237424850464,3.5075769424438477,-4.427722930908203
1715093388346040300,12.118040283203126,3.093068838119507,4.374802589416504,-4.172877311706543
1715093388356019500,12.12801953125,3.085200071334839,4.407660484313965,-3.9486196041107178
1715093388365968100,12.137968017578125,2.2513961791992188,4.073916435241699,-2.962056875228882
1715093388375947500,12.147947509765626,1.7004821300506592,3.567263603210449,-0.46549558639526367
1715093388385926700,12.1579267578125,1.5792425870895386,2.6385889053344727,1.8277841806411743
1715093388395875300,12.167875244140625,1.1597121953964233,1.2858161926269531,3.323885440826416
1715093388405854700,12.177854736328126,0.6692545413970947,-0.13819599151611328,3.955090045928955
1715093388415833900,12.187833740234375,0.14943933486938477,-1.1263647079467773,4.140788555145264
1715093388425813200,12.197813232421876,-0.4045069217681885,-1.3294696807861328,4.208159446716309
1715093388435762000,12.207761962890626,-0.8232780694961548,-0.7635564804077148,4.112740516662598
1715093388445741000,12.217740966796875,-0.9137723445892334,-0.12947463989257812,3.5336720943450928
1715093388455720400,12.227720458984376,-1.0762799978256226,0.27997398376464844,2.888152599334717
1715093388465699600,12.237699462890625,-0.9410605430603027,0.3707733154296875,2.5359129905700684
1715093388475679000,12.247678955078126,-0.3939218521118164,0.24127674102783203,2.294229745864868
1715093388485627600,12.257627685546876,0.6448755264282227,0.3107166290283203,2.4297757148742676
1715093388495606800,12.267606689453125,1.6055777072906494,0.4891014099121094,2.8844423294067383
1715093388505586200,12.277586181640626,2.407108783721924,0.7302045822143555,3.2062463760375977
1715093388515534800,12.287534912109376,3.3553876876831055,0.7928056716918945,3.0127930641174316
1715093388525514000,12.297513916015625,5.093928337097168,0.8266658782958984,2.4237561225891113
1715093388535493400,12.307493408203126,6.899991035461426,1.2539653778076172,1.328361988067627
1715093388545442000,12.317442138671876,7.997838020324707,1.5068731307983398,0.44471311569213867
1715093388555421200,12.327421142578125,7.363706588745117,2.052821159362793,-1.2753469944000244
1715093388565400600,12.337400634765626,5.790063858032227,2.425591468811035,-1.9123265743255615
1715093388575349200,12.347349365234376,3.874635696411133,2.133026123046875,-1.3747385740280151
1715093388585328600,12.35732861328125,2.6450276374816895,1.2125215530395508,0.048857688903808594
1715093388595277300,12.36727734375,2.652653217315674,-0.5803499221801758,1.9134544134140015
1715093388605256400,12.37725634765625,3.353200912475586,-2.4552555084228516,2.2098541259765625
1715093388615235800,12.38723583984375,4.12380313873291,-3.245467185974121,1.6168206930160522
1715093388625184500,12.3971845703125,4.743062973022461,-2.971893310546875,3.1693296432495117
1715093388635163600,12.40716357421875,4.42551326751709,-1.9103994369506836,5.004998207092285
1715093388645143000,12.41714306640625,3.109152317047119,-0.6117105484008789,5.230580806732178
1715093388655091700,12.427091796875,2.1195950508117676,0.6821117401123047,4.447036266326904
1715093388665070800,12.43707080078125,1.359137773513794,2.0312681198120117,3.5323500633239746
1715093388675050200,12.44705029296875,-0.17728304862976074,2.7607927322387695,1.637537956237793
1715093388684999000,12.4569990234375,-1.7489691972732544,1.8445444107055664,-0.5371204018592834
1715093388694978300,12.466978271484376,-2.1508312225341797,0.5878305435180664,-2.480011463165283
1715093388704957400,12.47695751953125,-1.959919810295105,-1.3698444366455078,-4.9186248779296875
1715093388714936600,12.4869365234375,-2.7757532596588135,-3.701192855834961,-7.2698283195495605
1715093388724885500,12.496885498046876,-3.994265079498291,-5.3276166915893555,-8.585700035095215
1715093388734864600,12.50686474609375,-4.262956619262695,-8.014070510864258,-9.98187255859375
1715093388744843800,12.51684375,-4.4042649269104,-11.667959213256836,-11.554327964782715
1715093388754823200,12.5268232421875,-5.083110809326172,-14.048833847045898,-10.587592124938965
1715093388764802300,12.53680224609375,-5.195649147033691,-13.292400360107422,-5.884761333465576
1715093388774751200,12.546751220703126,-5.269218921661377,-9.716498374938965,-0.09345781803131104
1715093388784730400,12.55673046875,-5.705108165740967,-6.106488227844238,3.34682559967041
1715093388794709500,12.56670947265625,-6.419332981109619,-0.19810199737548828,7.190967559814453
1715093388804658400,12.576658447265626,-7.922598838806152,1.8308029174804688,8.293405532836914
1715093388814637600,12.586637451171875,-7.928934097290039,2.073348045349121,9.799564361572266
1715093388824617000,12.596616943359376,-5.059298992156982,2.621877670288086,9.800834655761719
1715093388834565600,12.606565673828126,-3.3095285892486572,3.0628204345703125,8.007556915283203
1715093388844544800,12.616544677734375,-3.6134262084960938,2.9979963302612305,5.484230041503906
1715093388854524200,12.626524169921876,-3.0313830375671387,2.809760093688965,3.6592941284179688
1715093388864472800,12.636472900390626,-1.6292142868041992,2.7952804565429688,1.902028203010559
1715093388874452000,12.646451904296875,0.17932426929473877,2.539313316345215,-0.33215928077697754
1715093388884401000,12.65640087890625,2.207249641418457,2.5313234329223633,-1.9855966567993164
1715093388894380000,12.666380126953126,2.65877103805542,2.847140312194824,-2.788017988204956
1715093388904359200,12.676359130859375,2.371047258377075,3.36245059967041,-3.6518046855926514
1715093388914308000,12.68630810546875,1.7980033159255981,4.210857391357422,-4.319719314575195
1715093388924287200,12.696287353515626,1.1034660339355469,4.928532600402832,-4.96360969543457
1715093388934266600,12.7062666015625,0.3261284828186035,4.7652082443237305,-5.199381351470947
1715093388944215300,12.71621533203125,-0.19726645946502686,4.525014877319336,-5.401556968688965
1715093388954194400,12.7261943359375,-0.7302848100662231,4.064471244812012,-5.570718288421631
1715093388964173800,12.736173828125,-1.0488651990890503,3.7293453216552734,-5.493307113647461
1715093388974122500,12.74612255859375,-0.8644089698791504,3.5432233810424805,-5.300292015075684
1715093388984101600,12.7561015625,-0.5227788686752319,3.6817474365234375,-4.8969244956970215
1715093388994081000,12.7660810546875,0.12088179588317871,3.471125602722168,-4.980313301086426
1715093389004060200,12.77606005859375,0.6879220008850098,3.194232940673828,-3.81592059135437
1715093389014008800,12.7860087890625,1.2146730422973633,2.502373695373535,-2.4794139862060547
1715093389023988200,12.79598828125,1.369424819946289,1.8509349822998047,-0.6373929977416992
1715093389033967400,12.80596728515625,1.2659653425216675,2.302788734436035,2.641435146331787
1715093389043946800,12.81594677734375,0.9306364059448242,2.707141876220703,4.669554710388184
