time,seconds_elapsed,z,y,x
1715093376342262500,0.114262451171875,11.742584228515625,1.9467010498046875,-1.7748565673828125
1715093376352241700,0.12424169921875,12.329177856445312,1.8365631103515625,-1.7892303466796875
1715093376362251500,0.13425146484375,13.011520385742188,1.3170166015625,-1.9640045166015625
1715093376372231000,0.14423095703125,14.15594482421875,1.6881256103515625,-2.093292236328125
1715093376382249500,0.15424951171875,14.570144653320312,1.5923614501953125,-2.19384765625
1715093376392220400,0.164220458984375,14.242141723632812,1.817413330078125,-2.6248016357421875
1715093376402199600,0.174199462890625,13.497543334960938,1.7455902099609375,-2.11962890625
1715093376412179000,0.184178955078125,12.099334716796875,1.6474151611328125,-1.3199615478515625
1715093376422158000,0.194157958984375,11.151229858398438,2.0735931396484375,-1.7724609375
1715093376432137500,0.204137451171875,10.804061889648438,2.0520477294921875,-1.57135009765625
1715093376442116600,0.21411669921875,10.981231689453125,2.1837158203125,-1.8035888671875
1715093376452096000,0.224095947265625,11.189529418945312,2.166961669921875,-2.1818695068359375
1715093376462075100,0.2340751953125,11.488800048828125,2.2435760498046875,-2.263275146484375
1715093376472054300,0.24405419921875,11.687530517578125,2.2651214599609375,-2.04541015625
1715093376482033700,0.25403369140625,11.771316528320312,2.4327239990234375,-1.564178466796875
1715093376492012800,0.2640126953125,11.603729248046875,2.76312255859375,-1.111663818359375
1715093376501961700,0.273961669921875,11.390640258789062,3.1725311279296875,-0.73577880859375
1715093376511940900,0.28394091796875,11.021942138671875,3.4957427978515625,-0.1994781494140625
1715093376521889500,0.2938896484375,10.720260620117188,3.6226348876953125,0.0782470703125
1715093376531869000,0.303868896484375,10.33001708984375,3.581939697265625,-0.1300506591796875
1715093376541817600,0.313817626953125,9.882293701171875,3.5268707275390625,-0.0989227294921875
1715093376551796700,0.323796630859375,9.568649291992188,3.6370086669921875,0.092620849609375
1715093376561776000,0.333776123046875,9.10418701171875,3.8907928466796875,0.231475830078125
1715093376571724800,0.343724853515625,8.309310913085938,4.2618865966796875,0.2961273193359375
1715093376581704000,0.353703857421875,8.519989013671875,4.1565399169921875,0.2123260498046875
1715093376591652900,0.36365283203125,9.089813232421875,3.835723876953125,0.324859619140625
1715093376601632000,0.373632080078125,8.881515502929688,4.10626220703125,0.4828643798828125
1715093376611611400,0.383611328125,7.9836883544921875,4.522857666015625,0.6863861083984375
1715093376621560000,0.39356005859375,6.88714599609375,4.8101654052734375,0.578643798828125
1715093376631539200,0.403539306640625,6.0012969970703125,4.9083251953125,0.3655548095703125
1715093376641518600,0.4135185546875,5.4147186279296875,4.7096099853515625,-0.022308349609375
1715093376651467300,0.42346728515625,5.2662811279296875,4.81256103515625,-0.0247039794921875
1715093376661446400,0.4334462890625,5.8265228271484375,4.999298095703125,0.1692352294921875
1715093376671425800,0.44342578125,6.5184478759765625,5.0543670654296875,0.209930419921875
1715093376681374500,0.45337451171875,8.5128173828125,4.8053741455078125,0.1548614501953125
1715093376691353600,0.463353515625,10.227066040039062,4.352874755859375,-0.096527099609375
1715093376701333000,0.4733330078125,10.00201416015625,3.7591094970703125,-0.043853759765625
1715093376711281700,0.48328173828125,9.269378662109375,4.0535888671875,0.018402099609375
1715093376721261000,0.493260986328125,8.223114013671875,4.3935699462890625,0.262603759765625
1715093376731240200,0.503240234375,7.3588104248046875,4.5563812255859375,0.231475830078125
1715093376741219300,0.51321923828125,6.9565887451171875,4.36962890625,-0.09173583984375
1715093376751168300,0.523168212890625,7.260650634765625,3.9961395263671875,-0.8219757080078125
1715093376761147400,0.5331474609375,7.66766357421875,3.8285369873046875,-1.2768707275390625
1715093376771126800,0.543126708984375,7.9094696044921875,3.8764190673828125,-0.9919586181640625
1715093376781075500,0.553075439453125,7.6963958740234375,3.10308837890625,-1.2768707275390625
1715093376791054600,0.5630546875,7.8807373046875,4.1828765869140625,-0.3263702392578125
1715093376801034000,0.573033935546875,6.401123046875,5.2052001953125,0.08782958984375
1715093376810982700,0.582982666015625,6.4298553466796875,5.736724853515625,1.445343017578125
1715093376820961800,0.5929619140625,8.845611572265625,5.42547607421875,1.2753448486328125
1715093376830941200,0.602941162109375,9.0634765625,5.377593994140625,0.906646728515625
1715093376840889900,0.612889892578125,8.910247802734375,4.479766845703125,-0.0318756103515625
1715093376850869000,0.622868896484375,8.984466552734375,4.3768157958984375,-0.4269256591796875
1715093376860848400,0.632848388671875,8.678009033203125,5.0208587646484375,-0.3910064697265625
1715093376870797000,0.642797119140625,8.321273803710938,4.5084991455078125,-0.84112548828125
1715093376880776400,0.6527763671875,8.728286743164062,4.865234375,-0.9249267578125
1715093376890755600,0.662755615234375,9.017990112304688,5.5715179443359375,-0.201873779296875
1715093376900704300,0.672704345703125,8.982070922851562,4.9370574951171875,-0.16595458984375
1715093376910683600,0.68268359375,9.312469482421875,5.061553955078125,-0.6160736083984375
1715093376920662800,0.692662841796875,9.269378662109375,5.06634521484375,-0.541839599609375
1715093376930611500,0.702611572265625,9.307693481445312,5.145355224609375,-0.37664794921875
1715093376940590800,0.7125908203125,9.106582641601562,5.3129425048828125,-0.101318359375
1715093376950570000,0.722570068359375,9.013198852539062,5.4087066650390625,0.26739501953125
1715093376960518700,0.7325185546875,8.747451782226562,5.53082275390625,0.5092010498046875
1715093376970498000,0.742498046875,8.443374633789062,5.399139404296875,0.3918914794921875
1715093376980477200,0.752477294921875,8.481689453125,5.2602691650390625,0.3344268798828125
1715093376990425900,0.76242578125,8.541549682617188,5.166900634765625,0.5547027587890625
1715093377000405200,0.7724052734375,8.464935302734375,5.083099365234375,0.664825439453125
1715093377010384400,0.78238427734375,7.947784423828125,5.0376129150390625,0.83721923828125
1715093377020363800,0.79236376953125,7.7346954345703125,4.9370574951171875,0.9401702880859375
1715093377030343000,0.802343017578125,7.7203369140625,4.893951416015625,1.0790252685546875
1715093377040291600,0.81229150390625,7.5072479248046875,4.6114501953125,1.682373046875
1715093377050271000,0.82227099609375,7.895111083984375,4.513275146484375,1.5123748779296875
1715093377060250000,0.83225,9.635696411132812,4.4127197265625,0.1165618896484375
1715093377070199000,0.842198974609375,10.622100830078125,4.0344390869140625,0.1381072998046875
1715093377080178200,0.85217822265625,10.835189819335938,4.4725799560546875,0.6552581787109375
1715093377090157300,0.8621572265625,9.767379760742188,4.395965576171875,0.5882110595703125
1715093377100106200,0.872106201171875,9.415420532226562,4.216400146484375,0.4876556396484375
1715093377110085400,0.88208544921875,9.140090942382812,4.352874755859375,0.616943359375
1715093377120064800,0.892064697265625,9.065872192382812,4.44384765625,0.5283660888671875
1715093377130013400,0.902013427734375,9.015594482421875,4.4510345458984375,0.4134368896484375
1715093377139992600,0.91199267578125,8.718719482421875,4.587493896484375,0.3607635498046875
1715093377149972000,0.921971923828125,8.350006103515625,4.6952362060546875,0.430206298828125
1715093377159920600,0.931920654296875,8.168045043945312,4.7215728759765625,0.705535888671875
1715093377169899800,0.941899658203125,8.141708374023438,5.06634521484375,0.9425506591796875
1715093377179879200,0.951879150390625,7.7394866943359375,5.0639495849609375,0.844390869140625
1715093377189827800,0.961827880859375,7.6461181640625,5.1692962646484375,0.537933349609375
1715093377199807000,0.971806884765625,7.6389312744140625,5.073516845703125,0.1069793701171875
1715093377209786400,0.981786376953125,7.689208984375,4.802978515625,-0.180328369140625
1715093377219735000,0.991735107421875,7.5072479248046875,4.671295166015625,0.0279693603515625
1715093377229714400,1.00171435546875,7.219940185546875,4.5635528564453125,0.18359375
1715093377239693600,1.011693603515625,12.156784057617188,4.079925537109375,0.13092041015625
1715093377249642200,1.021642333984375,12.03228759765625,4.43426513671875,0.7031402587890625
1715093377259621600,1.03162158203125,8.898284912109375,4.8795928955078125,3.15240478515625
1715093377269600800,1.041600830078125,7.9884796142578125,5.15252685546875,2.2186737060546875
1715093377279549400,1.051549560546875,7.093048095703125,4.173309326171875,1.8667144775390625
1715093377289528800,1.06152880859375,8.845611572265625,5.224365234375,0.8252410888671875
1715093377299508000,1.071508056640625,8.455352783203125,4.9418487548828125,0.9832611083984375
1715093377309487400,1.0814873046875,7.430633544921875,4.9801483154296875,0.765380859375
1715093377319466500,1.091466552734375,6.607025146484375,5.3440704345703125,1.5028076171875
1715093377329415200,1.101415283203125,6.8895416259765625,5.09747314453125,1.330413818359375
1715093377339394600,1.11139453125,7.540771484375,5.372802734375,1.265777587890625
1715093377349373700,1.121373779296875,7.5335845947265625,5.22674560546875,1.4477386474609375
1715093377359322400,1.131322265625,7.75384521484375,5.1309814453125,1.4788665771484375
1715093377369301800,1.1413017578125,7.504852294921875,5.10943603515625,1.409423828125
1715093377379281000,1.151281005859375,7.107421875,5.1645050048828125,1.5746307373046875
1715093377389229600,1.1612294921875,7.4689483642578125,5.1645050048828125,1.9385528564453125
1715093377399209000,1.171208984375,8.711532592773438,4.881988525390625,1.7278594970703125
1715093377409188000,1.18118798828125,8.965316772460938,4.8436737060546875,0.209930419921875
1715093377419137000,1.191136962890625,8.254241943359375,3.783050537109375,1.2202911376953125
1715093377429116200,1.2011162109375,7.67962646484375,3.4789886474609375,0.305694580078125
1715093377439095300,1.21109521484375,11.007568359375,4.431884765625,0.609771728515625
1715093377449044200,1.221044189453125,10.464080810546875,3.218017578125,0.1596527099609375
1715093377459023400,1.2310234375,10.4569091796875,4.431884765625,0.7893218994140625
1715093377469002800,1.241002685546875,8.134536743164062,3.7806549072265625,1.7494049072265625
1715093377478951400,1.250951416015625,7.2534637451171875,3.6489715576171875,1.9145965576171875
1715093377488941300,1.26094140625,7.3971099853515625,4.0488128662109375,2.03192138671875
1715093377498920400,1.27092041015625,7.5168304443359375,3.919525146484375,1.562652587890625
1715093377508869000,1.280869140625,7.399505615234375,3.625030517578125,1.244232177734375
1715093377518848500,1.2908486328125,7.033203125,3.201263427734375,0.7989044189453125
1715093377528797200,1.300797119140625,6.15692138671875,2.61468505859375,-0.055816650390625
1715093377538776600,1.310776611328125,5.385986328125,1.6665802001953125,-0.398193359375
1715093377548755700,1.320755615234375,5.180084228515625,1.3170166015625,-0.223419189453125
1715093377558734800,1.33073486328125,4.356475830078125,0.718475341796875,-0.1204681396484375
1715093377568683800,1.340683837890625,4.78265380859375,0.213287353515625,0.5738525390625
1715093377578663000,1.350662841796875,5.1824798583984375,0.2156829833984375,2.06304931640625
1715093377588642300,1.360642333984375,6.1329803466796875,0.507781982421875,3.2984466552734375
1715093377598621400,1.370621337890625,7.8448333740234375,0.6155242919921875,3.537872314453125
1715093377608600600,1.3806005859375,9.070663452148438,-0.6031341552734375,3.03509521484375
1715093377618549500,1.390549560546875,9.374725341796875,-3.2128143310546875,1.921783447265625
1715093377628528600,1.400528564453125,9.006011962890625,-5.5639190673828125,1.5267486572265625
1715093377638508000,1.410508056640625,7.780181884765625,-6.8591766357421875,2.32879638671875
1715093377648456700,1.420456787109375,6.31494140625,-7.3595733642578125,3.2769012451171875
1715093377658435800,1.430435791015625,5.180084228515625,-7.3667449951171875,4.1172637939453125
1715093377668415200,1.440415283203125,6.4514007568359375,-6.3683624267578125,5.364654541015625
1715093377678364000,1.450364013671875,7.181640625,-6.35400390625,5.92010498046875
1715093377688343000,1.460343017578125,7.614990234375,-5.9637451171875,6.375
1715093377698322400,1.470322509765625,7.95257568359375,-6.4354095458984375,4.8235626220703125
1715093377708271000,1.48027099609375,6.913482666015625,-7.742645263671875,2.5251312255859375
1715093377718250200,1.490250244140625,5.6708984375,-8.944534301757812,-0.0079345703125
1715093377728229600,1.500229736328125,5.8648223876953125,-9.425765991210938,-1.4636077880859375
1715093377738178300,1.51017822265625,5.64935302734375,-8.642852783203125,-1.2241973876953125
1715093377748157700,1.52015771484375,3.2335968017578125,-8.439346313476562,-0.022308349609375
1715093377758106400,1.5301064453125,1.133880615234375,-8.712295532226562,1.1149444580078125
1715093377768085500,1.54008544921875,3.9518585205078125,-7.99163818359375,0.9880523681640625
1715093377778065000,1.55006494140625,7.1481170654296875,-5.98529052734375,1.3543548583984375
1715093377788013600,1.560013671875,9.353179931640625,-5.573486328125,2.04150390625
1715093377797992700,1.56999267578125,12.108901977539062,-5.006072998046875,6.442047119140625
1715093377807972000,1.57997216796875,15.0322265625,-4.1178131103515625,10.734848022460938
1715093377817920800,1.589920654296875,17.347412109375,-5.1832427978515625,8.230514526367188
1715093377827900000,1.59989990234375,18.73126220703125,-4.9988861083984375,9.542526245117188
1715093377837879300,1.60987939453125,22.2698974609375,-0.23681640625,24.465591430664062
1715093377847858400,1.6198583984375,27.972885131835938,-0.0859832763671875,22.890213012695312
1715093377857837800,1.629837890625,28.715087890625,-4.3979339599609375,12.884841918945312
1715093377867775000,1.63977490234375,23.445449829101562,-6.6077880859375,0.7151031494140625
1715093377877754400,1.64975439453125,16.2149658203125,-4.2662506103515625,-6.393280029296875
1715093377887733500,1.6597333984375,14.09130859375,1.6617889404296875,-6.6302947998046875
1715093377897713000,1.669712890625,12.42254638671875,2.9785919189453125,-2.27764892578125
1715093377907661600,1.67966162109375,15.499099731445312,5.7822113037109375,1.4405517578125
1715093377917640700,1.689640625,16.540573120117188,6.043182373046875,2.503570556640625
1715093377927620000,1.6996201171875,12.975601196289062,2.4015960693359375,0.7151031494140625
1715093377937568800,1.70956884765625,12.669143676757812,2.770294189453125,0.7462310791015625
1715093377947548000,1.7195478515625,12.664352416992188,3.708831787109375,2.175567626953125
1715093377957496800,1.729496826171875,11.972442626953125,3.6944580078125,3.8993988037109375
1715093377967476000,1.73947607421875,11.82159423828125,3.6513671875,4.4859771728515625
1715093377977455400,1.749455322265625,11.548660278320312,3.3592681884765625,3.0997314453125
1715093377987404000,1.759404052734375,10.990814208984375,3.0767669677734375,1.9026336669921875
1715093377997383200,1.769383056640625,9.108963012695312,2.906768798828125,1.826019287109375
1715093378007362600,1.779362548828125,6.12579345703125,2.3130035400390625,1.5865936279296875
1715093378017311200,1.789311279296875,4.80419921875,1.8317718505859375,0.99761962890625
1715093378027290400,1.799290283203125,4.2152252197265625,0.63946533203125,1.3232421875
1715093378037269800,1.809269775390625,4.5288543701171875,-1.120269775390625,2.5059661865234375
1715093378047218400,1.819218505859375,5.93426513671875,-2.4370880126953125,3.3511199951171875
1715093378057197600,1.829197509765625,6.2335357666015625,-3.62939453125,4.45245361328125
1715093378067177000,1.839177001953125,5.5056915283203125,-4.5272216796875,6.1212158203125
1715093378077125600,1.849125732421875,3.231201171875,-5.9972686767578125,7.540985107421875
1715093378087104800,1.859104736328125,3.140228271484375,-7.871917724609375,6.6886444091796875
1715093378097084200,1.869084228515625,3.4035797119140625,-9.538284301757812,5.8913726806640625
1715093378107032800,1.87903271484375,4.006927490234375,-11.772079467773438,4.5769500732421875
1715093378117012200,1.88901220703125,4.0260772705078125,-12.054595947265625,4.15557861328125
1715093378126991400,1.898991455078125,4.0787506103515625,-12.23895263671875,3.717437744140625
1715093378136970500,1.908970458984375,4.7706756591796875,-12.138397216796875,3.4923858642578125
1715093378146919400,1.91891943359375,5.58709716796875,-12.574142456054688,3.1188812255859375
1715093378156898600,1.928898681640625,1.334991455078125,-12.531036376953125,2.4317474365234375
1715093378166878000,1.9388779296875,-4.4733428955078125,-13.366622924804688,1.41900634765625
1715093378176857000,1.948857177734375,-3.905914306640625,-13.309158325195312,1.4788665771484375
1715093378186805800,1.9588056640625,-1.54522705078125,-14.266845703125,2.65679931640625
1715093378196785200,1.96878515625,-0.7623291015625,-17.422393798828125,1.17718505859375
1715093378206764300,1.978764404296875,-0.091949462890625,-19.062423706054688,0.7031402587890625
1715093378216713000,1.988712890625,-3.2882080078125,-19.177352905273438,2.5801849365234375
1715093378226692400,1.9986923828125,-3.6545257568359375,-17.803070068359375,4.593719482421875
1715093378236671500,2.00867138671875,-6.041534423828125,-18.08319091796875,5.8386993408203125
1715093378246620200,2.0186201171875,-5.735076904296875,-16.2109375,3.4612579345703125
1715093378256602600,2.0286025390625,-4.4805145263671875,-14.039382934570312,-0.7333831787109375
1715093378266582000,2.03858203125,-5.3448333740234375,-14.324295043945312,-0.5226898193359375
1715093378276530700,2.04853076171875,0.552093505859375,-17.02496337890625,-1.18109130859375
1715093378286509800,2.058509765625,4.3828125,-16.938766479492188,2.5921630859375
1715093378296489200,2.0684892578125,3.1019134521484375,-15.538162231445312,3.279296875
1715093378306438000,2.07843798828125,0.6191253662109375,-13.68743896484375,2.16839599609375
1715093378316417300,2.088417236328125,-1.8804168701171875,-11.877426147460938,1.5171661376953125
1715093378326396400,2.098396484375,-0.2547607421875,-10.512725830078125,1.646453857421875
1715093378336345000,2.108344970703125,0.5592803955078125,-8.808059692382812,1.1005706787109375
1715093378346309600,2.1183095703125,0.097198486328125,-7.48406982421875,-1.5833282470703125
1715093378356289000,2.1282890625,-1.5643768310546875,-7.4026641845703125,-5.4068603515625
1715093378366237700,2.13823779296875,-2.416717529296875,-6.1145782470703125,-7.01336669921875
1715093378376217000,2.148217041015625,-2.8524627685546875,-6.40667724609375,-6.0748443603515625
1715093378386196200,2.1581962890625,-2.2227935791015625,-7.0219879150390625,-3.2544708251953125
1715093378396145000,2.168144775390625,-1.3441162109375,-4.7977752685546875,-2.4763641357421875
1715093378406124300,2.178124267578125,-0.1805267333984375,-2.4466705322265625,-0.6974639892578125
1715093378416103400,2.188103515625,0.4874420166015625,-2.4538421630859375,-1.2026519775390625
1715093378426082800,2.198082763671875,0.80108642578125,-4.268646240234375,-2.24652099609375
1715093378436031500,2.208031494140625,1.1051483154296875,-5.8871307373046875,-1.4875640869140625
1715093378446010600,2.2180107421875,1.270355224609375,-6.7490386962890625,-0.0151214599609375
1715093378455990000,2.227989990234375,1.3733062744140625,-7.912628173828125,0.3918914794921875
1715093378465969200,2.23796923828125,1.064453125,-9.667572021484375,-0.963226318359375
1715093378475917800,2.247917724609375,1.5408935546875,-11.072967529296875,-0.745361328125
1715093378485897200,2.257897216796875,1.8066558837890625,-12.116851806640625,-0.592132568359375
1715093378495876400,2.26787646484375,2.7787017822265625,-13.151138305664062,1.3040771484375
1715093378505825000,2.277824951171875,1.4475250244140625,-13.10565185546875,-2.2752532958984375
1715093378515804400,2.287804443359375,-0.398406982421875,-12.988327026367188,-16.113739013671875
1715093378525798100,2.297798095703125,-0.197296142578125,-15.33465576171875,-10.585525512695312
1715093378535747000,2.3077470703125,3.14739990234375,-10.721023559570312,-0.910552978515625
1715093378545726200,2.317726318359375,1.1051483154296875,-8.513565063476562,4.5817413330078125
1715093378555705600,2.32770556640625,0.9471282958984375,-7.57025146484375,11.163406372070312
1715093378565654300,2.337654296875,1.1099395751953125,-7.3451995849609375,13.296646118164062
1715093378575633400,2.34763330078125,0.2863311767578125,-11.9324951171875,3.61688232421875
1715093378585612800,2.35761279296875,1.4331512451171875,-13.706588745117188,-0.6855010986328125
1715093378595561500,2.3675615234375,2.5249176025390625,-12.605255126953125,0.3535919189453125
1715093378605540600,2.37754052734375,2.4578704833984375,-11.168746948242188,1.708709716796875
1715093378615520000,2.38752001953125,1.2583770751953125,-9.710678100585938,2.5778045654296875
1715093378625468700,2.39746875,-1.0089263916015625,-6.8687591552734375,4.4548492431640625
1715093378635447800,2.40744775390625,-2.7207794189453125,-4.129791259765625,7.3398590087890625
1715093378645427200,2.41742724609375,-1.5380401611328125,-1.436309814453125,11.292694091796875
1715093378655376000,2.4273759765625,-2.840484619140625,-1.510528564453125,11.69012451171875
1715093378665355300,2.437355224609375,-4.1046295166015625,-1.8983917236328125,9.995040893554688
1715093378675334400,2.44733447265625,-3.3935546875,-3.928680419921875,6.2074127197265625
1715093378685283000,2.457282958984375,-2.82373046875,-5.9134674072265625,2.766937255859375
1715093378695262500,2.467262451171875,-0.429534912109375,-7.9198150634765625,3.056640625
1715093378705241600,2.47724169921875,1.524139404296875,-11.83673095703125,-1.6886749267578125
1715093378715220700,2.487220703125,0.477874755859375,-16.081649780273438,-10.262313842773438
1715093378725200100,2.4972001953125,7.334869384765625,-17.48944091796875,-18.151199340820312
1715093378735148800,2.507148681640625,9.075454711914062,-24.281784057617188,-20.564559936523438
1715093378745128200,2.517128173828125,7.6030120849609375,-26.38629150390625,-10.228790283203125
1715093378755107300,2.527107421875,6.00848388671875,-23.254669189453125,-1.9472503662109375
1715093378765056000,2.537055908203125,0.4706878662109375,-19.965042114257812,0.284149169921875
1715093378775035400,2.547035400390625,-3.1014556884765625,-15.928421020507812,1.335205078125
1715093378785014500,2.5570146484375,-2.478973388671875,-11.8582763671875,1.1532440185546875
1715093378794963200,2.566963134765625,-3.4965057373046875,-8.942138671875,-0.106109619140625
1715093378804942600,2.576942626953125,-3.326507568359375,-6.624542236328125,-2.907318115234375
1715093378814921700,2.586921630859375,-4.2147674560546875,-7.1776123046875,0.3224639892578125
1715093378824870400,2.596870361328125,1.7707366943359375,-6.4521636962890625,-0.2736968994140625
1715093378834849800,2.606849853515625,-0.5540313720703125,-7.203948974609375,1.3591461181640625
1715093378844829000,2.616828857421875,-0.0440673828125,-8.101776123046875,1.095794677734375
1715093378854777900,2.62677783203125,1.3373870849609375,-9.1025390625,1.7924957275390625
1715093378864757000,2.636757080078125,0.2599945068359375,-9.380279541015625,1.9026336669921875
1715093378874736000,2.646736083984375,0.6239166259765625,-9.969253540039062,1.636871337890625
1715093378884685000,2.65668505859375,0.11395263671875,-9.928543090820312,1.0742340087890625
1715093378894664200,2.666664306640625,-0.8868255615234375,-9.423370361328125,0.3751373291015625
1715093378904643600,2.6766435546875,-1.720001220703125,-9.08099365234375,-0.149200439453125
1715093378914592300,2.68659228515625,-1.9450531005859375,-9.052261352539062,-0.340728759765625
1715093378924571400,2.6965712890625,-1.5691680908203125,-9.40899658203125,-0.6974639892578125
1715093378934550800,2.70655078125,-1.4997406005859375,-9.959671020507812,-1.1140594482421875
1715093378944499500,2.71649951171875,-0.3002471923828125,-8.899032592773438,-0.752532958984375
1715093378954478600,2.726478515625,0.3701324462890625,-7.99163818359375,-0.086944580078125
1715093378964458000,2.7364580078125,-0.1206817626953125,-8.808059692382812,-0.2066650390625
1715093378974406700,2.74640673828125,-0.56121826171875,-6.5742645263671875,-0.3311614990234375
1715093378984385800,2.7563857421875,1.607940673828125,-3.5791168212890625,0.320068359375
1715093378994365200,2.766365234375,1.1721954345703125,-4.055572509765625,0.0543060302734375
1715093379004344300,2.77634423828125,-0.8916168212890625,-7.141693115234375,-1.152374267578125
1715093379014293200,2.786293212890625,0.7244720458984375,-9.878265380859375,-1.585723876953125
1715093379024272400,2.7962724609375,-1.1884918212890625,-9.341964721679688,-1.0230865478515625
1715093379034253300,2.80625341796875,-4.2411041259765625,-8.36273193359375,-0.80999755859375
1715093379044232700,2.816232666015625,-3.479736328125,-5.927825927734375,-0.340728759765625
1715093379054181400,2.826181396484375,-3.2594757080078125,-6.950164794921875,-0.7956390380859375
1715093379064160500,2.836160400390625,-1.1884918212890625,-8.609344482421875,-1.987945556640625
1715093379074140000,2.846139892578125,3.891998291015625,-16.77117919921875,-7.346160888671875
1715093379084088600,2.856088623046875,4.8712310791015625,-16.493438720703125,4.4213409423828125
1715093379094067700,2.866067626953125,-1.4781951904296875,-14.053756713867188,7.9982757568359375
1715093379104047000,2.876047119140625,-1.9330902099609375,-21.207626342773438,-6.173004150390625
1715093379113995800,2.885995849609375,-0.376861572265625,-12.751312255859375,2.06304931640625
1715093379123975200,2.89597509765625,0.6191253662109375,-10.280487060546875,0.5403289794921875
1715093379133954300,2.905954345703125,0.29351806640625,-9.399429321289062,-0.0941314697265625
1715093379143903000,2.915903076171875,0.2216949462890625,-9.286895751953125,-0.1372222900390625
1715093379153882400,2.92588232421875,0.0421295166015625,-9.267745971679688,-0.5011444091796875
1715093379163861500,2.935861572265625,-0.3409423828125,-9.17437744140625,-0.1204681396484375
1715093379173810200,2.94581005859375,-0.3265838623046875,-9.631668090820312,0.4182281494140625
1715093379183789600,2.95578955078125,-0.3122100830078125,-10.208663940429688,1.13409423828125
1715093379193768700,2.965768798828125,-0.5396575927734375,-10.361892700195312,1.7254638671875
1715093379203717400,2.97571728515625,-0.9969635009765625,-9.983612060546875,1.330413818359375
1715093379213696800,2.98569677734375,-3.6904296875,-8.338790893554688,0.38470458984375
1715093379223676000,2.995676025390625,-4.6002349853515625,-5.8823394775390625,-2.0478057861328125
1715093379233624800,3.005624755859375,-2.775848388671875,-5.08746337890625,-2.854644775390625
1715093379243604000,3.01560400390625,-2.1126556396484375,-5.350830078125,-1.786834716796875
1715093379253583000,3.0255830078125,-2.0599822998046875,-5.386749267578125,-1.8107757568359375
1715093379263532000,3.035531982421875,-6.2666015625,-2.767486572265625,-0.953643798828125
1715093379273511200,3.04551123046875,-1.86126708984375,-1.9510650634765625,1.4070281982421875
1715093379283490600,3.055490478515625,-2.0001220703125,-1.6134796142578125,1.0694580078125
1715093379293469700,3.0654697265625,6.1353759765625,-7.364349365234375,-2.885772705078125
1715093379303418400,3.07541845703125,5.8528594970703125,-11.271697998046875,-0.8291473388671875
1715093379313397800,3.085397705078125,5.6469573974609375,-13.213394165039062,1.5004119873046875
1715093379323377000,3.095376953125,3.7411651611328125,-16.026580810546875,2.50836181640625
1715093379333356300,3.105356201171875,0.8346099853515625,-16.500625610351562,4.0214996337890625
1715093379343305000,3.115304931640625,-1.68170166015625,-17.494216918945312,5.778839111328125
1715093379353284000,3.1252841796875,-2.7375335693359375,-18.212478637695312,5.80279541015625
1715093379363263500,3.135263427734375,-2.701629638671875,-14.736099243164062,4.878631591796875
1715093379373212200,3.145212158203125,-1.9857635498046875,-13.953201293945312,2.3934478759765625
1715093379383191300,3.15519140625,-2.29461669921875,-12.815948486328125,4.5171051025390625
1715093379393170700,3.165170654296875,-1.0711822509765625,-11.578155517578125,3.897003173828125
1715093379403119400,3.175119384765625,-0.6330413818359375,-11.451263427734375,2.8650970458984375
1715093379413098500,3.185098388671875,0.2743682861328125,-11.096908569335938,2.5778045654296875
1715093379423078000,3.195077880859375,1.229644775390625,-10.541458129882812,2.5418853759765625
1715093379433026600,3.205026611328125,1.5001983642578125,-10.08416748046875,2.321624755859375
1715093379443005700,3.215005615234375,1.586395263671875,-9.54547119140625,2.194732666015625
1715093379452985000,3.224985107421875,1.4690704345703125,-9.341964721679688,1.909820556640625
1715093379462933800,3.234933837890625,1.5528717041015625,-9.167190551757812,1.756591796875
1715093379472913200,3.2449130859375,1.5121612548828125,-9.1025390625,1.5889892578125
1715093379482892300,3.254892333984375,1.6438446044921875,-8.918197631835938,1.6201171875
1715093379492841000,3.264841064453125,1.6031494140625,-8.867919921875,1.7972869873046875
1715093379502820400,3.2748203125,1.19134521484375,-8.9852294921875,1.7757415771484375
1715093379512799500,3.284799560546875,1.064453125,-8.769744873046875,2.0774078369140625
1715093379522748200,3.294748046875,0.7077178955078125,-8.697921752929688,1.974456787109375
1715093379532727600,3.3047275390625,0.710113525390625,-8.429779052734375,2.0917816162109375
1715093379542706700,3.314706787109375,0.841796875,-8.271759033203125,2.0031890869140625
1715093379552655400,3.3246552734375,1.0213623046875,-8.089797973632812,1.9409332275390625
1715093379562634800,3.334634765625,1.121917724609375,-8.010787963867188,1.77813720703125
1715093379572614000,3.34461376953125,1.588775634765625,-7.742645263671875,1.8116607666015625
1715093379582593300,3.35459326171875,1.9239654541015625,-7.723480224609375,1.581817626953125
1715093379592542000,3.3645419921875,1.868896484375,-7.6612396240234375,1.5075836181640625
1715093379602521000,3.37452099609375,1.92156982421875,-7.531951904296875,1.550689697265625
1715093379612500500,3.38450048828125,1.98382568359375,-7.448150634765625,1.6392669677734375
1715093379622479600,3.394479736328125,2.062835693359375,-7.4002685546875,1.73504638671875
1715093379632428500,3.404428466796875,2.1250762939453125,-7.405059814453125,1.8188323974609375
1715093379642407700,3.41440771484375,2.1921234130859375,-7.4074554443359375,1.909820556640625
1715093379652386800,3.42438671875,2.2088775634765625,-7.4505462646484375,2.04388427734375
1715093379662335700,3.434335693359375,2.2184600830078125,-7.4457550048828125,2.1827545166015625
1715093379672315000,3.44431494140625,2.22564697265625,-7.3811187744140625,2.3144378662109375
1715093379682294300,3.454294189453125,2.22802734375,-7.448150634765625,2.4724578857421875
1715093379692243000,3.464242919921875,2.1657867431640625,-7.5989837646484375,2.7573699951171875
1715093379702222000,3.47422216796875,1.9622802734375,-7.9485321044921875,3.19549560546875
1715093379712201500,3.484201416015625,1.7013092041015625,-8.38189697265625,3.7198333740234375
1715093379722150100,3.494150146484375,1.418792724609375,-9.03790283203125,4.0789642333984375
1715093379732129300,3.50412939453125,1.1195220947265625,-9.792068481445312,4.318389892578125
1715093379742108700,3.514108642578125,0.8298187255859375,-10.498367309570312,4.435699462890625
1715093379752057300,3.524057373046875,0.6334991455078125,-10.857498168945312,4.3758392333984375
1715093379762036500,3.534036376953125,0.7771453857421875,-11.283660888671875,3.8299713134765625
1715093379772015900,3.544015869140625,1.3780975341796875,-11.661941528320312,2.9393157958984375
1715093379781964500,3.553964599609375,2.211273193359375,-11.913345336914062,2.017547607421875
1715093379791944000,3.56394384765625,3.331756591796875,-11.803207397460938,1.8619384765625
1715093379801892600,3.573892578125,3.7698974609375,-11.482376098632812,2.8148193359375
1715093379811871700,3.583871826171875,3.858489990234375,-10.797637939453125,4.414154052734375
1715093379821851100,3.59385107421875,2.7164459228515625,-11.47760009765625,6.0757293701171875
1715093379831799800,3.6037998046875,1.7013092041015625,-13.287612915039062,7.2129669189453125
1715093379841779000,3.613779052734375,1.94073486328125,-15.298736572265625,7.6918182373046875
1715093379851758300,3.62375830078125,1.9981842041015625,-16.641891479492188,6.264862060546875
1715093379861737500,3.633737548828125,3.231201171875,-15.507034301757812,4.002349853515625
1715093379871716900,3.643716796875,2.4770355224609375,-14.290786743164062,3.030303955078125
1715093379881665500,3.65366552734375,2.13226318359375,-12.437667846679688,1.9936065673828125
1715093379891644700,3.663644775390625,1.0453033447265625,-12.4520263671875,2.3790740966796875
1715093379901624000,3.6736240234375,2.05804443359375,-10.11529541015625,1.335205078125
1715093379911603200,3.683603271484375,-1.7008514404296875,-10.203872680664062,-1.0829315185546875
1715093379921552000,3.6935517578125,-1.073577880859375,-11.075363159179688,-0.635223388671875
1715093379931531300,3.70353125,-2.69683837890625,-11.688278198242188,0.485260009765625
1715093379941510400,3.713510498046875,-2.648956298828125,-10.397811889648438,0.705535888671875
1715093379951459000,3.723458984375,-1.5667724609375,-8.75299072265625,0.2075347900390625
1715093379961438500,3.7334384765625,-1.2315826416015625,-7.8144683837890625,0.34161376953125
1715093379971417600,3.74341748046875,-1.76788330078125,-7.6923675537109375,-0.0151214599609375
1715093379981366500,3.753366455078125,-2.1796875,-7.869537353515625,-1.111663818359375
1715093379991345700,3.763345703125,-1.78704833984375,-8.63568115234375,-2.5769195556640625
1715093380001324800,3.77332470703125,-0.9347076416015625,-9.107330322265625,-3.5872650146484375
1715093380011273700,3.783273681640625,0.0924072265625,-9.045089721679688,-4.2744140625
1715093380021252900,3.7932529296875,0.310272216796875,-8.887069702148438,-4.5952301025390625
1715093380031232300,3.803232177734375,0.616729736328125,-8.4154052734375,-3.9990692138671875
1715093380041181000,3.813180908203125,0.5377197265625,-7.627716064453125,-2.90252685546875
1715093380051160000,3.82316015625,0.087615966796875,-7.5678558349609375,-1.6695098876953125
1715093380061139500,3.833139404296875,-0.1949005126953125,-7.797698974609375,-0.74774169921875
1715093380071088000,3.843088134765625,-0.4008026123046875,-7.9006500244140625,-0.687896728515625
1715093380081067300,3.8530673828125,-0.3792572021484375,-8.494415283203125,-0.740570068359375
1715093380091046700,3.863046630859375,0.21929931640625,-8.769744873046875,-0.486785888671875
1715093380100995300,3.872995361328125,0.372528076171875,-9.22705078125,-0.70465087890625
1715093380110974500,3.882974365234375,0.767578125,-9.39703369140625,-0.446075439453125
1715093380120923400,3.89292333984375,0.5449066162109375,-9.191131591796875,-0.276092529296875
1715093380130902500,3.902902587890625,-0.2379913330078125,-8.695526123046875,-0.065399169921875
1715093380140882000,3.9128818359375,-0.6713409423828125,-8.226272583007812,0.1907806396484375
1715093380150861000,3.922861083984375,-0.9131622314453125,-7.9533233642578125,0.4134368896484375
1715093380160840200,3.932840087890625,-0.747955322265625,-8.073043823242188,0.2003631591796875
1715093380170789000,3.9427890625,-0.6450042724609375,-8.1927490234375,0.245849609375
1715093380180768300,3.952768310546875,-0.3648834228515625,-8.396255493164062,0.430206298828125
1715093380190747600,3.96274755859375,-0.1278533935546875,-8.733840942382812,0.7869415283203125
1715093380200726800,3.972726806640625,-0.0416717529296875,-9.073822021484375,1.0574798583984375
1715093380210675500,3.982675537109375,-0.0847625732421875,-8.887069702148438,1.5746307373046875
1715093380220654800,3.99265478515625,-0.3744659423828125,-9.447311401367188,2.053466796875
1715093380230634000,4.002634033203125,-0.4750213623046875,-9.476043701171875,2.0199432373046875
1715093380240582700,4.012582763671875,-0.5276947021484375,-9.425765991210938,2.60174560546875
1715093380250562000,4.02256201171875,-0.8030242919921875,-9.243804931640625,3.1619873046875
1715093380260541200,4.032541259765625,-1.633819580078125,-9.318023681640625,3.6815185546875
1715093380270489900,4.04248974609375,-2.385589599609375,-8.851150512695312,3.897003173828125
1715093380280469200,4.05246923828125,-3.0799102783203125,-8.748199462890625,4.1651611328125
1715093380290448400,4.062448486328125,-3.292999267578125,-8.903823852539062,3.9305267333984375
1715093380300397000,4.07239697265625,-3.419891357421875,-9.162399291992188,3.83953857421875
1715093380310376400,4.08237646484375,-2.3879852294921875,-9.495193481445312,3.1811370849609375
1715093380320355600,4.09235546875,-1.1573638916015625,-9.734619140625,2.33837890625
1715093380330304500,4.102304443359375,0.477874755859375,-9.478439331054688,1.277740478515625
1715093380340283600,4.11228369140625,2.7212371826171875,-8.673980712890625,0.631317138671875
1715093380350262800,4.1222626953125,4.0739593505859375,-8.132888793945312,0.8419952392578125
1715093380360211700,4.132211669921875,4.8018035888671875,-7.7570037841796875,0.33203125
1715093380370190800,4.14219091796875,4.028472900390625,-7.565460205078125,0.0207977294921875
1715093380380139500,4.152139404296875,1.406829833984375,-7.8623504638671875,0.5618743896484375
1715093380390119000,4.162118896484375,-0.345733642578125,-9.361114501953125,1.498016357421875
1715093380400098000,4.17209814453125,-0.8126068115234375,-11.40576171875,1.308868408203125
1715093380410046700,4.182046630859375,-0.621063232421875,-12.854263305664062,1.011993408203125
1715093380420026000,4.192026123046875,0.4012603759765625,-13.6036376953125,1.0694580078125
1715093380430005200,4.202005126953125,2.285491943359375,-13.428863525390625,1.9026336669921875
1715093380439984600,4.211984619140625,1.58160400390625,-12.815948486328125,3.348724365234375
1715093380449963800,4.2219638671875,-0.2236328125,-11.999526977539062,3.6767425537109375
1715093380459912400,4.231912353515625,-1.3034210205078125,-10.871856689453125,3.1500091552734375
1715093380469891800,4.241891845703125,-2.1796875,-9.531112670898438,2.3790740966796875
1715093380479871000,4.25187109375,-2.69683837890625,-8.87030029296875,0.739044189453125
1715093380489820000,4.26181982421875,-2.818939208984375,-8.860733032226562,-1.0733642578125
1715093380499799000,4.271799072265625,-2.86444091796875,-9.294082641601562,-2.631988525390625
1715093380509778200,4.281778076171875,-2.7471160888671875,-10.170364379882812,-4.5904388427734375
1715093380519757600,4.291757568359375,-3.462982177734375,-10.87664794921875,-7.159423828125
1715093380529706200,4.301706298828125,-3.9992828369140625,-11.096908569335938,-9.115478515625
1715093380539685600,4.311685546875,-3.98492431640625,-11.640396118164062,-10.027679443359375
1715093380549664800,4.321664794921875,-3.2379302978515625,-13.457595825195312,-9.290267944335938
1715093380559613400,4.331613525390625,-2.6633148193359375,-15.717727661132812,-7.09716796875
1715093380569592800,4.3415927734375,-2.2706756591796875,-17.187759399414062,-2.854644775390625
1715093380579572000,4.351572021484375,-2.553192138671875,-16.82623291015625,1.56744384765625
1715093380589520600,4.361520751953125,-4.8540191650390625,-15.382537841796875,4.6607513427734375
1715093380599500000,4.3715,-6.6233367919921875,-14.343460083007812,6.13079833984375
1715093380609479200,4.381479248046875,-7.3894805908203125,-14.27880859375,7.4907073974609375
1715093380619427800,4.391427734375,-6.2450408935546875,-12.112060546875,9.202560424804688
1715093380629407200,4.4014072265625,-4.317718505859375,-9.0283203125,8.8458251953125
1715093380639356000,4.41135595703125,-2.660919189453125,-7.728271484375,7.2608642578125
1715093380649335300,4.421335205078125,-1.5907135009765625,-7.7665863037109375,4.4213409423828125
1715093380659314400,4.431314453125,-0.0727996826171875,-8.211898803710938,2.5155487060546875
1715093380669263000,4.44126318359375,1.7755279541015625,-8.642852783203125,1.043121337890625
1715093380679242500,4.451242431640625,2.8912200927734375,-8.930160522460938,-0.328765869140625
1715093380689221600,4.4612216796875,3.6094818115234375,-8.894256591796875,-0.9297027587890625
1715093380699200800,4.47120068359375,3.573577880859375,-8.451324462890625,-1.0015411376953125
1715093380709149700,4.481149658203125,2.9774169921875,-7.6301116943359375,-1.37982177734375
1715093380719128800,4.49112890625,2.220855712890625,-6.8280487060546875,-1.861053466796875
1715093380729108200,4.501108154296875,1.5121612548828125,-6.107391357421875,-1.765289306640625
1715093380739087400,4.51108740234375,0.86334228515625,-5.7027740478515625,-1.4636077880859375
1715093380749066500,4.52106640625,0.276763916015625,-5.6764373779296875,-1.1403961181640625
1715093380759015400,4.531015380859375,-0.156585693359375,-5.8607940673828125,-0.9033660888671875
1715093380768994600,4.54099462890625,-0.197296142578125,-6.13372802734375,-0.8123931884765625
1715093380778974000,4.550973876953125,0.2073211669921875,-6.2773895263671875,-0.70465087890625
1715093380788922600,4.560922607421875,0.7460174560546875,-6.3516082763671875,-0.76690673828125
1715093380798901800,4.57090185546875,1.694122314453125,-6.3037261962890625,-0.7860565185546875
1715093380808881200,4.580881103515625,2.3980255126953125,-6.0666961669921875,-0.56817626953125
1715093380818829800,4.590829833984375,2.91278076171875,-5.8153076171875,-0.233001708984375
1715093380828809000,4.60080908203125,2.99896240234375,-6.0092315673828125,0.3080902099609375
1715093380838788400,4.610788330078125,2.70208740234375,-6.5623016357421875,1.28253173828125
1715093380848737000,4.620737060546875,2.558441162109375,-6.835235595703125,3.1643829345703125
1715093380858716200,4.630716064453125,2.390838623046875,-6.602996826171875,5.651947021484375
1715093380868665000,4.6406650390625,1.646240234375,-7.23028564453125,7.627166748046875
1715093380878644200,4.650644287109375,1.0955810546875,-8.712295532226562,9.161849975585938
1715093380888623600,4.66062353515625,0.8202362060546875,-10.6875,10.703720092773438
1715093380898572300,4.670572265625,1.174591064453125,-12.61962890625,10.255996704101562
1715093380908551400,4.680551513671875,2.295074462890625,-13.663497924804688,8.304733276367188
1715093380918530800,4.69053076171875,1.418792724609375,-15.157485961914062,5.280853271484375
1715093380928479500,4.7004794921875,0.700531005859375,-16.242050170898438,1.952911376953125
1715093380938458600,4.710458740234375,1.509765625,-17.6163330078125,-0.762115478515625
1715093380948438000,4.72043798828125,5.2686767578125,-17.8509521484375,-1.5474090576171875
1715093380958386700,4.73038671875,6.08270263671875,-14.927642822265625,-0.2258148193359375
1715093380968365800,4.74036572265625,2.2830963134765625,-10.63482666015625,2.52752685546875
1715093380978345200,4.75034521484375,1.409210205078125,-11.697860717773438,5.2521209716796875
1715093380988324400,4.760324462890625,2.1514129638671875,-14.367401123046875,6.3319091796875
1715093380998273300,4.770273193359375,0.1546478271484375,-15.150299072265625,5.831512451171875
1715093381008252400,4.78025244140625,-5.56988525390625,-15.8206787109375,2.503570556640625
1715093381018231600,4.7902314453125,-6.2857513427734375,-18.46148681640625,-0.1946868896484375
1715093381028211000,4.8002109375,-6.199554443359375,-19.986587524414062,-2.3614349365234375
1715093381038190000,4.810190185546875,-2.881195068359375,-15.61956787109375,-3.9080963134765625
1715093381048138800,4.820138671875,-0.5444488525390625,-10.546249389648438,-1.6479644775390625
1715093381058118100,4.8301181640625,1.5265350341796875,-7.876708984375,1.6584320068359375
1715093381068066800,4.84006689453125,2.0819854736328125,-5.6860198974609375,3.717437744140625
1715093381078046200,4.850046142578125,1.74200439453125,-3.7251739501953125,2.8220062255859375
1715093381088025300,4.860025390625,1.1458587646484375,-2.92071533203125,0.16204833984375
1715093381098004500,4.87000439453125,0.415618896484375,-3.0140838623046875,-1.2960205078125
1715093381107953400,4.879953369140625,-0.161376953125,-4.5439910888671875,-2.1076507568359375
1715093381117932500,4.8899326171875,-0.161376953125,-6.713134765625,-2.4500274658203125
1715093381127912000,4.899911865234375,0.214508056640625,-9.1025390625,-2.2824249267578125
1715093381137860600,4.909860595703125,0.4658966064453125,-11.602096557617188,-2.3494720458984375
1715093381147839700,4.91983984375,-0.144622802734375,-14.020233154296875,-3.2017974853515625
1715093381157819100,4.929819091796875,-1.506927490234375,-14.918060302734375,-3.4867095947265625
1715093381167767800,4.939767822265625,-1.8540802001953125,-13.471969604492188,-3.941619873046875
1715093381177747000,4.949746826171875,-0.6881103515625,-9.959671020507812,-2.737335205078125
1715093381187695900,4.95969580078125,0.520965576171875,-6.7418670654296875,-1.686279296875
1715093381197675000,4.969675048828125,1.6366729736328125,-5.132965087890625,-1.5737457275390625
1715093381207654100,4.979654052734375,2.47943115234375,-4.2111968994140625,-1.5162811279296875
1715093381217603000,4.98960302734375,2.23760986328125,-4.2399139404296875,-1.353485107421875
1715093381227582200,4.999582275390625,1.196136474609375,-4.6134185791015625,-0.7238006591796875
1715093381237561600,5.0095615234375,0.4275970458984375,-4.99169921875,0.5403289794921875
1715093381247510300,5.01951025390625,-0.175750732421875,-5.8488311767578125,1.6656036376953125
1715093381257489400,5.029489501953125,-0.6234588623046875,-7.1752166748046875,2.6735687255859375
1715093381267468800,5.03946875,-0.6282501220703125,-8.659622192382812,3.8060302734375
1715093381277417500,5.04941748046875,-0.537261962890625,-9.68194580078125,4.8139801025390625
1715093381287396600,5.059396728515625,-0.6809234619140625,-9.813629150390625,4.9935455322265625
1715093381297376000,5.0693759765625,-0.9107666015625,-9.212677001953125,4.804412841796875
1715093381307355100,5.079355224609375,-1.33453369140625,-8.554275512695312,4.6344146728515625
1715093381317334500,5.08933447265625,-1.9690093994140625,-8.417800903320312,4.318389892578125
1715093381327283200,5.099283203125,-2.416717529296875,-8.798477172851562,4.011932373046875
1715093381337262300,5.109262451171875,-2.838104248046875,-9.193527221679688,3.801239013671875
1715093381347241700,5.11924169921875,-2.8692169189453125,-9.250991821289062,3.4229583740234375
1715093381357220900,5.129220947265625,-3.0224456787109375,-9.262954711914062,3.1380462646484375
1715093381367169500,5.13916943359375,-3.197235107421875,-9.200714111328125,3.1619873046875
1715093381377149000,5.14914892578125,-2.57952880859375,-9.11212158203125,3.1332550048828125
1715093381387128000,5.159128173828125,-0.704864501953125,-9.045089721679688,2.522735595703125
1715093381397077000,5.169076904296875,1.777923583984375,-8.834396362304688,2.185150146484375
1715093381407056100,5.17905615234375,3.836944580078125,-8.501602172851562,0.8515777587890625
1715093381417035300,5.18903515625,4.852081298828125,-7.99163818359375,0.0327606201171875
1715093381426984200,5.198984130859375,4.4953460693359375,-7.91741943359375,-0.1635589599609375
1715093381436963300,5.20896337890625,3.24078369140625,-8.8367919921875,-0.233001708984375
1715093381446942500,5.2189423828125,1.9503021240234375,-10.594131469726562,0.171630859375
1715093381456891400,5.228891357421875,0.2911224365234375,-12.023468017578125,1.27056884765625
1715093381466870500,5.23887060546875,-0.27630615234375,-12.710601806640625,1.5746307373046875
1715093381476819200,5.248819091796875,-1.073577880859375,-12.950027465820312,1.7326507568359375
1715093381486798600,5.258798583984375,-0.1589813232421875,-12.729766845703125,2.58258056640625
1715093381496777700,5.26877783203125,0.298309326171875,-12.016281127929688,3.9376983642578125
1715093381506726400,5.278726318359375,-0.1901092529296875,-11.307601928710938,4.7277984619140625
1715093381516705800,5.288705810546875,0.0301513671875,-10.603713989257812,4.852294921875
1715093381526685000,5.298684814453125,-0.25714111328125,-10.203872680664062,3.727020263671875
1715093381536633900,5.3086337890625,-0.6976776123046875,-10.637222290039062,1.8188323974609375
1715093381546613000,5.318613037109375,-0.853302001953125,-11.798416137695312,0.2171173095703125
1715093381556592000,5.328592041015625,-1.176513671875,-13.017059326171875,-1.7700653076171875
1715093381566571500,5.338571533203125,-1.528472900390625,-13.61322021484375,-3.57769775390625
1715093381576550700,5.348550537109375,-3.37200927734375,-12.370635986328125,-7.14984130859375
1715093381586499600,5.35849951171875,-5.5148162841796875,-11.5733642578125,-9.591934204101562
1715093381596478700,5.368478759765625,-6.9561309814453125,-12.109664916992188,-11.670089721679688
1715093381606457900,5.378457763671875,-6.8771209716796875,-12.392181396484375,-11.181686401367188
1715093381616437200,5.388437255859375,-5.7638092041015625,-12.210220336914062,-7.729248046875
1715093381626386000,5.398385986328125,-5.03118896484375,-12.698638916015625,-2.2249755859375
1715093381636365300,5.408365234375,-5.10540771484375,-13.072128295898438,2.5323028564453125
1715093381646344400,5.418344482421875,-4.983306884765625,-11.65716552734375,5.5489959716796875
1715093381656293000,5.428293212890625,-4.52362060546875,-9.404220581054688,7.057342529296875
1715093381666272500,5.4382724609375,-4.2794036865234375,-9.430557250976562,7.8977203369140625
1715093381676251600,5.448251708984375,-3.336090087890625,-11.695465087890625,11.15142822265625
1715093381686200300,5.458200439453125,-3.7071990966796875,-12.10247802734375,12.140243530273438
1715093381696179700,5.4681796875,-4.25067138671875,-11.5853271484375,9.303115844726562
1715093381706158800,5.478158935546875,-3.01287841796875,-10.160781860351562,6.664703369140625
1715093381716107500,5.488107421875,-2.1174468994140625,-8.638076782226562,5.565765380859375
1715093381726087000,5.4980869140625,-0.74078369140625,-8.190353393554688,4.55780029296875
1715093381736066000,5.508066162109375,0.9184112548828125,-8.628494262695312,2.7262420654296875
1715093381746015000,5.518014892578125,1.74200439453125,-9.483230590820312,1.1197357177734375
1715093381755994000,5.527994140625,2.1442413330078125,-9.983612060546875,0.1524658203125
1715093381765973200,5.53797314453125,2.6302642822265625,-9.456893920898438,-0.1515960693359375
1715093381775922200,5.547922119140625,2.8050384521484375,-8.152053833007812,-0.15399169921875
1715093381785901300,5.5579013671875,2.5751953125,-6.8065032958984375,-0.477203369140625
1715093381795850000,5.56785009765625,2.2088775634765625,-5.91107177734375,-1.0350494384765625
1715093381805829400,5.577829345703125,1.6653900146484375,-5.2095794677734375,-1.0135040283203125
1715093381815808500,5.58780859375,1.2248687744140625,-4.7786102294921875,-0.6016998291015625
1715093381825757200,5.597757080078125,0.8872833251953125,-5.027618408203125,-0.8219757080078125
1715093381835736600,5.607736572265625,0.5544891357421875,-4.733123779296875,-0.6495819091796875
1715093381845715700,5.6177158203125,0.4658966064453125,-4.807342529296875,-0.4365081787109375
1715093381855695000,5.627695068359375,0.753204345703125,-4.97015380859375,-0.297637939453125
1715093381865674200,5.63767431640625,1.514556884765625,-5.0204315185546875,-0.328765869140625
1715093381875623000,5.647622802734375,2.4698486328125,-5.18084716796875,-0.09173583984375
1715093381885602300,5.657602294921875,3.109100341796875,-5.314910888671875,0.2075347900390625
1715093381895581400,5.66758154296875,3.3341522216796875,-5.65728759765625,0.8827056884765625
1715093381905560800,5.677560791015625,3.573577880859375,-6.169647216796875,1.921783447265625
1715093381915509500,5.687509521484375,3.638214111328125,-6.91424560546875,3.525909423828125
1715093381925488600,5.697488525390625,3.44189453125,-7.3451995849609375,5.9847412109375
1715093381935468000,5.707468017578125,2.855316162109375,-7.579833984375,8.989471435546875
1715093381945416700,5.717416748046875,1.6031494140625,-9.040298461914062,11.03411865234375
1715093381955395800,5.727395751953125,0.6670074462890625,-11.156768798828125,12.68133544921875
1715093381965375200,5.737375244140625,-1.509307861328125,-13.61322021484375,11.831390380859375
1715093381975324000,5.747323974609375,-4.265045166015625,-15.583648681640625,8.73089599609375
1715093381985303300,5.75730322265625,-3.1110382080078125,-17.190155029296875,4.466827392578125
1715093381995282400,5.767282470703125,0.7867279052734375,-17.834197998046875,0.9665069580078125
1715093382005231000,5.777231201171875,5.09149169921875,-18.432754516601562,-0.6687469482421875
1715093382015210500,5.78721044921875,9.080245971679688,-16.373733520507812,-0.0773773193359375
1715093382025159200,5.7971591796875,6.142547607421875,-11.482376098632812,1.138885498046875
1715093382035138300,5.80713818359375,2.9438934326171875,-9.064239501953125,4.509918212890625
1715093382045117700,5.81711767578125,2.031707763671875,-11.63800048828125,7.4093017578125
1715093382055066400,5.82706640625,0.9255828857421875,-13.04339599609375,6.8993377685546875
1715093382065045500,5.83704541015625,-6.261810302734375,-16.558090209960938,3.9664306640625
1715093382075025000,5.84702490234375,-7.2793426513671875,-21.63140869140625,3.2290191650390625
1715093382084973600,5.8569736328125,-8.050277709960938,-22.627395629882812,0.1859893798828125
1715093382094953000,5.866952880859375,-6.2642059326171875,-17.738433837890625,-4.7652130126953125
1715093382104932000,5.87693212890625,-0.8556976318359375,-10.972412109375,-3.996673583984375
1715093382114880800,5.886880859375,1.208099365234375,-7.881500244140625,-0.6807098388671875
1715093382124860200,5.896860107421875,2.02691650390625,-5.8272705078125,2.1444549560546875
1715093382134839300,5.90683935546875,2.115509033203125,-3.7898101806640625,3.0135498046875
1715093382144818700,5.916818603515625,1.2200775146484375,-2.62384033203125,2.2521820068359375
1715093382154797800,5.9267978515625,-0.175750732421875,-2.3748321533203125,0.22430419921875
1715093382164746500,5.93674658203125,-1.401580810546875,-3.655731201171875,-1.691070556640625
1715093382174726000,5.946725830078125,-1.3249664306640625,-6.5096282958984375,-1.7700653076171875
1715093382184705000,5.956705078125,-0.841339111328125,-9.392242431640625,-2.0070953369140625
1715093382194684400,5.966684326171875,-0.1494140625,-12.531036376953125,-2.7564849853515625
1715093382204633000,5.976633056640625,0.362945556640625,-14.834259033203125,-4.2791900634765625
1715093382214612200,5.9866123046875,-1.1358184814453125,-14.408096313476562,-5.3925018310546875
1715093382224591600,5.996591552734375,-2.1126556396484375,-12.056991577148438,-5.833038330078125
1715093382234540300,6.006540283203125,-0.81500244140625,-8.295700073242188,-4.0086517333984375
1715093382244519400,6.01651953125,0.5544891357421875,-5.7386932373046875,-3.6926116943359375
1715093382254498800,6.026498779296875,1.9981842041015625,-3.801788330078125,-2.916900634765625
1715093382264447500,6.036447509765625,2.73321533203125,-3.1529541015625,-2.5290374755859375
1715093382274426600,6.046426513671875,2.558441162109375,-3.8257293701171875,-1.966400146484375
1715093382284406000,6.056406005859375,2.0484619140625,-4.57989501953125,0.765380859375
1715093382294354700,6.066354736328125,0.7244720458984375,-6.825653076171875,0.83721923828125
1715093382304333800,6.076333740234375,-0.4534759521484375,-8.70989990234375,2.915374755859375
1715093382314313200,6.086313232421875,-0.441497802734375,-10.237396240234375,5.4747772216796875
1715093382324262000,6.096261962890625,-0.2236328125,-11.740951538085938,5.6160430908203125
1715093382334241300,6.1062412109375,-0.429534912109375,-12.215011596679688,4.8331298828125
1715093382344220400,6.116220458984375,-0.7455596923828125,-11.283660888671875,4.430908203125
1715093382354169000,6.126169189453125,-1.1238555908203125,-10.187118530273438,3.8826446533203125
1715093382364148500,6.1361484375,-1.243560791015625,-9.241409301757812,3.6360321044921875
1715093382374097200,6.14609716796875,-1.523681640625,-8.571029663085938,3.655181884765625
1715093382384076300,6.156076171875,-1.825347900390625,-8.302886962890625,3.8371429443359375
1715093382394055700,6.1660556640625,-2.0025177001953125,-8.27655029296875,3.9784088134765625
1715093382404004400,6.17600439453125,-2.0911102294921875,-8.228668212890625,4.4189453125
1715093382413983500,6.1859833984375,-2.5076904296875,-8.185562133789062,4.1747283935546875
1715093382423963000,6.195962890625,-2.5100860595703125,-8.01318359375,4.2489471435546875
1715093382433942000,6.20594189453125,-1.9642181396484375,-8.427383422851562,3.8730621337890625
1715093382443921400,6.21592138671875,-0.1302490234375,-8.314849853515625,3.454071044921875
1715093382453870000,6.2258701171875,3.350921630859375,-7.5247650146484375,3.590545654296875
1715093382463849200,6.23584912109375,6.549560546875,-6.243865966796875,4.0167083740234375
1715093382473828600,6.24582861328125,8.014816284179688,-4.6876373291015625,4.3279571533203125
1715093382483807700,6.255807861328125,6.449005126953125,-4.3332977294921875,3.8515167236328125
1715093382493756700,6.265756591796875,1.7180633544921875,-5.5112457275390625,3.2697296142578125
1715093382503735800,6.27573583984375,-2.5843048095703125,-8.755386352539062,4.282470703125
1715093382513715000,6.28571484375,-3.9729461669921875,-13.045791625976562,4.8020172119140625
1715093382523664000,6.295663818359375,-2.9314727783203125,-16.30670166015625,4.742156982421875
1715093382533643000,6.30564306640625,0.8824920654296875,-17.980239868164062,4.256134033203125
1715093382543622400,6.315622314453125,4.24395751953125,-17.252410888671875,4.181915283203125
1715093382553571000,6.325571044921875,3.1761322021484375,-13.646743774414062,5.2257843017578125
1715093382563550200,6.33555029296875,1.334991455078125,-9.844741821289062,5.1156463623046875
1715093382573529600,6.345529541015625,0.56884765625,-6.878326416015625,4.299224853515625
1715093382583478300,6.355478271484375,-0.161376953125,-4.91748046875,2.982421875
1715093382593457400,6.36545751953125,-0.5635986328125,-4.299774169921875,0.918609619140625
1715093382603406300,6.37540625,-0.6641693115234375,-5.314910888671875,-1.4995269775390625
1715093382613385500,6.385385498046875,-1.3321380615234375,-7.232666015625,-3.4053192138671875
1715093382623364600,6.395364501953125,-2.14617919921875,-9.368301391601562,-5.0716705322265625
1715093382633313500,6.4053134765625,-2.6417694091796875,-11.767288208007812,-6.838592529296875
1715093382643292700,6.415292724609375,-4.2746124267578125,-13.840667724609375,-8.983795166015625
1715093382653291300,6.425291259765625,-5.73028564453125,-15.739273071289062,-9.8529052734375
1715093382663240000,6.435239990234375,-5.883514404296875,-18.296279907226562,-9.058029174804688
1715093382673219000,6.445218994140625,-6.072662353515625,-21.490142822265625,-6.996612548828125
1715093382683198500,6.455198486328125,-5.543548583984375,-24.573883056640625,-2.7445068359375
1715093382693147100,6.465147216796875,-5.708740234375,-25.41424560546875,2.766937255859375
1715093382703126300,6.475126220703125,-6.494049072265625,-23.336074829101562,7.155517578125
1715093382713105700,6.485105712890625,-7.2506103515625,-16.632308959960938,12.379653930664062
1715093382723084800,6.495084716796875,-8.13885498046875,-11.027481079101562,14.776260375976562
1715093382733064200,6.505064208984375,-6.242645263671875,-7.6349029541015625,12.1761474609375
1715093382743012900,6.515012939453125,-2.3879852294921875,-4.204010009765625,11.819412231445312
1715093382752992000,6.524991943359375,-0.7982330322265625,-3.548004150390625,9.758010864257812
1715093382762971400,6.534971435546875,-0.5396575927734375,-5.061126708984375,7.5984344482421875
1715093382772950500,6.544950439453125,-0.2236328125,-6.8687591552734375,5.23297119140625
1715093382782899200,6.554899169921875,1.20330810546875,-7.9485321044921875,2.5514678955078125
1715093382792878600,6.564878662109375,3.2240142822265625,-8.839187622070312,1.0359344482421875
1715093382802857700,6.574857666015625,4.75152587890625,-8.875091552734375,0.008819580078125
1715093382812806700,6.584806640625,4.53125,-8.43695068359375,-0.932098388671875
1715093382822785800,6.594785888671875,3.4035797119140625,-7.3284454345703125,-1.5258636474609375
1715093382832765000,6.604764892578125,2.2974700927734375,-5.8775482177734375,-1.6982421875
1715093382842713900,6.6147138671875,1.545684814453125,-4.5463714599609375,-1.7844390869140625
1715093382852693000,6.62469287109375,1.3182373046875,-3.528839111328125,-2.0262451171875
1715093382862672400,6.63467236328125,1.050079345703125,-3.550384521484375,-1.755706787109375
1715093382872621000,6.64462109375,0.9447479248046875,-3.686859130859375,-1.7796478271484375
1715093382882600200,6.65460009765625,0.741241455078125,-4.0795135498046875,-1.8634490966796875
1715093382892548900,6.664548828125,0.8130645751953125,-4.4194793701171875,-1.8586578369140625
1715093382902528300,6.6745283203125,1.3158416748046875,-4.6780548095703125,-1.75091552734375
1715093382912507400,6.68450732421875,1.926361083984375,-4.7522735595703125,-1.5952911376953125
1715093382922456300,6.694456298828125,2.290283203125,-4.8121337890625,-0.7956390380859375
1715093382932435500,6.704435546875,2.718841552734375,-5.47772216796875,0.219512939453125
1715093382942414600,6.71441455078125,3.130645751953125,-5.937408447265625,2.4892120361328125
1715093382952363500,6.724363525390625,3.31500244140625,-5.772216796875,5.44366455078125
1715093382962342700,6.7343427734375,2.7906646728515625,-4.965362548828125,8.462753295898438
1715093382972322000,6.744322021484375,1.270355224609375,-6.4904632568359375,9.602386474609375
1715093382982270700,6.754270751953125,-1.2148284912109375,-10.043472290039062,10.91680908203125
1715093382992249900,6.764249755859375,-1.3991851806640625,-13.974746704101562,10.361343383789062
1715093383002229200,6.774229248046875,1.65582275390625,-15.45196533203125,6.358245849609375
1715093383012208400,6.78420849609375,2.8792572021484375,-16.8238525390625,-0.6639556884765625
1715093383022187800,6.794187744140625,3.0061492919921875,-19.802230834960938,-6.0437164306640625
1715093383032136400,6.804136474609375,3.1761322021484375,-19.332962036132812,-6.67340087890625
1715093383042115600,6.814115478515625,3.504150390625,-11.5111083984375,1.699127197265625
1715093383052095000,6.824094970703125,1.2248687744140625,-7.4194183349609375,6.38458251953125
1715093383062074000,6.83407421875,0.183380126953125,-10.340347290039062,8.65667724609375
1715093383072022800,6.844022705078125,1.83538818359375,-17.932357788085938,9.88250732421875
1715093383082002200,6.854002197265625,-0.0560302734375,-23.199600219726562,8.429229736328125
1715093383091981300,6.863981201171875,-6.549102783203125,-24.530776977539062,5.1419830322265625
1715093383101930000,6.873929931640625,-8.56024169921875,-19.098342895507812,1.3423919677734375
1715093383111909400,6.883909423828125,-5.47650146484375,-11.867843627929688,-4.69818115234375
1715093383121888500,6.893888427734375,-3.65692138671875,-8.168807983398438,-3.3813629150390625
1715093383131837200,6.903837158203125,-0.8461151123046875,-7.689971923828125,0.8132781982421875
1715093383141816600,6.913816650390625,0.868133544921875,-9.148040771484375,2.8267974853515625
1715093383151795700,6.923795654296875,-0.1518096923828125,-10.955657958984375,2.85552978515625
1715093383161744600,6.93374462890625,-1.5667724609375,-10.754547119140625,1.1101531982421875
1715093383171723800,6.943723876953125,-2.1485595703125,-10.572586059570312,0.1548614501953125
1715093383181703000,6.953702880859375,-1.4590301513671875,-11.075363159179688,0.171630859375
1715093383191651800,6.96365185546875,0.59039306640625,-11.800811767578125,-1.5785369873046875
1715093383201631000,6.973630859375,1.63427734375,-10.898193359375,-3.065338134765625
1715093383211610400,6.9836103515625,1.84735107421875,-9.5550537109375,-2.557769775390625
1715093383221559000,6.99355908203125,0.9662933349609375,-8.032333374023438,-1.966400146484375
1715093383231538200,7.0035380859375,0.3126678466796875,-7.2542266845703125,-1.84429931640625
1715093383241486800,7.01348681640625,-0.249969482421875,-6.48089599609375,-1.0613861083984375
1715093383251466200,7.02346630859375,-0.621063232421875,-5.8488311767578125,-0.594512939453125
1715093383261445400,7.0334453125,-0.5635986328125,-5.5806732177734375,-0.09173583984375
1715093383271394300,7.043394287109375,0.0157928466796875,-5.937408447265625,-0.9225311279296875
1715093383281373400,7.05337353515625,0.923187255859375,-5.9493865966796875,-0.5178985595703125
1715093383291352600,7.0633525390625,1.2583770751953125,-6.6221466064453125,-1.0853271484375
1715093383301332000,7.07333203125,0.6191253662109375,-7.3021087646484375,-1.3510894775390625
1715093383311311000,7.08331103515625,-0.3433380126953125,-7.9150238037109375,-0.9967498779296875
1715093383321260000,7.093260009765625,-0.8652801513671875,-8.336395263671875,-1.1020965576171875
1715093383331239200,7.1032392578125,-1.169342041015625,-8.5830078125,-1.1595458984375
1715093383341218300,7.11321826171875,-1.6290283203125,-8.6883544921875,-0.6639556884765625
1715093383351197700,7.12319775390625,-2.0743408203125,-8.8798828125,0.3176727294921875
1715093383361146400,7.133146484375,-1.9115447998046875,-9.04986572265625,1.5171661376953125
1715093383371125800,7.143125732421875,-1.169342041015625,-9.253372192382812,2.71905517578125
1715093383381105000,7.15310498046875,-0.884429931640625,-9.574203491210938,3.84912109375
1715093383391053600,7.163053466796875,-0.3720703125,-9.313232421875,4.553009033203125
1715093383401033000,7.173032958984375,0.18817138671875,-8.705108642578125,4.667938232421875
1715093383411012000,7.18301220703125,0.27197265625,-7.7306671142578125,5.1779022216796875
1715093383420960800,7.192960693359375,-0.3074188232421875,-6.708343505859375,5.8291168212890625
1715093383430940200,7.202940185546875,-0.8293609619140625,-6.6365203857421875,6.2505035400390625
1715093383440919300,7.212919189453125,-1.0089263916015625,-6.665252685546875,5.6112518310546875
1715093383450868000,7.222867919921875,-0.35052490234375,-6.8017120361328125,5.02227783203125
1715093383460847400,7.232847412109375,0.7771453857421875,-7.2446441650390625,4.3758392333984375
1715093383470826500,7.242826416015625,2.421966552734375,-7.680389404296875,3.4037933349609375
1715093383480775400,7.252775390625,4.0308685302734375,-7.9365692138671875,3.3726654052734375
1715093383490754600,7.262754638671875,4.631805419921875,-8.369918823242188,3.64801025390625
1715093383500733700,7.272733642578125,3.827362060546875,-9.061843872070312,3.9903717041015625
1715093383510682600,7.2826826171875,2.1873321533203125,-9.974029541015625,4.636810302734375
1715093383520661800,7.292661865234375,0.4874420166015625,-10.905380249023438,6.1236114501953125
1715093383530641000,7.302640869140625,-0.0751953125,-12.083328247070312,6.580902099609375
1715093383540589800,7.31258984375,-0.482208251953125,-13.5174560546875,4.70623779296875
1715093383550569000,7.32256884765625,0.276763916015625,-14.5206298828125,3.1332550048828125
1715093383560548400,7.33254833984375,1.6630096435546875,-14.633148193359375,2.61370849609375
1715093383570497000,7.3424970703125,2.400421142578125,-13.290008544921875,2.39105224609375
1715093383580476200,7.35247607421875,1.1721954345703125,-11.369857788085938,2.4796295166015625
1715093383590455600,7.36245556640625,-0.283477783203125,-9.351547241210938,2.5514678955078125
1715093383600434700,7.3724345703125,-1.65057373046875,-7.5822296142578125,2.5514678955078125
1715093383610414000,7.3824140625,-2.840484619140625,-6.2630157470703125,1.98883056640625
1715093383620362800,7.39236279296875,-2.806976318359375,-5.8512115478515625,-0.1563873291015625
1715093383630342000,7.402341796875,-3.146942138671875,-6.3420257568359375,-2.1339874267578125
1715093383640321300,7.4123212890625,-2.81414794921875,-7.3811187744140625,-4.04217529296875
1715093383650270000,7.42227001953125,-3.0966644287109375,-8.441741943359375,-6.8194427490234375
1715093383660249000,7.4322490234375,-3.3935546875,-10.225418090820312,-8.892822265625
1715093383670228500,7.442228515625,-3.92266845703125,-12.976364135742188,-9.407577514648438
1715093383680177200,7.45217724609375,-3.752685546875,-16.155868530273438,-9.285476684570312
1715093383690156300,7.46215625,-3.757476806640625,-19.76153564453125,-9.053237915039062
1715093383700135700,7.4721357421875,-3.558746337890625,-23.041595458984375,-6.4435577392578125
1715093383710084400,7.48208447265625,-3.2738494873046875,-23.867584228515625,-1.6264190673828125
1715093383720063700,7.492063720703125,-5.6057891845703125,-21.731964111328125,2.5801849365234375
1715093383730043000,7.50204296875,-8.193923950195312,-17.149459838867188,5.989532470703125
1715093383739991600,7.511991455078125,-9.78607177734375,-11.52069091796875,10.574432373046875
1715093383749971000,7.521970947265625,-7.8611297607421875,-8.523147583007812,12.030105590820312
1715093383759950000,7.5319501953125,-4.25067138671875,-5.8224945068359375,11.836181640625
1715093383769898800,7.541898681640625,-1.7176055908203125,-4.235137939453125,10.097991943359375
1715093383779878100,7.551878173828125,-1.2627105712890625,-5.0419769287109375,7.7803955078125
1715093383789857300,7.561857177734375,-1.04962158203125,-6.35400390625,5.924896240234375
1715093383799806000,7.571805908203125,0.56884765625,-7.0650787353515625,4.1962738037109375
1715093383809785300,7.581785400390625,2.290283203125,-7.6301116943359375,1.9337615966796875
1715093383819764500,7.591764404296875,3.31500244140625,-7.986846923828125,0.0758514404296875
1715093383829713400,7.60171337890625,3.5400543212890625,-8.010787963867188,-0.994354248046875
1715093383839692500,7.611692626953125,3.1497955322265625,-7.3811187744140625,-1.9592132568359375
1715093383849671700,7.621671630859375,2.2352142333984375,-6.6844024658203125,-2.347076416015625
1715093383859620600,7.63162060546875,1.493011474609375,-5.800933837890625,-2.1818695068359375
1715093383869599700,7.641599853515625,1.1769866943359375,-4.9198760986328125,-1.839508056640625
1715093383879579100,7.6515791015625,0.7364501953125,-4.7570648193359375,-1.4157257080078125
1715093383889558300,7.661558349609375,0.288726806640625,-5.1688690185546875,-0.77886962890625
1715093383899537400,7.671537353515625,0.05169677734375,-5.6548919677734375,-0.307220458984375
1715093383909486300,7.681486328125,0.2049407958984375,-5.95416259765625,-0.11328125
1715093383919465500,7.691465576171875,0.68377685546875,-5.9230499267578125,0.1333160400390625
1715093383929444600,7.701444580078125,1.3373870849609375,-6.1672515869140625,0.0543060302734375
1715093383939393500,7.7113935546875,1.9646759033203125,-6.3348541259765625,0.516387939453125
1715093383949372700,7.72137255859375,2.5991363525390625,-6.935791015625,1.117340087890625
1715093383959352000,7.73135205078125,3.003753662109375,-7.383514404296875,2.5514678955078125
1715093383969300700,7.74130078125,3.379638671875,-7.0746612548828125,4.732574462890625
1715093383979280000,7.75127978515625,3.0899505615234375,-6.5407562255859375,7.2393035888671875
1715093383989259300,7.76125927734375,2.5105438232421875,-7.3404083251953125,8.146713256835938
1715093383999208000,7.7712080078125,2.146636962890625,-9.205490112304688,8.891311645507812
1715093384009187000,7.78118701171875,2.084381103515625,-11.831939697265625,8.575271606445312
1715093384019166500,7.79116650390625,1.2895050048828125,-14.470352172851562,5.5154876708984375
1715093384029115100,7.801115234375,1.3589324951171875,-16.866943359375,2.053466796875
1715093384039094300,7.81109423828125,2.0771942138671875,-19.19171142578125,-1.164337158203125
1715093384049073700,7.82107373046875,3.997344970703125,-20.20684814453125,-3.7357177734375
1715093384059022300,7.831022216796875,3.966217041015625,-15.0712890625,-1.997528076171875
1715093384069001700,7.841001708984375,2.31182861328125,-9.653213500976562,0.9665069580078125
1715093384078980900,7.85098095703125,-0.6689453125,-8.640457153320312,4.7445526123046875
1715093384088929500,7.860929443359375,-0.8389434814453125,-10.962844848632812,5.3526763916015625
1715093384098909000,7.870908935546875,-0.1949005126953125,-16.641891479492188,7.054962158203125
1715093384108857600,7.880857666015625,-5.0503387451171875,-22.694427490234375,8.374160766601562
1715093384118836700,7.890836669921875,-7.7342376708984375,-23.958572387695312,5.5801239013671875
1715093384128816000,7.900816162109375,-7.1692047119140625,-22.483734130859375,-2.7684478759765625
1715093384138795300,7.910795166015625,-3.8771820068359375,-15.152694702148438,-6.6279144287109375
1715093384148744000,7.920743896484375,-1.2244110107421875,-7.4984283447265625,-3.996673583984375
1715093384158723300,7.930723388671875,-0.1925048828125,-5.4058990478515625,-0.68310546875
1715093384168702500,7.940702392578125,0.44195556640625,-4.65411376953125,2.640045166015625
1715093384178681900,7.950681884765625,0.6191253662109375,-4.5870819091796875,4.8187713623046875
1715093384188661000,7.960660888671875,-0.0057525634765625,-4.25189208984375,5.0126953125
1715093384198609700,7.970609619140625,-1.540435791015625,-5.1114044189453125,3.0015716552734375
1715093384208589000,7.980589111328125,-0.69049072265625,-6.3156890869140625,2.0223388671875
1715093384218568200,7.990568115234375,0.5281524658203125,-7.5989837646484375,0.26739501953125
1715093384228517000,8.00051708984375,1.26556396484375,-8.7003173828125,-1.05419921875
1715093384238496300,8.010496337890626,1.090789794921875,-9.5670166015625,-1.9472503662109375
1715093384248475400,8.020475341796875,0.2121124267578125,-10.01953125,-2.8091583251953125
1715093384258424300,8.03042431640625,-1.360870361328125,-10.091354370117188,-4.32708740234375
1715093384268403500,8.040403564453126,-2.481353759765625,-9.250991821289062,-5.0357666015625
1715093384278382800,8.0503828125,-1.8708343505859375,-7.5678558349609375,-5.083648681640625
1715093384288331500,8.06033154296875,-0.4534759521484375,-5.906280517578125,-4.2241363525390625
1715093384298310700,8.070310546875,1.076416015625,-4.8576202392578125,-3.742889404296875
1715093384308290000,8.0802900390625,1.840179443359375,-4.785797119140625,-3.4220733642578125
1715093384318238700,8.09023876953125,1.5696258544921875,-5.0300140380859375,-1.7700653076171875
1715093384328217900,8.1002177734375,0.60955810546875,-5.87994384765625,0.40386962890625
1715093384338197200,8.110197265625,0.437164306640625,-6.708343505859375,2.754974365234375
1715093384348146000,8.12014599609375,0.2599945068359375,-7.922210693359375,4.6751251220703125
1715093384358125000,8.130125,-0.4271392822265625,-9.569412231445312,5.386199951171875
1715093384368104400,8.1401044921875,-1.243560791015625,-10.754547119140625,5.809967041015625
1715093384378053000,8.15005322265625,-2.1246185302734375,-11.125640869140625,5.946441650390625
1715093384388032300,8.1600322265625,-2.871612548828125,-11.017913818359375,5.249725341796875
1715093384398011600,8.17001171875,-3.146942138671875,-10.677932739257812,3.8299713134765625
1715093384407960300,8.179960205078125,-3.13018798828125,-10.187118530273438,2.2833099365234375
1715093384417939700,8.189939697265626,-3.218780517578125,-9.794464111328125,1.6392669677734375
1715093384427918800,8.1999189453125,-3.5563507080078125,-9.325210571289062,1.35675048828125
1715093384437898000,8.20989794921875,-3.3217315673828125,-9.351547241210938,1.6608123779296875
1715093384447847000,8.219846923828126,-2.72796630859375,-9.823196411132812,1.7182769775390625
1715093384457826000,8.229825927734375,-0.831756591796875,-9.923751831054688,1.8116607666015625
1715093384467805400,8.239805419921876,3.1258544921875,-9.464065551757812,1.584197998046875
1715093384477784600,8.24978466796875,7.9094696044921875,-8.312454223632812,1.5746307373046875
1715093384487733200,8.259733154296875,11.280517578125,-6.634124755859375,1.4716796875
1715093384497712600,8.269712646484376,10.514373779296875,-4.99169921875,1.1436767578125
1715093384507691800,8.27969189453125,5.749908447265625,-3.89276123046875,0.7821502685546875
1715093384517640400,8.289640380859375,1.2727508544921875,-4.479339599609375,2.3359832763671875
1715093384527619800,8.299619873046876,-1.4470672607421875,-7.3380126953125,4.572174072265625
1715093384537599000,8.309598876953125,-3.30975341796875,-11.6787109375,6.5234375
1715093384547547600,8.319547607421875,-2.7614898681640625,-15.246063232421875,7.6606903076171875
1715093384557527000,8.329527099609376,-0.7862701416015625,-16.893280029296875,7.0860748291015625
1715093384567506200,8.339506103515625,0.5449066162109375,-15.612380981445312,7.299163818359375
1715093384577455000,8.349455078125,-0.209259033203125,-12.583709716796875,8.577667236328125
1715093384587434200,8.359434326171876,-0.1374359130859375,-9.6412353515625,7.4930877685546875
1715093384597413400,8.369413330078125,0.5544891357421875,-7.6612396240234375,5.3000030517578125
1715093384607362300,8.3793623046875,0.2384490966796875,-6.1145782470703125,3.5043487548828125
1715093384617341400,8.389341552734376,-0.271514892578125,-5.5327911376953125,1.41900634765625
1715093384627320800,8.39932080078125,-0.70965576171875,-6.423431396484375,-1.1044769287109375
1715093384637269500,8.40926953125,-1.2627105712890625,-8.080215454101562,-2.7828216552734375
1715093384647248600,8.41924853515625,-2.225189208984375,-10.572586059570312,-4.523406982421875
1715093384657228000,8.42922802734375,-3.1493377685546875,-13.577301025390625,-6.89605712890625
1715093384667176700,8.4391767578125,-4.41827392578125,-15.60040283203125,-8.7132568359375
1715093384677155800,8.44915576171875,-4.657684326171875,-17.293106079101562,-9.658966064453125
1715093384687135200,8.45913525390625,-4.435028076171875,-19.141433715820312,-10.025283813476562
1715093384697084000,8.469083984375,-5.4142608642578125,-21.511688232421875,-8.492996215820312
1715093384707063000,8.47906298828125,-5.7159271240234375,-22.5196533203125,-4.707763671875
1715093384717042400,8.48904248046875,-5.7207183837890625,-20.561187744140625,0.9784698486328125
1715093384727021600,8.499021484375,-6.4437713623046875,-17.27874755859375,5.1252288818359375
1715093384736970200,8.50897021484375,-5.94097900390625,-11.83673095703125,8.103622436523438
1715093384746949600,8.51894970703125,-5.5794525146484375,-7.7833404541015625,10.291915893554688
1715093384756928800,8.5289287109375,-5.2035675048828125,-6.8807220458984375,11.627883911132812
1715093384766908200,8.538908203125,-4.1477203369140625,-6.22711181640625,10.49542236328125
1715093384776856800,8.54885693359375,-2.9003448486328125,-5.640533447265625,9.034957885742188
1715093384786836000,8.5588359375,-2.1820831298828125,-5.61419677734375,7.8713836669921875
1715093384796815400,8.5688154296875,-0.8365478515625,-6.31329345703125,5.5059051513671875
1715093384806764000,8.578763916015625,1.0620574951171875,-6.8903045654296875,3.5498504638671875
1715093384816743400,8.588743408203126,2.654205322265625,-7.4601287841796875,1.6009674072265625
1715093384826722600,8.59872265625,3.573577880859375,-7.8000946044921875,0.0016326904296875
1715093384836671200,8.608671142578125,3.8201751708984375,-7.871917724609375,-1.0925140380859375
1715093384846650600,8.618650634765626,3.499359130859375,-7.3882904052734375,-1.7796478271484375
1715093384856629800,8.628629638671875,2.85052490234375,-6.43780517578125,-2.1603240966796875
1715093384866578400,8.638578369140625,2.1514129638671875,-5.4849090576171875,-2.3925628662109375
1715093384876557800,8.648557861328126,1.6653900146484375,-5.07550048828125,-2.485931396484375
1715093384886537000,8.658536865234375,1.16021728515625,-5.0156402587890625,-2.3662261962890625
1715093384896485600,8.668485595703125,0.7819366455078125,-5.3795623779296875,-2.284820556640625
1715093384906465000,8.678465087890626,0.5999755859375,-5.73150634765625,-2.2129974365234375
1715093384916444200,8.688444091796875,0.6981353759765625,-5.566314697265625,-2.1004791259765625
1715093384926393000,8.69839306640625,1.287109375,-5.5064544677734375,-2.04541015625
1715093384936372200,8.708372314453126,1.8449554443359375,-5.7530517578125,-1.2026519775390625
1715093384946351400,8.718351318359375,2.0436859130859375,-6.34442138671875,-0.0390625
1715093384956300300,8.72830029296875,2.400421142578125,-6.887908935546875,1.4333648681640625
1715093384966279400,8.738279541015626,2.7092742919921875,-7.1919708251953125,3.7988433837890625
1715093384976258800,8.7482587890625,2.6470184326171875,-6.844818115234375,7.4715423583984375
1715093384986207500,8.75820751953125,1.8497467041015625,-6.9645233154296875,10.04052734375
1715093384996186600,8.7681865234375,0.76995849609375,-9.243804931640625,11.261566162109375
1715093385006166000,8.778166015625,-0.087158203125,-12.384994506835938,12.2503662109375
1715093385016145200,8.788145263671876,-2.14617919921875,-15.344223022460938,9.911239624023438
1715093385026093800,8.79809375,0.5257568359375,-16.512603759765625,4.2537384033203125
1715093385036073200,8.8080732421875,4.133819580078125,-18.1669921875,-0.74774169921875
1715093385046052400,8.81805224609375,4.672515869140625,-20.503738403320312,-2.7732391357421875
1715093385056031700,8.82803173828125,5.3572540283203125,-17.953903198242188,-3.118011474609375
1715093385065980400,8.83798046875,1.4211883544921875,-10.646804809570312,-0.8770294189453125
1715093385075959600,8.84795947265625,2.010162353515625,-7.5941925048828125,3.1595916748046875
1715093385085939000,8.85793896484375,2.41717529296875,-8.216690063476562,5.9608001708984375
1715093385095887600,8.8678876953125,-0.74078369140625,-9.243804931640625,7.8929290771484375
1715093385105866800,8.87786669921875,0.0157928466796875,-13.670684814453125,8.915252685546875
1715093385115846100,8.88784619140625,-4.1525115966796875,-21.111862182617188,9.726882934570312
1715093385125794800,8.897794921875,-11.62481689453125,-23.18524169921875,5.8530731201171875
1715093385135774000,8.90777392578125,-11.062179565429688,-22.232345581054688,-1.6216278076171875
1715093385145753300,8.91775341796875,-4.3368682861328125,-16.361770629882812,-5.0980072021484375
1715093385155702000,8.927701904296875,0.214508056640625,-9.456893920898438,-2.3135528564453125
1715093385165681400,8.937681396484376,2.9367218017578125,-5.7817840576171875,0.05670166015625
1715093385175660500,8.94766064453125,2.960662841796875,-4.0531768798828125,1.2011260986328125
1715093385185609200,8.957609130859375,2.0987396240234375,-3.3349151611328125,0.6983489990234375
1715093385195588600,8.967588623046876,1.0261383056640625,-3.0715484619140625,-0.4795989990234375
1715093385205567700,8.977567626953125,0.34619140625,-3.49053955078125,-1.659942626953125
1715093385215516400,8.987516357421875,0.03973388671875,-5.19281005859375,-1.30560302734375
1715093385225495800,8.997495849609376,0.2121124267578125,-7.4768829345703125,-0.46044921875
1715093385235475000,9.007474853515625,0.6550445556640625,-10.218246459960938,-0.118072509765625
1715093385245423600,9.017423583984375,0.3007049560546875,-12.384994506835938,0.27935791015625
1715093385255403000,9.027403076171876,-1.5643768310546875,-12.988327026367188,-0.4365081787109375
1715093385265382100,9.037382080078125,-2.44305419921875,-12.595687866210938,-1.935272216796875
1715093385275331000,9.0473310546875,-1.887603759765625,-11.044235229492188,-2.1555328369140625
1715093385285310200,9.057310302734376,-0.3481292724609375,-9.013961791992188,-1.9113311767578125
1715093385295289300,9.067289306640625,1.1051483154296875,-6.8855133056640625,-2.009490966796875
1715093385305268700,9.077268798828126,1.6773681640625,-5.3651885986328125,-2.49072265625
1715093385315217400,9.087217529296876,1.55047607421875,-4.5727081298828125,-2.505096435546875
1715093385325196800,9.09719677734375,1.050079345703125,-4.5774993896484375,-1.60247802734375
1715093385335176000,9.107176025390626,0.49462890625,-4.974945068359375,0.399078369140625
1715093385345155000,9.117155029296875,0.0900115966796875,-5.779388427734375,2.4844207763671875
1715093385355104000,9.12710400390625,-0.240386962890625,-7.282958984375,3.7772979736328125
1715093385365083100,9.137083251953126,-0.1805267333984375,-8.714691162109375,5.017486572265625
1715093385375062500,9.1470625,-0.1470184326171875,-10.055435180664062,5.6256103515625
1715093385385011200,9.15701123046875,-0.4271392822265625,-10.701873779296875,5.661529541015625
1715093385394990300,9.166990234375,-0.8126068115234375,-10.440902709960938,5.6375885009765625
1715093385404969700,9.1769697265625,-1.1837005615234375,-9.825592041015625,5.1348114013671875
1715093385414918400,9.18691845703125,-1.6385955810546875,-9.382659912109375,4.3806304931640625
1715093385424897500,9.1968974609375,-2.131805419921875,-9.279708862304688,3.6456146240234375
1715093385434877000,9.206876953125,-2.7351531982421875,-9.306045532226562,3.358306884765625
1715093385444825600,9.21682568359375,-3.16131591796875,-9.411392211914062,3.2026824951171875
1715093385454804700,9.2268046875,-3.091888427734375,-9.452102661132812,3.0638275146484375
1715093385464784100,9.2367841796875,-2.4550323486328125,-9.169586181640625,3.0590362548828125
1715093385474732800,9.24673291015625,-0.008148193359375,-9.40899658203125,3.5235137939453125
1715093385484712200,9.256712158203126,3.552032470703125,-8.484848022460938,3.473236083984375
1715093385494691300,9.26669140625,7.7921600341796875,-6.8759307861328125,3.6504058837890625
1715093385504640000,9.276639892578125,9.187973022460938,-5.6908111572265625,3.178741455078125
1715093385514619400,9.286619384765626,6.1353759765625,-4.7355194091796875,1.8762969970703125
1715093385524598500,9.2965986328125,1.3900604248046875,-4.71636962890625,1.4405517578125
1715093385534547200,9.306547119140625,-2.354461669921875,-6.9333953857421875,2.142059326171875
1715093385544526600,9.316526611328126,-2.90753173828125,-11.029876708984375,3.3247833251953125
1715093385554505700,9.326505615234375,-1.3034210205078125,-14.238113403320312,2.9105987548828125
1715093385564485000,9.336485107421876,1.038116455078125,-15.499847412109375,2.5251312255859375
1715093385574433800,9.346433837890626,3.173736572265625,-15.36578369140625,3.4971771240234375
1715093385584413000,9.356412841796875,3.5879364013671875,-13.91009521484375,4.9935455322265625
1715093385594392300,9.366392333984376,1.0955810546875,-11.60687255859375,5.618438720703125
1715093385604371500,9.376371337890625,-0.6665496826171875,-9.29168701171875,5.101287841796875
1715093385614320000,9.386320068359375,-1.222015380859375,-7.05072021484375,5.15875244140625
1715093385624299500,9.396299560546876,-2.2706756591796875,-5.91107177734375,4.0382537841796875
1715093385634278700,9.406278564453125,-2.8572540283203125,-6.222320556640625,1.6967315673828125
1715093385644227300,9.416227294921875,-2.5460052490234375,-7.1033935546875,-0.2114410400390625
1715093385654206700,9.426206787109376,-1.8899993896484375,-8.420196533203125,-2.495513916015625
1715093385664185900,9.436185791015625,-2.57952880859375,-10.376266479492188,-5.7085418701171875
1715093385674134800,9.446134765625,-4.032806396484375,-12.904541015625,-8.31103515625
1715093385684114000,9.456114013671876,-4.8851470947265625,-15.30352783203125,-9.342926025390625
1715093385694093000,9.466093017578125,-4.911468505859375,-17.956298828125,-9.91754150390625
1715093385704042000,9.4760419921875,-5.1916046142578125,-20.992156982421875,-10.432296752929688
1715093385714021000,9.486021240234376,-5.6800079345703125,-23.711959838867188,-8.334976196289062
1715093385724000500,9.49600048828125,-5.9170379638671875,-23.25946044921875,-3.3694000244140625
1715093385733949200,9.50594921875,-6.8292388916015625,-20.096725463867188,2.132476806640625
1715093385743928300,9.51592822265625,-6.855560302734375,-14.760040283203125,6.75567626953125
1715093385753907700,9.52590771484375,-6.9944305419921875,-8.259780883789062,10.143478393554688
1715093385763856400,9.5358564453125,-5.94097900390625,-6.1768341064453125,11.972640991210938
1715093385773835500,9.54583544921875,-4.107025146484375,-5.0228271484375,11.776321411132812
1715093385783815000,9.55581494140625,-2.258697509765625,-4.2183685302734375,9.063690185546875
1715093385793763600,9.565763671875,-1.69366455078125,-4.014862060546875,7.234527587890625
1715093385803742700,9.57574267578125,-1.4590301513671875,-4.7451019287109375,5.2162017822265625
1715093385813722000,9.58572216796875,0.0277557373046875,-5.5184173583984375,3.6504058837890625
1715093385823670800,9.5956708984375,1.8545379638671875,-6.4210357666015625,1.349578857421875
1715093385833650200,9.605650146484376,3.2072601318359375,-7.1129608154296875,-0.20904541015625
1715093385843629300,9.61562939453125,4.270294189453125,-7.4290008544921875,-1.418121337890625
1715093385853608400,9.6256083984375,4.2774658203125,-7.563079833984375,-2.3015899658203125
1715093385863557400,9.635557373046876,3.2240142822265625,-6.95733642578125,-2.27764892578125
1715093385873536500,9.64553662109375,1.9024200439453125,-5.9398040771484375,-2.050201416015625
1715093385883516000,9.655515869140626,1.064453125,-5.25506591796875,-1.8203582763671875
1715093385893495000,9.6654951171875,0.3150634765625,-5.566314697265625,-1.2098236083984375
1715093385903443700,9.675443603515625,-0.1901092529296875,-6.19598388671875,-0.254547119140625
1715093385913423000,9.685423095703126,-0.2810821533203125,-6.8328399658203125,0.1859893798828125
1715093385923402200,9.69540234375,0.255218505859375,-7.4505462646484375,0.399078369140625
1715093385933351000,9.705350830078125,0.911224365234375,-7.8360137939453125,0.5187835693359375
1715093385943330300,9.715330322265626,1.7851104736328125,-8.535125732421875,0.7294769287109375
1715093385953309400,9.725309326171875,2.2304229736328125,-8.92059326171875,1.445343017578125
1715093385963258000,9.735258056640625,2.62786865234375,-9.1959228515625,2.714263916015625
1715093385973237500,9.745237548828126,3.0109405517578125,-8.472869873046875,4.9672088623046875
1715093385983216600,9.755216552734375,2.6422271728515625,-7.3667449951171875,7.584075927734375
1715093385993165300,9.765165283203125,1.935943603515625,-6.7945404052734375,9.252838134765625
1715093386003144700,9.775144775390626,1.5001983642578125,-7.7210845947265625,10.2200927734375
1715093386013123800,9.785123779296875,1.361328125,-9.0594482421875,10.825820922851562
1715093386023072800,9.79507275390625,2.0556488037109375,-11.132827758789062,8.98468017578125
1715093386033052000,9.805052001953126,3.27191162109375,-12.854263305664062,5.0869140625
1715093386043031000,9.815031005859375,2.88165283203125,-15.131149291992188,0.6887664794921875
1715093386052980000,9.82497998046875,3.8345489501953125,-17.465484619140625,-2.198638916015625
1715093386062959000,9.834958984375,4.5551910400390625,-17.592391967773438,-3.122802734375
1715093386072938500,9.8449384765625,2.929534912109375,-12.509490966796875,-3.108428955078125
1715093386082887200,9.85488720703125,0.9447479248046875,-6.49285888671875,0.411041259765625
1715093386092866300,9.8648662109375,-4.5691070556640625,-4.9605712890625,3.188323974609375
1715093386102845700,9.874845703125,-5.4932708740234375,-8.453720092773438,6.1619110107421875
1715093386112794400,9.88479443359375,-1.5045318603515625,-17.180587768554688,10.04052734375
1715093386122773500,9.8947734375,-3.6353607177734375,-27.262557983398438,10.782730102539062
1715093386132753000,9.9047529296875,-8.9720458984375,-29.043853759765625,7.4978790283203125
1715093386142732000,9.91473193359375,-9.525100708007812,-24.451766967773438,-2.97674560546875
1715093386152680700,9.9246806640625,-3.9729461669921875,-14.312332153320312,-8.052459716796875
1715093386162660000,9.93466015625,0.583221435546875,-6.9860687255859375,-3.721343994140625
1715093386172639200,9.94463916015625,2.6566009521484375,-4.86480712890625,-0.11328125
1715093386182618600,9.95461865234375,3.0588226318359375,-3.8855743408203125,1.488433837890625
1715093386192567300,9.9645673828125,2.527313232421875,-3.20562744140625,2.22344970703125
1715093386202546400,9.97454638671875,1.3421783447265625,-3.0883026123046875,0.97607421875
1715093386212525800,9.98452587890625,0.0900115966796875,-3.9430389404296875,-0.898590087890625
1715093386222474500,9.994474609375,-0.091949462890625,-5.2335205078125,-1.870635986328125
1715093386232454000,10.004453857421876,0.408447265625,-7.2542266845703125,-2.5218505859375
1715093386242433000,10.01443310546875,1.08599853515625,-9.631668090820312,-2.775634765625
1715093386252381700,10.024381591796875,0.678985595703125,-11.717010498046875,-2.19384765625
1715093386262361000,10.034361083984376,-1.226806640625,-13.234939575195312,-2.4619903564453125
1715093386272340200,10.04434033203125,-2.522064208984375,-13.25408935546875,-3.8386688232421875
1715093386282289000,10.054288818359375,-1.8540802001953125,-10.977203369140625,-4.1187896728515625
1715093386292268300,10.064268310546876,-0.2595367431640625,-8.144866943359375,-3.2999725341796875
1715093386302247400,10.074247314453125,0.8441925048828125,-6.67242431640625,-3.1658935546875
1715093386312196000,10.084196044921875,0.7460174560546875,-5.798553466796875,-3.0413970947265625
1715093386322175500,10.094175537109376,0.616729736328125,-5.4537811279296875,-2.4763641357421875
1715093386332154600,10.104154541015625,0.8872833251953125,-5.6764373779296875,-0.9775848388671875
1715093386342103600,10.114103515625,1.2895050048828125,-6.0451507568359375,1.603363037109375
1715093386352082700,10.124082763671876,1.1841583251953125,-7.057891845703125,3.1165008544921875
1715093386362061800,10.134061767578125,0.573638916015625,-8.487228393554688,3.7437744140625
1715093386372010800,10.1440107421875,-0.0584259033203125,-9.8519287109375,4.1531829833984375
1715093386381990000,10.153989990234376,-0.589935302734375,-10.618072509765625,4.282470703125
1715093386391969000,10.163968994140625,-1.00653076171875,-10.603713989257812,4.4811859130859375
1715093386401918000,10.17391796875,-1.3417205810546875,-10.23260498046875,3.971221923828125
1715093386411897000,10.18389697265625,-1.176513671875,-9.626876831054688,3.1715545654296875
1715093386421876500,10.19387646484375,-0.472625732421875,-8.956497192382812,2.915374755859375
1715093386431855600,10.203855712890626,-0.8437347412109375,-8.5518798828125,2.9919891357421875
1715093386441804300,10.21380419921875,-2.0336456298828125,-8.4896240234375,3.1332550048828125
1715093386451783700,10.22378369140625,-3.0679473876953125,-8.606948852539062,3.2362060546875
1715093386461762800,10.2337626953125,-3.1637115478515625,-8.144866943359375,3.6623687744140625
1715093386471742200,10.2437421875,-1.995330810546875,-8.571029663085938,4.667938232421875
1715093386481691000,10.25369091796875,0.2169036865234375,-8.49920654296875,4.4213409423828125
1715093386491670000,10.263669921875,3.2623291015625,-7.74981689453125,4.435699462890625
1715093386501649400,10.2736494140625,4.830535888671875,-7.03155517578125,4.2010650634765625
1715093386511598000,10.28359814453125,4.449859619140625,-6.370758056640625,3.853912353515625
1715093386521577200,10.2935771484375,3.3173980712890625,-5.937408447265625,3.832366943359375
1715093386531556600,10.303556640625,1.852142333984375,-6.413848876953125,4.14599609375
1715093386541505300,10.31350537109375,0.0900115966796875,-7.8096771240234375,4.54583740234375
1715093386551484400,10.323484375,0.3174591064453125,-10.419357299804688,4.8546905517578125
1715093386561463800,10.3334638671875,1.064453125,-13.366622924804688,4.3112030029296875
1715093386571412500,10.34341259765625,1.842559814453125,-14.932418823242188,3.8108062744140625
1715093386581392000,10.353391845703126,3.1426239013671875,-14.590057373046875,3.9520721435546875
1715093386591371000,10.36337109375,2.8577117919921875,-12.68426513671875,4.1627655029296875
1715093386601319700,10.373319580078125,0.7196807861328125,-10.656387329101562,4.066986083984375
1715093386611299000,10.383299072265626,-0.5492401123046875,-8.88946533203125,3.7988433837890625
1715093386621278200,10.3932783203125,-1.0089263916015625,-7.3092803955078125,3.6025238037109375
1715093386631227000,10.403226806640625,-1.899566650390625,-6.5359649658203125,1.82122802734375
1715093386641206300,10.413206298828126,-2.9003448486328125,-6.655670166015625,-0.63043212890625
1715093386651185400,10.423185302734375,-2.5627593994140625,-7.1823883056640625,-2.27764892578125
1715093386661134000,10.433134033203125,-1.8899993896484375,-8.391464233398438,-3.915283203125
1715093386671113500,10.443113525390626,-2.75909423828125,-10.22064208984375,-6.7021331787109375
1715093386681092600,10.453092529296875,-4.3201141357421875,-12.701034545898438,-8.964645385742188
1715093386691041500,10.46304150390625,-5.3184967041015625,-15.499847412109375,-10.389205932617188
1715093386701020700,10.473020751953126,-5.2514495849609375,-18.602737426757812,-10.829727172851562
1715093386710999800,10.482999755859375,-5.311309814453125,-21.803787231445312,-9.692489624023438
1715093386720979200,10.492979248046876,-5.0287933349609375,-23.18524169921875,-6.1131591796875
1715093386730927900,10.502927978515626,-4.5810699462890625,-21.808578491210938,-1.02069091796875
1715093386740907000,10.512906982421875,-4.9713287353515625,-18.7799072265625,3.1188812255859375
1715093386750886400,10.522886474609376,-5.6800079345703125,-14.329086303710938,6.7461090087890625
1715093386760865500,10.532865478515625,-6.8890838623046875,-9.36590576171875,10.33740234375
1715093386770814500,10.542814453125,-6.699951171875,-8.051483154296875,12.152206420898438
1715093386780793600,10.552793701171876,-5.0192108154296875,-7.5151824951171875,11.058059692382812
1715093386790772700,10.562772705078125,-2.38079833984375,-6.1816253662109375,9.741256713867188
1715093386800721700,10.5727216796875,-1.5476226806640625,-6.0403594970703125,7.373382568359375
1715093386810700800,10.58270068359375,-1.8373260498046875,-6.571868896484375,5.6423797607421875
1715093386820680200,10.59268017578125,-0.7766876220703125,-7.089019775390625,4.44049072265625
1715093386830628900,10.60262890625,0.7292633056640625,-7.649261474609375,2.5370941162109375
1715093386840608000,10.61260791015625,2.7978515625,-7.943756103515625,0.7031402587890625
1715093386850587400,10.62258740234375,3.8321533203125,-7.4625091552734375,-0.24017333984375
1715093386860536000,10.6325361328125,3.9135589599609375,-7.194366455078125,-0.7381744384765625
1715093386870515200,10.64251513671875,3.331756591796875,-6.200775146484375,-0.90576171875
1715093386880494600,10.65249462890625,2.307037353515625,-5.3939208984375,-1.2457427978515625
1715093386890443300,10.662443359375,1.287109375,-4.93902587890625,-1.523468017578125
1715093386900422400,10.67242236328125,0.5808258056640625,-4.9510040283203125,-1.4205169677734375
1715093386910401800,10.68240185546875,0.11395263671875,-5.1736602783203125,-1.1619415283203125
1715093386920350500,10.6923505859375,-0.051239013671875,-5.2957611083984375,-1.080535888671875
1715093386930329900,10.702329833984376,0.1522674560546875,-5.350830078125,-1.037445068359375
1715093386940309000,10.71230908203125,0.5377197265625,-5.334075927734375,-0.857879638671875
1715093386950257700,10.722257568359375,1.471466064453125,-5.0778961181640625,-1.238555908203125
1715093386960237000,10.732237060546876,2.285491943359375,-5.197601318359375,-1.3032073974609375
1715093386970216200,10.74221630859375,2.56561279296875,-5.599822998046875,-0.4484710693359375
1715093386980164900,10.752164794921875,2.867279052734375,-6.1026153564453125,0.38470458984375
1715093386990144300,10.762144287109376,2.9103851318359375,-6.339630126953125,2.376678466796875
1715093387000123400,10.772123291015625,2.7523651123046875,-6.43780517578125,4.29205322265625
1715093387010102800,10.782102783203126,2.9750213623046875,-6.485687255859375,7.742095947265625
1715093387020082000,10.79208203125,2.20648193359375,-8.7745361328125,9.607177734375
1715093387030030600,10.802030517578125,1.239227294921875,-11.841506958007812,10.6654052734375
1715093387040010000,10.812010009765626,0.394073486328125,-14.685821533203125,9.3533935546875
1715093387049989000,10.821989013671875,0.28155517578125,-16.680191040039062,5.49871826171875
1715093387059937800,10.831937744140625,1.4594879150390625,-17.74322509765625,1.2585906982421875
1715093387069917200,10.841917236328126,3.1641693115234375,-18.997787475585938,-2.03582763671875
1715093387079896300,10.851896240234375,5.8336944580078125,-17.788711547851562,-3.8506317138671875
1715093387089845200,10.86184521484375,4.303802490234375,-12.43048095703125,-1.808380126953125
1715093387099824400,10.871824462890626,3.044464111328125,-7.364349365234375,2.2258453369140625
1715093387109803500,10.881803466796875,1.7922821044921875,-6.033172607421875,4.51470947265625
1715093387119752400,10.89175244140625,-1.9761810302734375,-8.405838012695312,6.4037322998046875
1715093387129731600,10.901731689453126,-0.8868255615234375,-14.87017822265625,9.01580810546875
1715093387139710700,10.911710693359375,-5.268218994140625,-24.226715087890625,10.196151733398438
1715093387149659600,10.92165966796875,-13.89691162109375,-28.205886840820312,8.479507446289062
1715093387159638800,10.931638671875,-12.958389282226562,-26.47247314453125,0.430206298828125
1715093387169618200,10.9416181640625,-4.8659820556640625,-17.475067138671875,-6.151458740234375
1715093387179566800,10.95156689453125,0.647857666015625,-9.940521240234375,-3.402923583984375
1715093387189546000,10.9615458984375,1.7515869140625,-5.599822998046875,0.3440093994140625
1715093387199525400,10.971525390625,1.7491912841796875,-3.71319580078125,2.237823486328125
1715093387209474000,10.98147412109375,2.3142242431640625,-3.401947021484375,2.5849761962890625
1715093387219453200,10.991453125,1.1314849853515625,-3.1290130615234375,0.4493560791015625
1715093387229432600,11.0014326171875,1.275146484375,-2.7938232421875,-0.8698577880859375
1715093387239381200,11.01138134765625,1.87847900390625,-4.0866851806640625,-0.350311279296875
1715093387249360400,11.0213603515625,2.0341033935546875,-6.6796112060546875,-0.889007568359375
1715093387259339800,11.03133984375,1.493011474609375,-9.854324340820312,-1.05181884765625
1715093387269288400,11.041288330078125,-0.937103271484375,-12.593292236328125,-0.845916748046875
1715093387279267800,11.051267822265626,-3.1397705078125,-14.04656982421875,-0.826751708984375
1715093387289247000,11.0612470703125,-3.738311767578125,-14.171066284179688,-2.557769775390625
1715093387299226000,11.07122607421875,-2.627410888671875,-12.10247802734375,-4.4228515625
1715093387309205500,11.08120556640625,-0.2164459228515625,-9.064239501953125,-3.5058746337890625
1715093387319154200,11.091154296875,0.710113525390625,-6.519195556640625,-3.7333221435546875
1715093387329133600,11.101133544921876,0.870513916015625,-4.5128631591796875,-3.637542724609375
1715093387339112700,11.11111279296875,1.7276458740234375,-3.270263671875,-2.4356536865234375
1715093387349061400,11.121061279296875,2.6637725830078125,-3.423492431640625,-1.4779815673828125
1715093387359040800,11.131040771484376,3.4658355712890625,-3.919097900390625,0.1405029296875
1715093387369020000,11.14102001953125,3.74835205078125,-5.018035888671875,2.2713470458984375
1715093387378968600,11.150968505859375,2.785888671875,-6.9333953857421875,3.5929412841796875
1715093387388948000,11.160947998046876,1.56243896484375,-8.939743041992188,4.627227783203125
1715093387398927000,11.170927001953125,0.2408447265625,-10.493576049804688,5.7022247314453125
1715093387408875800,11.180875732421875,-1.2459564208984375,-11.338729858398438,6.1547393798828125
1715093387418855200,11.190855224609376,-2.66571044921875,-11.53265380859375,5.63519287109375
1715093387428834300,11.200834228515625,-3.55157470703125,-11.13043212890625,4.926513671875
1715093387438783200,11.210783203125,-3.9466094970703125,-10.661163330078125,4.2681121826171875
1715093387448762400,11.220762451171876,-3.9825286865234375,-10.292465209960938,3.7150421142578125
1715093387458741500,11.230741455078125,-3.884368896484375,-9.875869750976562,3.5402679443359375
1715093387468690400,11.2406904296875,-3.874786376953125,-9.981216430664062,3.77490234375
1715093387478669600,11.250669677734376,-3.1014556884765625,-10.170364379882812,3.9257354736328125
1715093387488649000,11.26064892578125,-1.226806640625,-10.144027709960938,3.8730621337890625
1715093387498597600,11.27059765625,1.9000244140625,-9.413787841796875,3.695892333984375
1715093387508576800,11.28057666015625,5.2088165283203125,-8.089797973632812,3.5618133544921875
1715093387518556200,11.29055615234375,8.2279052734375,-6.105010986328125,3.62646484375
1715093387528504800,11.3005048828125,9.118545532226562,-3.993316650390625,3.9688262939453125
1715093387538484000,11.31048388671875,7.2175445556640625,-2.714813232421875,3.494781494140625
1715093387548463400,11.32046337890625,3.31500244140625,-2.8273468017578125,2.649627685546875
1715093387558412000,11.330412109375,-0.24517822265625,-5.2742156982421875,2.89862060546875
1715093387568391200,11.34039111328125,-0.735992431640625,-9.478439331054688,4.3973846435546875
1715093387578370600,11.35037060546875,-0.144622802734375,-13.90771484375,3.6456146240234375
1715093387588349700,11.360349609375,-0.3002471923828125,-17.041717529296875,1.9385528564453125
1715093387598329000,11.3703291015625,0.5257568359375,-18.54766845703125,0.8587646484375
1715093387608277800,11.38027783203125,1.3302154541015625,-17.958694458007812,0.367950439453125
1715093387618257000,11.3902568359375,-0.534881591796875,-15.016220092773438,2.3048553466796875
1715093387628236300,11.400236328125,-2.478973388671875,-11.178314208984375,4.119659423828125
1715093387638185000,11.41018505859375,-4.05914306640625,-8.27655029296875,4.60089111328125
1715093387648164000,11.4201640625,-3.9777374267578125,-5.8177032470703125,4.0885467529296875
1715093387658143500,11.4301435546875,-2.828521728515625,-4.9988861083984375,1.5004119873046875
1715093387668092200,11.440092041015625,-1.734375,-5.22393798828125,-1.0973052978515625
1715093387678071600,11.450071533203126,-1.72479248046875,-6.200775146484375,-4.7628173828125
1715093387688050700,11.46005078125,-2.5507965087890625,-8.06585693359375,-7.5999603271484375
1715093387697999400,11.469999267578125,-3.3169403076171875,-10.9915771484375,-10.003738403320312
1715093387707978800,11.479978759765626,-3.74310302734375,-14.211776733398438,-10.7626953125
1715093387717958000,11.4899580078125,-3.2139892578125,-17.410430908203125,-10.77227783203125
1715093387727906600,11.499906494140625,-2.9290771484375,-20.822158813476562,-9.955841064453125
1715093387737886000,11.509885986328126,-3.4342498779296875,-23.93701171875,-6.8625335693359375
1715093387747865000,11.519864990234375,-3.5826873779296875,-24.418258666992188,-0.7764739990234375
1715093387757813800,11.529813720703125,-5.6057891845703125,-21.825332641601562,4.90496826171875
1715093387767793200,11.539793212890626,-9.118087768554688,-17.180587768554688,7.50506591796875
1715093387777772300,11.549772216796875,-11.335113525390625,-11.494354248046875,11.005386352539062
1715093387787721200,11.55972119140625,-7.8228302001953125,-7.9269866943359375,12.525711059570312
1715093387797700400,11.569700439453126,-4.657684326171875,-5.4633636474609375,11.460281372070312
1715093387807679500,11.579679443359375,-3.060760498046875,-4.4194793701171875,8.50823974609375
1715093387817628400,11.58962841796875,-1.4590301513671875,-3.854461669921875,7.1339569091796875
1715093387827607600,11.599607666015626,-0.4702301025390625,-4.86480712890625,5.6950531005859375
1715093387837587000,11.6095869140625,0.468292236328125,-6.1504974365234375,3.4971771240234375
1715093387847535600,11.61953564453125,1.3302154541015625,-7.172821044921875,1.150848388671875
1715093387857514800,11.6295146484375,2.7044830322265625,-7.5822296142578125,-0.805206298828125
1715093387867494100,11.639494140625,3.50653076171875,-7.8958740234375,-2.062164306640625
1715093387877473300,11.649473388671876,4.0524139404296875,-7.7043304443359375,-2.90252685546875
1715093387887452700,11.65945263671875,3.7459564208984375,-6.5527191162109375,-3.077301025390625
1715093387897401300,11.6694013671875,2.898406982421875,-5.2622528076171875,-2.864227294921875
1715093387907380500,11.67938037109375,1.8162384033203125,-4.5248260498046875,-2.4069366455078125
1715093387917359900,11.68935986328125,0.8130645751953125,-4.3045654296875,-1.386993408203125
1715093387927308500,11.69930859375,0.149871826171875,-4.4530029296875,-0.678314208984375
1715093387937287700,11.70928759765625,-0.3720703125,-4.816925048828125,-0.1731414794921875
1715093387947267000,11.71926708984375,-0.4702301025390625,-5.2167510986328125,0.1285247802734375
1715093387957215700,11.7292158203125,-0.113494873046875,-5.6237640380859375,0.40625
1715093387967195000,11.73919482421875,0.6023712158203125,-6.5000457763671875,0.071075439453125
1715093387977174300,11.74917431640625,1.7635650634765625,-6.971710205078125,0.18359375
1715093387987123000,11.759123046875,2.5201263427734375,-7.3667449951171875,0.6241302490234375
1715093387997102000,11.76910205078125,2.623077392578125,-7.7043304443359375,1.5698394775390625
1715093388007081500,11.77908154296875,2.623077392578125,-7.46490478515625,3.8179931640625
1715093388017030100,11.789030029296875,2.907989501953125,-6.6963653564453125,6.89215087890625
1715093388027009500,11.799009521484376,2.474639892578125,-7.71630859375,8.87933349609375
1715093388036988700,11.80898876953125,1.935943603515625,-9.938125610351562,10.536117553710938
1715093388046937300,11.818937255859375,2.307037353515625,-12.497528076171875,12.559219360351562
1715093388056916700,11.828916748046876,2.1226959228515625,-15.849411010742188,11.776321411132812
1715093388066896000,11.838895751953125,-1.8804168701171875,-18.047286987304688,7.742095947265625
1715093388076844500,11.848844482421875,-2.9961090087890625,-19.483810424804688,1.9337615966796875
1715093388086824000,11.858823974609376,-1.3369293212890625,-20.032073974609375,-3.0533599853515625
1715093388096803000,11.868802978515625,2.6422271728515625,-17.484649658203125,-4.142730712890625
1715093388106751700,11.878751708984375,4.514495849609375,-10.54864501953125,-1.3295440673828125
1715093388116731100,11.888731201171876,4.1960601806640625,-6.042755126953125,2.776519775390625
1715093388126710300,11.898710205078125,2.1562042236328125,-7.6971435546875,2.8866424560546875
1715093388136659200,11.9086591796875,1.567230224609375,-10.225418090820312,2.4676666259765625
1715093388146638300,11.918638427734376,-1.983367919921875,-15.71533203125,4.3806304931640625
1715093388156617500,11.928617431640625,-5.5507354736328125,-24.181228637695312,8.778778076171875
1715093388166596900,11.938596923828126,-10.212234497070312,-26.762176513671875,6.4923248291015625
1715093388176576000,11.948575927734375,-9.515533447265625,-22.61541748046875,-3.709381103515625
1715093388186525000,11.95852490234375,-2.95062255859375,-13.912490844726562,-5.5409393310546875
1715093388196504000,11.968504150390626,0.8298187255859375,-7.3811187744140625,-1.0446319580078125
1715093388206483200,11.978483154296875,2.8313751220703125,-5.101837158203125,1.7063140869140625
1715093388216432000,11.98843212890625,3.3221893310546875,-3.5719451904296875,3.2242279052734375
1715093388226411300,11.998411376953126,2.7787017822265625,-2.492156982421875,3.73419189453125
1715093388236390700,12.008390625,1.1769866943359375,-2.4155426025390625,2.2665557861328125
1715093388246339300,12.01833935546875,-0.1110992431640625,-3.45941162109375,0.039947509765625
1715093388256318500,12.028318359375,-0.060821533203125,-4.9605712890625,-1.3941802978515625
1715093388266297900,12.0382978515625,-0.10870361328125,-7.259002685546875,-3.3909454345703125
1715093388276246500,12.04824658203125,0.5257568359375,-9.83038330078125,-4.6431121826171875
1715093388286225700,12.0582255859375,1.19134521484375,-11.951644897460938,-4.037384033203125
1715093388296205000,12.068205078125,-0.3313751220703125,-13.134384155273438,-3.362213134765625
1715093388306153700,12.07815380859375,-2.7207794189453125,-12.8111572265625,-3.76922607421875
1715093388316132900,12.0881328125,-2.5986785888671875,-10.44329833984375,-3.9823150634765625
1715093388326112300,12.0981123046875,-0.79583740234375,-7.5726470947265625,-2.96478271484375
1715093388336061000,12.10806103515625,0.7915191650390625,-6.0834503173828125,-2.9097137451171875
1715093388346040300,12.118040283203126,1.725250244140625,-5.2095794677734375,-2.7157745361328125
1715093388356019500,12.12801953125,1.70849609375,-5.1688690185546875,-2.538604736328125
1715093388365968100,12.137968017578125,0.8657379150390625,-5.4968719482421875,-1.6048736572265625
1715093388375947500,12.147947509765626,0.3031005859375,-5.999664306640625,0.83721923828125
1715093388385926700,12.1579267578125,0.1690216064453125,-6.92620849609375,3.082977294921875
1715093388395875300,12.167875244140625,-0.2643280029296875,-8.278945922851562,4.5434417724609375
1715093388405854700,12.177854736328126,-0.769500732421875,-9.705886840820312,5.144378662109375
1715093388415833900,12.187833740234375,-1.308197021484375,-10.699478149414062,5.2952117919921875
1715093388425813200,12.197813232421876,-1.89239501953125,-10.90777587890625,5.31915283203125
1715093388435762000,12.207761962890626,-2.3616485595703125,-10.342742919921875,5.175506591796875
1715093388445741000,12.217740966796875,-2.52685546875,-9.7034912109375,4.54583740234375
1715093388455720400,12.227720458984376,-2.7926025390625,-9.2821044921875,3.8467254638671875
1715093388465699600,12.237699462890625,-2.7902069091796875,-9.171981811523438,3.4397125244140625
1715093388475679000,12.247678955078126,-2.39996337890625,-9.274932861328125,3.142822265625
1715093388485627600,12.257627685546876,-1.5308685302734375,-9.171981811523438,3.22662353515625
1715093388495606800,12.267606689453125,-0.7431640625,-8.9541015625,3.638427734375
1715093388505586200,12.277586181640626,-0.10870361328125,-8.669189453125,3.93292236328125
1715093388515534800,12.287534912109376,0.688568115234375,-8.56146240234375,3.73419189453125
1715093388525514000,12.297513916015625,2.307037353515625,-8.484848022460938,3.1739501953125
1715093388535493400,12.307493408203126,4.038055419921875,-8.020370483398438,2.1516265869140625
1715093388545442000,12.317442138671876,5.115447998046875,-7.7402496337890625,1.383087158203125
1715093388555421200,12.327421142578125,4.502532958984375,-7.1752166748046875,-0.2042694091796875
1715093388565400600,12.337400634765626,2.96783447265625,-6.787353515625,-0.7118377685546875
1715093388575349200,12.347349365234376,1.081207275390625,-7.0650787353515625,-0.065399169921875
1715093388585328600,12.35732861328125,-0.1422271728515625,-7.9724884033203125,1.4261932373046875
1715093388595277300,12.36727734375,-0.1422271728515625,-9.760955810546875,3.305633544921875
1715093388605256400,12.37725634765625,0.556884765625,-11.6475830078125,3.5498504638671875
1715093388615235800,12.38723583984375,1.349365234375,-12.466400146484375,2.8387603759765625
1715093388625184500,12.3971845703125,2.0245208740234375,-12.231765747070312,4.2513427734375
1715093388635163600,12.40716357421875,1.7922821044921875,-11.209442138671875,5.9823455810546875
1715093388645143000,12.41714306640625,0.57843017578125,-9.945297241210938,6.1547393798828125
1715093388655091700,12.427091796875,-0.2906646728515625,-8.683563232421875,5.3478851318359375
1715093388665070800,12.43707080078125,-0.9035797119140625,-7.3667449951171875,4.426116943359375
1715093388675050200,12.44705029296875,-2.2610931396484375,-6.67242431640625,2.52752685546875
1715093388684999000,12.4569990234375,-3.6233978271484375,-7.6301116943359375,0.336822509765625
1715093388694978300,12.466978271484376,-3.7814178466796875,-8.93255615234375,-1.6264190673828125
1715093388704957400,12.47695751953125,-3.30975341796875,-10.93890380859375,-4.08526611328125
1715093388714936600,12.4869365234375,-3.8197174072265625,-13.318740844726562,-6.457916259765625
1715093388724885500,12.496885498046876,-4.7319183349609375,-14.98748779296875,-7.79388427734375
1715093388734864600,12.50686474609375,-4.7079620361328125,-17.71209716796875,-9.211257934570312
1715093388744843800,12.51684375,-4.5858612060546875,-21.403961181640625,-10.812973022460938
1715093388754823200,12.5268232421875,-5.0455474853515625,-23.822097778320312,-9.879226684570312
1715093388764802300,12.53680224609375,-4.9761199951171875,-23.096649169921875,-5.1961822509765625
1715093388774751200,12.546751220703126,-4.88275146484375,-19.538864135742188,0.6025848388671875
1715093388784730400,12.55673046875,-5.1461029052734375,-15.933197021484375,4.076568603515625
1715093388794709500,12.56670947265625,-5.6800079345703125,-10.007553100585938,7.9982757568359375
1715093388804658400,12.576658447265626,-7.01837158203125,-7.950927734375,9.20733642578125
1715093388814637600,12.586637451171875,-6.896270751953125,-7.6779937744140625,10.842575073242188
1715093388824617000,12.596616943359376,-3.92266845703125,-7.0962066650390625,10.988632202148438
1715093388834565600,12.606565673828126,-2.088714599609375,-6.6197509765625,9.34381103515625
1715093388844544800,12.616544677734375,-2.3472900390625,-6.65087890625,6.96636962890625
1715093388854524200,12.626524169921876,-1.76788330078125,-6.80889892578125,5.290435791015625
1715093388864472800,12.636472900390626,-0.407989501953125,-6.7945404052734375,3.6887054443359375
1715093388874452000,12.646451904296875,1.3373870849609375,-7.0219879150390625,1.6081390380859375
1715093388884401000,12.65640087890625,3.3078155517578125,-7.0004425048828125,0.0950164794921875
1715093388894380000,12.666380126953126,3.71722412109375,-6.6532745361328125,-0.582550048828125
1715093388904359200,12.676359130859375,3.405975341796875,-6.105010986328125,-1.339111328125
1715093388914308000,12.68630810546875,2.8289794921875,-5.2215423583984375,-1.9161224365234375
1715093388924287200,12.696287353515626,2.146636962890625,-4.467376708984375,-2.483551025390625
1715093388934266600,12.7062666015625,1.3900604248046875,-4.5966644287109375,-2.6583251953125
1715093388944215300,12.71621533203125,0.8920745849609375,-4.807342529296875,-2.8187255859375
1715093388954194400,12.7261943359375,0.384490966796875,-5.2454833984375,-2.969573974609375
1715093388964173800,12.736173828125,0.0852203369140625,-5.566314697265625,-2.897735595703125
1715093388974122500,12.74612255859375,0.28155517578125,-5.745880126953125,-2.7325439453125
1715093388984101600,12.7561015625,0.626312255859375,-5.6070098876953125,-2.3758087158203125
1715093388994081000,12.7660810546875,1.26556396484375,-5.82489013671875,-2.5290374755859375
1715093389004060200,12.77606005859375,1.8234100341796875,-6.1145782470703125,-1.449249267578125
1715093389014008800,12.7860087890625,2.338165283203125,-6.8232574462890625,-0.2042694091796875
1715093389023988200,12.79598828125,2.474639892578125,-7.4936370849609375,1.5482940673828125
1715093389033967400,12.80596728515625,2.3453521728515625,-7.0554962158203125,4.763702392578125
1715093389043946800,12.81594677734375,1.9766387939453125,-6.6580657958984375,6.760467529296875
1715093389053895400,12.8258955078125,1.406829833984375,-7.723480224609375,7.8618011474609375
1715093389063874600,12.83587451171875,0.8298187255859375,-10.32598876953125,9.623931884765625
1715093389073854000,12.84585400390625,1.6773681640625,-13.14874267578125,10.160232543945312
1715093389083802600,12.855802734375,1.9120025634765625,-15.444778442382812,7.689422607421875
1715093389093782000,12.865781982421876,2.1131134033203125,-16.87652587890625,4.562591552734375
1715093389103761200,12.87576123046875,1.349365234375,-19.136642456054688,1.9983978271484375
1715093389113740300,12.885740234375,1.65582275390625,-19.876449584960938,0.7965087890625
1715093389123689200,12.895689208984376,5.40753173828125,-16.555694580078125,1.351959228515625
1715093389133668400,12.90566845703125,3.28387451171875,-11.317184448242188,2.2521820068359375
1715093389143647500,12.9156474609375,0.8920745849609375,-8.9110107421875,4.4213409423828125
1715093389153596400,12.925596435546876,0.5975799560546875,-9.349151611328125,6.39654541015625
1715093389163575600,12.935575439453125,-1.6433868408203125,-10.88623046875,7.1339569091796875
1715093389173524200,12.945524169921875,-4.2937774658203125,-16.079254150390625,5.3694305419921875
1715093389183503600,12.955503662109376,-8.02154541015625,-22.802169799804688,5.197052001953125
1715093389193482800,12.965482666015625,-12.795578002929688,-26.154052734375,1.7853240966796875
