time,seconds_elapsed,z,y,x
1713358288884441900,0.11844189453125,9.228683471679688,6.9457855224609375,-0.074981689453125
1713358288894404000,0.128404052734375,9.604568481445312,6.1365509033203125,-0.359893798828125
1713358288904373000,0.138373046875,10.705902099609375,5.3081512451171875,-0.4700164794921875
1713358288914361300,0.148361328125,12.192703247070312,4.3025970458984375,-0.3096160888671875
1713358288924339000,0.1583388671875,12.999542236328125,4.19964599609375,0.16204833984375
1713358288934318000,0.168318115234375,12.9827880859375,3.5053253173828125,0.13092041015625
1713358288944297500,0.17829736328125,12.513519287109375,3.625030517578125,0.3176727294921875
1713358288954276600,0.188276611328125,11.656402587890625,3.8740234375,0.358367919921875
1713358288964256000,0.198256103515625,11.383468627929688,4.44384765625,0.5810394287109375
1713358288974235100,0.208235107421875,10.945327758789062,4.6042633056640625,0.691162109375
1713358288984214300,0.21821435546875,10.607742309570312,4.802978515625,0.8611602783203125
1713358288994163200,0.2281630859375,10.1719970703125,4.606658935546875,0.8084869384765625
1713358289004142300,0.238142333984375,9.985244750976562,4.0966949462890625,0.853973388671875
1713358289014121700,0.248121826171875,10.078628540039062,3.974578857421875,0.91143798828125
1713358289024070400,0.2580703125,10.009185791015625,3.8644561767578125,0.70074462890625
1713358289034049500,0.268049560546875,9.860748291015625,3.8429107666015625,0.45892333984375
1713358289044029000,0.27802880859375,9.62371826171875,3.761505126953125,0.197967529296875
1713358289053977600,0.2879775390625,9.11614990234375,3.476593017578125,0.047119140625
1713358289063956700,0.297956787109375,8.7354736328125,3.514892578125,0.2554168701171875
1713358289073936100,0.30793603515625,8.304519653320312,3.634613037109375,0.346405029296875
1713358289083915300,0.317915283203125,7.8041229248046875,3.6082763671875,0.320068359375
1713358289093894700,0.327894775390625,7.4066925048828125,3.668121337890625,0.2865447998046875
1713358289103843300,0.33784326171875,6.891937255859375,3.08154296875,-0.0318756103515625
1713358289113822500,0.347822509765625,6.913482666015625,3.589111328125,0.22430419921875
1713358289123801900,0.3578017578125,6.4705657958984375,3.287445068359375,-0.2473602294921875
1713358289133750500,0.36775048828125,6.4657745361328125,2.609893798828125,-0.2473602294921875
1713358289143729700,0.377729736328125,6.4777374267578125,2.6074981689453125,-0.446075439453125
1713358289153709000,0.387708984375,6.8033599853515625,2.9019775390625,-0.8004150390625
1713358289163657700,0.39765771484375,6.774627685546875,2.9881744384765625,-1.1188507080078125
1713358289173637000,0.40763720703125,6.8632049560546875,3.1773223876953125,-1.650360107421875
1713358289183616300,0.4176162109375,6.9039154052734375,3.3856048583984375,-2.124420166015625
1713358289193565000,0.42756494140625,7.188812255859375,3.993743896484375,-2.4284820556640625
1713358289203544300,0.43754443359375,7.0475616455078125,3.5172882080078125,-2.4811553955078125
1713358289213523500,0.4475234375,7.325286865234375,2.7655181884765625,-2.1962432861328125
1713358289223472000,0.45747216796875,7.59344482421875,2.6290435791015625,-1.264892578125
1713358289233451500,0.467451416015625,7.4378204345703125,2.8157958984375,-0.7238006591796875
1713358289243430700,0.4774306640625,7.504852294921875,2.921142578125,-0.508331298828125
1713358289253379300,0.48737939453125,7.567108154296875,3.129425048828125,-0.656768798828125
1713358289263358700,0.497358642578125,8.12255859375,3.5843353271484375,-0.3119964599609375
1713358289273337900,0.507337890625,8.567886352539062,3.9985198974609375,-0.012725830078125
1713358289283286800,0.517286865234375,8.484085083007812,5.099853515625,-0.0390625
1713358289293266000,0.527265869140625,7.9453887939453125,5.3129425048828125,-0.0893402099609375
1713358289303214600,0.537214599609375,7.60540771484375,5.21478271484375,-0.2832794189453125
1713358289313194000,0.547194091796875,7.684417724609375,5.7941741943359375,-0.307220458984375
1713358289323173000,0.557173095703125,7.9094696044921875,5.863616943359375,-0.4484710693359375
1713358289333121800,0.567121826171875,7.9621429443359375,5.990509033203125,-0.6064910888671875
1713358289343101200,0.57710107421875,8.00762939453125,6.1341552734375,-0.752532958984375
1713358289353080300,0.587080322265625,7.8567962646484375,6.2801971435546875,-0.9919586181640625
1713358289363059700,0.597059814453125,7.478515625,6.414276123046875,-1.1763153076171875
1713358289373008400,0.60700830078125,7.3851470947265625,6.4645538330078125,-1.2505340576171875
1713358289382987500,0.616987548828125,7.837646484375,5.9881134033203125,-1.1787109375
1713358289392967000,0.626966796875,8.630126953125,6.2945709228515625,-1.05419921875
1713358289402915600,0.63691552734375,9.006011962890625,5.937835693359375,-1.1930694580078125
1713358289412894700,0.646894775390625,8.685195922851562,5.145355224609375,-1.18109130859375
1713358289422874000,0.6568740234375,10.270156860351562,5.9114990234375,-0.5178985595703125
1713358289432822800,0.66682275390625,10.84954833984375,5.822906494140625,-1.619232177734375
1713358289442802000,0.676802001953125,11.749771118164062,6.2945709228515625,-1.3462982177734375
1713358289452781300,0.68678125,10.895050048828125,7.106201171875,-0.9560394287109375
1713358289462730000,0.69672998046875,9.314865112304688,5.07830810546875,-0.1587677001953125
1713358289472709400,0.70670947265625,8.05792236328125,5.162109375,-1.628814697265625
1713358289482705200,0.716705078125,8.182418823242188,5.949798583984375,-3.1275787353515625
1713358289492653800,0.72665380859375,9.192764282226562,6.2586517333984375,-3.510650634765625
1713358289502633200,0.73663330078125,8.977294921875,7.04156494140625,-4.238494873046875
1713358289512612400,0.7466123046875,9.324447631835938,7.4677276611328125,-4.8849334716796875
1713358289522561300,0.756561279296875,10.2462158203125,7.503631591796875,-4.15948486328125
1713358289532540400,0.76654052734375,11.084182739257812,6.65130615234375,-0.898590087890625
1713358289542519600,0.77651953125,9.65484619140625,5.3273162841796875,-1.39178466796875
1713358289552468500,0.786468505859375,10.52154541015625,4.6377716064453125,-1.64556884765625
1713358289562447600,0.796447509765625,10.6173095703125,4.5779266357421875,-0.9656219482421875
1713358289572427000,0.806427001953125,10.31085205078125,4.2187957763671875,-0.1779327392578125
1713358289582375700,0.816375732421875,8.496047973632812,3.6537628173828125,0.2482452392578125
1713358289592354800,0.826354736328125,8.496047973632812,3.0983123779296875,-0.5155181884765625
1713358289602303500,0.836303466796875,10.231857299804688,2.95465087890625,-2.1603240966796875
1713358289612283000,0.846282958984375,11.780899047851562,3.318572998046875,-3.6878204345703125
1713358289622262000,0.856261962890625,12.503952026367188,3.7279815673828125,-4.98309326171875
1713358289632211000,0.8662109375,12.2525634765625,3.9027557373046875,-6.414825439453125
1713358289642190000,0.876190185546875,10.8280029296875,1.5396881103515625,-5.4571380615234375
1713358289652169200,0.886169189453125,9.008407592773438,-0.7779083251953125,-3.00787353515625
1713358289662148600,0.896148681640625,9.673995971679688,-0.3780670166015625,-2.3446807861328125
1713358289672097300,0.90609716796875,10.258193969726562,0.3689117431640625,-2.303985595703125
1713358289682076700,0.91607666015625,10.011581420898438,0.5269317626953125,-2.42608642578125
1713358289692055800,0.926055908203125,9.293319702148438,0.4383544921875,-2.3734130859375
1713358289702004500,0.93600439453125,8.754623413085938,0.761566162109375,-2.4763641357421875
1713358289711983900,0.94598388671875,8.0172119140625,0.972259521484375,-2.3542633056640625
1713358289721963000,0.955962890625,7.8137054443359375,1.1494293212890625,-1.96160888671875
1713358289731911700,0.96591162109375,8.235092163085938,1.427154541015625,-1.2218017578125
1713358289741891000,0.97589111328125,8.510421752929688,1.563629150390625,-0.9871673583984375
1713358289751870200,0.9858701171875,8.486480712890625,1.69769287109375,-0.7166290283203125
1713358289761819000,0.99581884765625,8.7666015625,1.965850830078125,-0.613677978515625
1713358289771798300,1.00579833984375,8.584640502929688,1.42236328125,0.0662841796875
1713358289781777400,1.01577734375,8.8839111328125,1.956268310546875,0.3344268798828125
1713358289791726300,1.025726318359375,7.842437744140625,2.018524169921875,1.6584320068359375
1713358289801705500,1.03570556640625,8.263809204101562,2.86846923828125,1.45013427734375
1713358289811684600,1.0456845703125,8.093826293945312,3.7495269775390625,1.6871490478515625
1713358289821633500,1.055633544921875,8.05792236328125,4.24273681640625,1.7254638671875
1713358289831612700,1.06561279296875,7.8137054443359375,4.2451324462890625,1.4597015380859375
1713358289841591800,1.075591796875,7.579071044921875,3.8189544677734375,1.222686767578125
1713358289851540700,1.085540771484375,7.2175445556640625,3.3473052978515625,0.906646728515625
1713358289861520000,1.095519775390625,6.8656005859375,3.2515411376953125,0.6241302490234375
1713358289871468500,1.105468505859375,6.7674407958984375,3.3257598876953125,0.5977935791015625
1713358289881448000,1.115447998046875,7.1169891357421875,3.306610107421875,0.631317138671875
1713358289891427000,1.125427001953125,7.5695037841796875,3.287445068359375,0.3224639892578125
1713358289901375700,1.135375732421875,7.8137054443359375,3.4646148681640625,0.1907806396484375
1713358289911355100,1.145355224609375,8.213531494140625,3.572357177734375,-0.25933837890625
1713358289921334300,1.155334228515625,8.208755493164062,3.9793701171875,-1.1020965576171875
1713358289931313700,1.165313720703125,8.421829223632812,4.66650390625,-1.834716796875
1713358289941262300,1.175262451171875,9.092208862304688,4.7790374755859375,-2.610443115234375
1713358289951241500,1.185241455078125,9.501617431640625,3.77825927734375,-3.2257537841796875
1713358289961220900,1.195220947265625,9.48486328125,1.9107818603515625,-3.2329254150390625
1713358289971169500,1.20516943359375,9.693161010742188,-0.0548553466796875,-3.208984375
1713358289981149000,1.21514892578125,10.787307739257812,-0.61749267578125,-3.594451904296875
1713358289991128000,1.225128173828125,12.5614013671875,-0.12188720703125,-3.817108154296875
1713358290001076700,1.23507666015625,13.789627075195312,0.201324462890625,-4.0469512939453125
1713358290011056000,1.24505615234375,13.521484375,0.380889892578125,-4.142730712890625
1713358290021035300,1.25503515625,13.255722045898438,0.984222412109375,-3.7117767333984375
1713358290030984000,1.26498388671875,13.540634155273438,1.934722900390625,-2.5146636962890625
1713358290040963300,1.27496337890625,13.4041748046875,2.9785919189453125,-1.4779815673828125
1713358290050942500,1.2849423828125,13.526275634765625,3.91473388671875,-0.647186279296875
1713358290060891100,1.29489111328125,10.337188720703125,0.9219818115234375,-1.2026519775390625
1713358290070870500,1.30487060546875,7.84722900390625,-1.764312744140625,-3.48431396484375
1713358290080849700,1.314849609375,7.0738983154296875,-1.711639404296875,-6.3501739501953125
1713358290090798600,1.324798583984375,5.982147216796875,-2.27667236328125,-8.030914306640625
1713358290100777700,1.33477783203125,3.231201171875,-4.1680908203125,-6.603973388671875
1713358290110756900,1.3447568359375,1.440338134765625,-3.5863037109375,-3.1994171142578125
1713358290120705800,1.354705810546875,0.7077178955078125,-3.433074951171875,1.5458984375
1713358290130685000,1.364684814453125,-0.2739105224609375,-2.48736572265625,7.39013671875
1713358290140633600,1.374633544921875,0.135498046875,-0.346954345703125,13.018905639648438
1713358290150613000,1.384613037109375,0.9303741455078125,-0.8569183349609375,15.089889526367188
1713358290160592100,1.394592041015625,2.812225341796875,-2.1402130126953125,17.3404541015625
1713358290170519000,1.40451904296875,4.0931243896484375,-3.6796722412109375,17.117782592773438
1713358290180498200,1.414498291015625,6.743499755859375,-3.84967041015625,15.626190185546875
1713358290190477300,1.424477294921875,8.000457763671875,-4.6780548095703125,13.461837768554688
1713358290200426200,1.43442626953125,9.4537353515625,-5.1569061279296875,12.939910888671875
1713358290210405400,1.4444052734375,9.618942260742188,-5.3939208984375,13.282272338867188
1713358290220384800,1.454384765625,13.176712036132812,-4.2399139404296875,15.982940673828125
1713358290230364000,1.464364013671875,14.5677490234375,-5.0347900390625,14.919906616210938
1713358290240312600,1.4743125,9.202346801757812,-6.160064697265625,7.25128173828125
1713358290250292000,1.4842919921875,7.8352508544921875,-3.749114990234375,6.6718902587890625
1713358290260271000,1.49427099609375,8.333251953125,1.3194122314453125,9.858566284179688
1713358290270219800,1.5042197265625,5.740325927734375,1.2427978515625,11.5943603515625
1713358290280199200,1.51419921875,2.3501434326171875,-0.3661041259765625,5.311981201171875
1713358290290178300,1.52417822265625,4.662933349609375,-6.0092315673828125,-8.294265747070312
1713358290300127000,1.534126953125,2.6374359130859375,-6.9118499755859375,-1.533050537109375
1713358290310106400,1.5441064453125,1.51934814453125,-4.2902069091796875,8.072494506835938
1713358290320082000,1.55408203125,8.555908203125,-1.7092437744140625,0.1069793701171875
1713358290330030600,1.564030517578125,10.064254760742188,-3.7060089111328125,-7.2887115478515625
1713358290340010000,1.574010009765625,2.6494140625,-6.6820068359375,-4.7580413818359375
1713358290349989000,1.583989013671875,3.0684051513671875,-2.566375732421875,3.9472808837890625
1713358290359937800,1.593937744140625,8.563095092773438,-3.1816864013671875,-3.975128173828125
1713358290369917200,1.603917236328125,11.651611328125,-3.93585205078125,-9.184921264648438
1713358290379896300,1.613896240234375,9.937362670898438,-1.9390869140625,6.1355743408203125
1713358290389845200,1.62384521484375,11.843154907226562,-0.0764007568359375,8.256851196289062
1713358290399824400,1.633824462890625,14.043426513671875,-2.4011688232421875,12.300643920898438
1713358290409773000,1.64377294921875,13.938079833984375,-1.9390869140625,17.452972412109375
1713358290419752400,1.65375244140625,10.26776123046875,-0.718048095703125,19.916610717773438
1713358290429731600,1.663731689453125,6.542388916015625,2.176544189453125,19.684371948242188
1713358290439694300,1.6736943359375,0.3964691162109375,1.1542205810546875,15.022857666015625
1713358290449673700,1.683673828125,-2.500518798828125,0.3784942626953125,11.03411865234375
1713358290459652900,1.69365283203125,-2.4454498291015625,0.7543792724609375,13.732391357421875
1713358290469601500,1.7036015625,-5.1700439453125,0.5413055419921875,16.445022583007812
1713358290479581000,1.713580810546875,-3.3959503173828125,-2.4753875732421875,13.899978637695312
1713358290489560000,1.72356005859375,-2.5819244384765625,-3.3181610107421875,13.87603759765625
1713358290499539500,1.73353955078125,-4.05914306640625,-3.6365814208984375,14.94384765625
1713358290509474600,1.743474609375,-7.12371826171875,-4.49371337890625,15.013275146484375
1713358290519454000,1.753453857421875,-7.7701568603515625,-7.64447021484375,16.406707763671875
1713358290529433000,1.76343310546875,-5.153289794921875,-9.94769287109375,14.357269287109375
1713358290539381800,1.7733818359375,-2.692047119140625,-11.456039428710938,12.001373291015625
1713358290549361200,1.783361083984375,-2.902740478515625,-11.501541137695312,12.173751831054688
1713358290559340300,1.79334033203125,-2.68487548828125,-9.318023681640625,14.733154296875
1713358290569289000,1.8032890625,-3.051177978515625,-9.042694091796875,15.516067504882812
1713358290579268400,1.813268310546875,-3.2283477783203125,-9.456893920898438,15.322128295898438
1713358290589247500,1.82324755859375,-3.240325927734375,-9.564620971679688,13.109893798828125
1713358290599196200,1.833196044921875,-6.4605255126953125,-11.259719848632812,11.60394287109375
1713358290609175600,1.843175537109375,-7.772552490234375,-13.871795654296875,10.282333374023438
1713358290619154700,1.85315478515625,-5.861968994140625,-14.805526733398438,6.0446014404296875
1713358290629103600,1.863103515625,-4.4206695556640625,-12.720184326171875,3.6456146240234375
1713358290639082800,1.873082763671875,-5.62255859375,-10.651596069335938,3.2649383544921875
1713358290649062000,1.883061767578125,-9.127670288085938,-10.766510009765625,2.6591949462890625
1713358290659010800,1.8930107421875,-10.085342407226562,-12.320358276367188,0.1955718994140625
1713358290668990000,1.902989990234375,-7.731842041015625,-14.192611694335938,-1.5689544677734375
1713358290678969300,1.91296923828125,-1.614654541015625,-18.952285766601562,-0.6160736083984375
1713358290688918000,1.92291796875,6.5136566162109375,-23.166091918945312,5.525054931640625
1713358290698897200,1.932897216796875,12.587738037109375,-23.360015869140625,8.601608276367188
1713358290708876500,1.94287646484375,2.4411163330078125,-24.322479248046875,13.164962768554688
1713358290718825200,1.9528251953125,0.7196807861328125,-22.316146850585938,12.370086669921875
1713358290728804400,1.962804443359375,3.2479705810546875,-19.131851196289062,13.449874877929688
1713358290738753300,1.972753173828125,-5.9433746337890625,-18.006576538085938,9.1546630859375
1713358290748732400,1.982732421875,-9.738189697265625,-17.518157958984375,3.4828033447265625
1713358290758711600,1.992711669921875,-11.4356689453125,-16.119949340820312,1.89544677734375
1713358290768660500,2.002660400390625,-11.014297485351562,-16.368942260742188,-1.4324951171875
1713358290778639600,2.0126396484375,-6.3815155029296875,-16.230087280273438,-1.27447509765625
1713358290788619000,2.022618896484375,-1.466217041015625,-15.679412841796875,2.76214599609375
1713358290798598100,2.03259814453125,1.56005859375,-16.404861450195312,4.7230072021484375
1713358290808546800,2.042546875,3.9781951904296875,-16.467117309570312,3.32000732421875
1713358290818526200,2.052526123046875,3.678924560546875,-17.080032348632812,2.683135986328125
1713358290828505300,2.06250537109375,4.777862548828125,-16.038543701171875,3.75335693359375
1713358290838454000,2.0724541015625,6.4729461669921875,-13.668289184570312,6.6575164794921875
1713358290848433400,2.082433349609375,10.349166870117188,-15.289169311523438,8.050949096679688
1713358290858412500,2.09241259765625,14.23016357421875,-18.822998046875,4.5554046630859375
1713358290868361200,2.102361328125,1.0453033447265625,-5.82489013671875,10.751602172851562
1713358290878340600,2.112340576171875,-17.220062255859375,-9.37548828125,7.8091278076171875
1713358290888319700,2.12231982421875,-3.257080078125,-3.8831787109375,4.926513671875
1713358290898268700,2.1322685546875,7.6700592041015625,-4.0076904296875,4.7014617919921875
1713358290908247800,2.142247802734375,4.50970458984375,-6.4713134765625,2.68792724609375
1713358290918227000,2.15222705078125,-2.32574462890625,-5.6381378173828125,1.9864349365234375
1713358290928175900,2.16217578125,-2.5723419189453125,-5.7386932373046875,1.5770263671875
1713358290938155000,2.172155029296875,-1.645782470703125,-6.9477691650390625,1.9481201171875
1713358290948134100,2.182134033203125,5.7786407470703125,-5.8919219970703125,1.8619384765625
1713358290958083000,2.1920830078125,4.3756256103515625,-5.1473236083984375,2.6304779052734375
1713358290968062200,2.202062255859375,1.4954071044921875,-8.669189453125,1.677581787109375
1713358290978041600,2.21204150390625,-0.9969635009765625,-5.693206787109375,4.4189453125
1713358290987990300,2.221990234375,10.08819580078125,-8.843978881835938,1.68475341796875
1713358290997969400,2.231969482421875,-3.7215576171875,-8.944534301757812,-0.620849609375
1713358291007918000,2.24191796875,-0.048858642578125,-4.8863525390625,-5.859375
1713358291017899000,2.25189892578125,9.829620361328125,-5.9182586669921875,-3.9727325439453125
1713358291027878100,2.261878173828125,19.21728515625,-10.069808959960938,6.6455535888671875
1713358291037826800,2.271826904296875,9.757797241210938,-10.974807739257812,-1.9544219970703125
1713358291047806200,2.28180615234375,4.229583740234375,-9.071426391601562,-2.6870574951171875
1713358291057785300,2.291785400390625,8.970108032226562,-4.10345458984375,-2.0885009765625
1713358291067764700,2.3017646484375,-1.518890380859375,1.4295501708984375,4.055023193359375
1713358291077713400,2.31171337890625,-5.69677734375,1.9802093505859375,1.9864349365234375
1713358291087692500,2.321692626953125,-3.187652587890625,3.435882568359375,-1.4324951171875
1713358291097672000,2.331671875,-6.0750579833984375,4.278656005859375,4.09332275390625
1713358291107620600,2.34162060546875,-1.3249664306640625,2.4925689697265625,7.6511077880859375
1713358291117599700,2.351599853515625,4.028472900390625,-1.1442108154296875,4.0214996337890625
1713358291127579100,2.3615791015625,5.982147216796875,-2.9542388916015625,4.0382537841796875
1713358291137527800,2.37152783203125,5.2183990478515625,-2.0755615234375,3.2338104248046875
1713358291147507000,2.3815068359375,3.712432861328125,-2.3604736328125,1.9720611572265625
1713358291157486300,2.391486328125,0.382110595703125,-3.919097900390625,-0.60888671875
1713358291167435000,2.40143505859375,0.7029266357421875,-7.16802978515625,-7.4275665283203125
1713358291177414100,2.4114140625,3.6358184814453125,-8.314849853515625,-9.773895263671875
1713358291187393500,2.4213935546875,5.2782440185546875,-10.953262329101562,-11.145767211914062
1713358291197342200,2.43134228515625,5.6852569580078125,-12.226974487304688,-9.19927978515625
1713358291207321600,2.441321533203125,6.511260986328125,-11.11846923828125,-4.767608642578125
1713358291217300700,2.45130078125,5.548797607421875,-9.4185791015625,-0.7980194091796875
1713358291227249400,2.46124951171875,0.89447021484375,-9.8399658203125,1.6081390380859375
1713358291237228800,2.471228759765625,0.9088287353515625,-10.076980590820312,4.1914825439453125
1713358291247208000,2.4812080078125,-2.617828369140625,-10.32598876953125,6.75567626953125
1713358291257156600,2.491156494140625,-2.0863189697265625,-11.841506958007812,4.9193267822265625
1713358291267136000,2.501135986328125,-4.9282379150390625,-10.352325439453125,-0.101318359375
1713358291277115100,2.511115234375,-4.16448974609375,-11.396194458007812,-6.7069091796875
1713358291287063800,2.521063720703125,-2.1222381591796875,-14.5206298828125,-6.943939208984375
1713358291297043200,2.531043212890625,1.509765625,-18.140655517578125,-5.4810791015625
1713358291306991900,2.540991943359375,4.4426727294921875,-21.657745361328125,-1.7365570068359375
1713358291316971300,2.55097119140625,3.563995361328125,-22.462188720703125,0.6768035888671875
1713358291326950400,2.560950439453125,1.5265350341796875,-16.9842529296875,3.90179443359375
1713358291336899000,2.570899169921875,-2.955413818359375,-13.127197265625,6.2768402099609375
1713358291346878500,2.58087841796875,-0.54205322265625,-17.35296630859375,5.407745361328125
1713358291356857600,2.590857666015625,-1.8708343505859375,-17.230865478515625,4.22021484375
1713358291366837000,2.6008369140625,-2.1246185302734375,-14.398513793945312,3.094940185546875
1713358291376785700,2.61078564453125,-0.376861572265625,-12.2724609375,2.7406005859375
1713358291386764800,2.620764892578125,-1.3848114013671875,-12.013900756835938,2.185150146484375
1713358291396744200,2.630744140625,0.90643310546875,-11.8702392578125,-1.116455078125
1713358291406692900,2.64069287109375,1.66778564453125,-12.50469970703125,-2.991119384765625
1713358291416672000,2.650672119140625,-2.0551910400390625,-11.10888671875,-2.3734130859375
1713358291426651400,2.6606513671875,0.6909637451171875,-11.518295288085938,5.644775390625
1713358291436600000,2.67060009765625,4.72039794921875,-9.26055908203125,4.8498992919921875
1713358291446579200,2.6805791015625,1.5169525146484375,-6.3827362060546875,8.187408447265625
1713358291456558600,2.69055859375,0.923187255859375,-3.981353759765625,5.956024169921875
1713358291466507300,2.70050732421875,-2.167724609375,1.077606201171875,10.186569213867188
1713358291476503600,2.710503662109375,-3.9202728271484375,5.547576904296875,11.326217651367188
1713358291486483000,2.72048291015625,-5.871551513671875,5.9881134033203125,10.308670043945312
1713358291496431600,2.730431640625,-2.6322021484375,3.1246490478515625,6.06854248046875
1713358291506410800,2.74041064453125,0.3078765869140625,-1.721221923828125,5.0773468017578125
1713358291516390100,2.75039013671875,0.2911224365234375,-1.1059112548828125,5.5849151611328125
1713358291526338800,2.7603388671875,-1.0711822509765625,-2.3580780029296875,4.2274017333984375
1713358291536318000,2.77031787109375,-1.7918243408203125,-3.2654876708984375,2.8890380859375
1713358291546297300,2.78029736328125,-0.3960113525390625,-2.3844146728515625,2.6304779052734375
1713358291556246000,2.79024609375,-0.9083709716796875,-3.801788330078125,4.0382537841796875
1713358291566225400,2.800225341796875,-0.45587158203125,-7.1009979248046875,4.119659423828125
1713358291576174000,2.810174072265625,1.0716400146484375,-8.501602172851562,1.1005706787109375
1713358291586153200,2.8201533203125,2.6996917724609375,-8.046707153320312,-0.053436279296875
1713358291596132600,2.830132568359375,0.33660888671875,-4.795379638671875,-0.5322723388671875
1713358291606081300,2.840081298828125,2.041290283203125,5.4158935546875,-3.402923583984375
1713358291616060400,2.850060302734375,-2.4502410888671875,0.5748138427734375,7.236907958984375
1713358291626039800,2.860039794921875,4.18170166015625,-4.9318389892578125,8.1275634765625
1713358291635988500,2.869988525390625,7.1313629150390625,-7.0219879150390625,5.5537872314453125
1713358291645967600,2.879967529296875,3.008544921875,-12.042617797851562,5.9655914306640625
1713358291655947000,2.889947021484375,-2.3041839599609375,-18.741607666015625,4.30401611328125
1713358291665926100,2.899926025390625,-1.597900390625,-18.131072998046875,1.4214019775390625
1713358291675875000,2.909875,-0.4127655029296875,-15.777572631835938,-0.9177398681640625
1713358291685854200,2.919854248046875,-3.23553466796875,-17.075241088867188,-2.5457916259765625
1713358291695833300,2.929833251953125,-4.13336181640625,-17.578018188476562,-1.0230865478515625
1713358291705782300,2.9397822265625,-4.3679962158203125,-16.780746459960938,1.7709503173828125
1713358291715761400,2.949761474609375,-3.9466094970703125,-16.148681640625,3.7054595947265625
1713358291725740800,2.95974072265625,1.354156494140625,-17.305084228515625,3.3247833251953125
1713358291735689500,2.969689453125,5.9989013671875,-16.840606689453125,3.7581329345703125
1713358291745668600,2.979668701171875,8.424224853515625,-15.298736572265625,3.779693603515625
1713358291755648000,2.98964794921875,2.4147796630859375,-12.978759765625,1.3782958984375
1713358291765596700,2.9995966796875,-3.187652587890625,-12.70343017578125,0.8204498291015625
1713358291775575800,3.009575927734375,-4.1668853759765625,-13.21099853515625,-0.7333831787109375
1713358291785555200,3.01955517578125,-2.1605377197265625,-12.77764892578125,-1.3367156982421875
1713358291795503900,3.02950390625,-0.831756591796875,-13.558151245117188,-1.8682403564453125
1713358291805483000,3.03948291015625,1.98382568359375,-15.708145141601562,-3.07012939453125
1713358291815462400,3.04946240234375,-7.367919921875,-14.489501953125,-3.51544189453125
1713358291825411000,3.0594111328125,-9.292861938476562,-10.704269409179688,1.0095977783203125
1713358291835390500,3.069390380859375,-5.914642333984375,-10.378662109375,3.4612579345703125
1713358291845339100,3.079339111328125,-6.1732177734375,-8.736236572265625,4.6439971923828125
1713358291855318300,3.089318359375,-3.6928253173828125,-8.843978881835938,4.653564453125
1713358291865297700,3.099297607421875,-1.80859375,-9.29168701171875,3.9520721435546875
1713358291875246300,3.109246337890625,-1.3680572509765625,-9.7034912109375,2.3192291259765625
1713358291885225500,3.1192255859375,-3.029632568359375,-9.44012451171875,0.34161376953125
1713358291895204900,3.129204833984375,-3.178070068359375,-9.382659912109375,-3.266448974609375
1713358291905153500,3.139153564453125,-0.451080322265625,-9.878265380859375,-6.2065277099609375
1713358291915132700,3.149132568359375,1.572021484375,-9.677154541015625,-7.947113037109375
1713358291925112000,3.159112060546875,2.421966552734375,-8.64764404296875,-9.721221923828125
1713358291935091200,3.16909130859375,1.112335205078125,-7.71868896484375,-9.058029174804688
1713358291945040100,3.1790400390625,-1.3034210205078125,-6.9070587158203125,-5.938385009765625
1713358291955019300,3.189019287109375,-2.6896514892578125,-6.27978515625,-2.2872161865234375
1713358291964998400,3.198998291015625,-2.5675506591796875,-4.9055023193359375,0.516387939453125
1713358291974947300,3.208947265625,-2.4215087890625,4.386383056640625,3.8850250244140625
1713358291984926500,3.218926513671875,-4.7869720458984375,0.127105712890625,3.62884521484375
1713358291994905600,3.228905517578125,-1.672119140625,-1.97979736328125,3.231414794921875
1713358292004854500,3.2388544921875,1.1506500244140625,-4.3380889892578125,1.1364898681640625
1713358292014833700,3.248833740234375,1.4690704345703125,-7.5151824951171875,-0.5178985595703125
1713358292024813000,3.25881298828125,0.75799560546875,-7.3451995849609375,-0.92730712890625
1713358292034761700,3.26876171875,0.097198486328125,-4.690032958984375,0.1548614501953125
1713358292044740900,3.278740966796875,-0.1925048828125,-1.266326904296875,1.6488494873046875
1713358292054720300,3.28872021484375,-0.94189453125,0.306671142578125,0.5235748291015625
1713358292064669000,3.2986689453125,-0.537261962890625,0.4742584228515625,0.346405029296875
1713358292074648000,3.30864794921875,-1.7894439697265625,-3.2152099609375,1.4405517578125
1713358292084627500,3.31862744140625,-3.96337890625,-13.227752685546875,-0.994354248046875
1713358292094576000,3.328576171875,-3.5491790771484375,-27.628875732421875,-3.941619873046875
1713358292104555300,3.33855517578125,-2.51727294921875,-32.594451904296875,1.335205078125
1713358292114534700,3.34853466796875,-1.2938385009765625,-22.52923583984375,0.377532958984375
1713358292124483300,3.3584833984375,0.118743896484375,-12.112060546875,-0.613677978515625
1713358292134462700,3.368462646484375,-1.11187744140625,-13.39056396484375,2.587371826171875
1713358292144411400,3.378411376953125,-2.91949462890625,-13.445632934570312,0.6073760986328125
1713358292154390500,3.388390625,-3.029632568359375,-13.141555786132812,-0.398193359375
1713358292164370000,3.398369873046875,-3.345672607421875,-11.740951538085938,0.104583740234375
1713358292174318600,3.408318603515625,-1.9115447998046875,-11.338729858398438,0.863555908203125
1713358292184297700,3.418297607421875,-0.4534759521484375,-10.488784790039062,1.435760498046875
1713358292194277000,3.428277099609375,0.7364501953125,-9.957275390625,1.7278594970703125
1713358292204225800,3.438225830078125,2.2926788330078125,-8.638076782226562,2.908203125
1713358292214205000,3.448204833984375,4.303802490234375,-7.39068603515625,3.7772979736328125
1713358292224184300,3.458184326171875,6.2814178466796875,-6.7418670654296875,2.649627685546875
1713358292234163500,3.46816357421875,4.6749114990234375,-5.9326171875,1.3591461181640625
1713358292244112400,3.4781123046875,0.796295166015625,-3.5671539306640625,2.364715576171875
1713358292254091500,3.488091552734375,-0.5803680419921875,-2.9398651123046875,1.826019287109375
1713358292264070700,3.498070556640625,-1.46142578125,-4.785797119140625,2.2976837158203125
1713358292274019600,3.50801953125,-2.2706756591796875,-8.511184692382812,2.429351806640625
1713358292283998700,3.517998779296875,-2.30657958984375,-11.717010498046875,1.0311431884765625
1713358292293978000,3.52797802734375,-1.94744873046875,-13.606033325195312,0.16204833984375
1713358292303926800,3.5379267578125,-0.769500732421875,-14.178253173828125,-0.893798828125
1713358292313906000,3.547906005859375,1.090789794921875,-13.58209228515625,-1.2624969482421875
1713358292323885300,3.55788525390625,1.3852691650390625,-12.528640747070312,-0.6232452392578125
1713358292333834000,3.567833984375,0.07086181640625,-11.242965698242188,0.3703460693359375
1713358292343813000,3.577813232421875,-1.1501922607421875,-10.333160400390625,0.7151031494140625
1713358292353792500,3.58779248046875,-2.3305206298828125,-10.002761840820312,1.23944091796875
1713358292363741200,3.5977412109375,-2.6633148193359375,-9.454498291015625,1.9145965576171875
1713358292373720300,3.60772021484375,-3.19244384765625,-8.8367919921875,1.656036376953125
1713358292383699700,3.61769970703125,-3.0966644287109375,-7.8216400146484375,0.1285247802734375
1713358292393648400,3.6276484375,-3.7191619873046875,-7.8048858642578125,-1.908935546875
1713358292403627800,3.637627685546875,-4.8707733154296875,-8.822418212890625,-3.8386688232421875
1713358292413607000,3.64760693359375,-4.5379791259765625,-10.943679809570312,-5.871337890625
1713358292423555600,3.6575556640625,-3.6545257568359375,-14.113601684570312,-7.64544677734375
1713358292433535000,3.667534912109375,-3.3384857177734375,-17.30987548828125,-9.1466064453125
1713358292443483600,3.677483642578125,-2.775848388671875,-19.244384765625,-7.61431884765625
1713358292453462800,3.687462890625,-1.79901123046875,-19.07440185546875,-3.6495208740234375
1713358292463442200,3.697442138671875,-2.0982818603515625,-17.429580688476562,0.02557373046875
1713358292473390800,3.707390869140625,-4.5379791259765625,-16.287551879882812,1.53631591796875
1713358292483370000,3.717369873046875,-6.855560302734375,-15.428024291992188,3.5139312744140625
1713358292493349400,3.727349365234375,-8.904998779296875,-13.74969482421875,6.4947052001953125
1713358292503328500,3.73732861328125,-11.203445434570312,-11.920516967773438,6.262481689453125
1713358292513277200,3.747277099609375,-10.439682006835938,-9.97882080078125,5.92010498046875
1713358292523256600,3.757256591796875,-7.4900360107421875,-9.064239501953125,4.3447265625
1713358292533235700,3.767235595703125,-2.5029144287109375,-8.640457153320312,3.770111083984375
1713358292543184600,3.7771845703125,1.6630096435546875,-8.38189697265625,3.0231170654296875
1713358292553163800,3.787163818359375,3.626251220703125,-8.168807983398438,2.7262420654296875
1713358292563143000,3.797142822265625,4.10748291015625,-7.903045654296875,1.6392669677734375
1713358292573091800,3.807091796875,3.5759735107421875,-7.4673004150390625,1.0886077880859375
1713358292583071000,3.817071044921875,2.5943450927734375,-7.278167724609375,0.55230712890625
1713358292593050400,3.82705029296875,2.6206817626953125,-6.13134765625,1.045501708984375
1713358292602999000,3.8369990234375,1.9239654541015625,-5.36041259765625,0.9569244384765625
1713358292612978200,3.846978271484375,1.1817626953125,-4.934234619140625,0.123748779296875
1713358292622957600,3.85695751953125,0.3174591064453125,-4.4290618896484375,-0.244964599609375
1713358292632906200,3.86690625,-0.1326446533203125,-4.383575439453125,-0.3790435791015625
1713358292642885400,3.876885498046875,-0.271514892578125,-4.986907958984375,-0.319183349609375
1713358292652864800,3.88686474609375,-0.2667236328125,-5.7602386474609375,-0.4221343994140625
1713358292662813400,3.8968134765625,-0.175750732421875,-6.3731536865234375,-0.80999755859375
1713358292672792600,3.90679248046875,0.2121124267578125,-6.7849578857421875,-1.1044769287109375
1713358292682772000,3.91677197265625,0.319854736328125,-7.1536712646484375,-1.16912841796875
1713358292692720600,3.926720703125,0.44195556640625,-7.259002685546875,-1.0302581787109375
1713358292702700000,3.936699951171875,0.5329437255859375,-7.1895751953125,-0.8291473388671875
1713358292712679200,3.94667919921875,0.5856170654296875,-7.0124053955078125,-0.59930419921875
1713358292722627800,3.9566279296875,0.848968505859375,-6.8543853759765625,-0.40777587890625
1713358292732607200,3.966607177734375,1.0357208251953125,-6.9333953857421875,0.197967529296875
1713358292742556000,3.976555908203125,1.282318115234375,-7.1225433349609375,1.265777587890625
1713358292752535000,3.98653515625,1.830596923828125,-7.3021087646484375,2.6783599853515625
1713358292762514400,3.996514404296875,2.3836517333984375,-7.531951904296875,4.541046142578125
1713358292772463000,4.006463134765625,2.697296142578125,-7.7522125244140625,7.01904296875
1713358292782442200,4.016442138671875,2.7978515625,-8.271759033203125,9.197769165039062
1713358292792422000,4.026421875,2.2184600830078125,-9.84234619140625,9.62872314453125
1713358292802401300,4.0364013671875,1.0716400146484375,-11.872634887695312,8.299942016601562
1713358292812350000,4.046349853515625,-0.6713409423828125,-14.127975463867188,5.3622589111328125
1713358292822329000,4.0563291015625,-2.2395477294921875,-16.026580810546875,1.3806915283203125
1713358292832308500,4.06630859375,-2.73992919921875,-17.202133178710938,-1.734161376953125
1713358292842257200,4.076257080078125,-2.924285888671875,-18.75836181640625,-6.065277099609375
1713358292852236300,4.086236328125,0.0804290771484375,-18.327407836914062,-8.4283447265625
1713358292862215700,4.096215576171875,2.802642822265625,-13.8885498046875,-2.8737945556640625
1713358292872164400,4.106164306640625,3.8345489501953125,-9.215072631835938,1.8715057373046875
1713358292882143700,4.116143798828125,2.579986572265625,-6.80889892578125,3.4780120849609375
1713358292892123000,4.126122802734375,0.9830474853515625,-9.358718872070312,4.4763946533203125
1713358292902071600,4.136071533203125,2.2304229736328125,-15.054534912109375,4.4021759033203125
1713358292912051000,4.146051025390625,0.5880126953125,-19.320999145507812,2.0462799072265625
1713358292922030000,4.156030029296875,-3.1493377685546875,-20.441482543945312,-6.1371002197265625
1713358292931978800,4.165978759765625,-6.178009033203125,-15.2197265625,-8.471450805664062
1713358292941958100,4.175958251953125,-7.5235443115234375,-10.026702880859375,-1.0350494384765625
1713358292951937300,4.185937255859375,-5.9601287841796875,-8.566238403320312,-0.8004150390625
1713358292961886000,4.195885986328125,-4.1046295166015625,-8.453720092773438,0.2266845703125
1713358292971865300,4.205865234375,-2.4669952392578125,-9.950088500976562,2.3814697265625
1713358292981844500,4.215844482421875,-2.464599609375,-11.9444580078125,3.6144866943359375
1713358292991793400,4.22579345703125,-3.367218017578125,-11.851089477539062,3.8922119140625
1713358293001772500,4.2357724609375,-3.0894927978515625,-10.318801879882812,3.537872314453125
1713358293011751700,4.245751708984375,-1.5859222412109375,-8.9852294921875,1.9600982666015625
1713358293021700600,4.25570068359375,0.42999267578125,-7.7833404541015625,-0.5226898193359375
1713358293031679700,4.2656796875,1.883270263671875,-7.3069000244140625,-2.7828216552734375
1713358293041628400,4.27562841796875,2.084381103515625,-7.70672607421875,-4.8681640625
1713358293051607800,4.28560791015625,1.2200775146484375,-8.554275512695312,-6.139495849609375
1713358293061587000,4.2955869140625,-0.1278533935546875,-9.234222412109375,-6.309478759765625
1713358293071566300,4.30556640625,-1.0089263916015625,-9.430557250976562,-4.8897247314453125
1713358293081515000,4.315514892578125,-1.5260772705078125,-9.004379272460938,-2.981536865234375
1713358293091494100,4.325494140625,-0.92034912109375,-8.298095703125,-1.9328765869140625
1713358293101473500,4.3354736328125,-0.7192230224609375,-7.67559814453125,-0.5897369384765625
1713358293111452700,4.34545263671875,-1.466217041015625,-7.6205291748046875,-0.5178985595703125
1713358293121401300,4.3554013671875,-2.1653289794921875,-7.8144683837890625,-0.8746337890625
1713358293131380700,4.365380615234375,-1.3584747314453125,-7.7210845947265625,-1.5162811279296875
1713358293141359900,4.37535986328125,-0.324188232421875,-7.3069000244140625,-1.9472503662109375
1713358293151308800,4.385308837890625,-0.21405029296875,-6.971710205078125,-2.17230224609375
1713358293161288000,4.395287841796875,-0.621063232421875,-7.06268310546875,-1.987945556640625
1713358293171267000,4.40526708984375,-1.3896026611328125,-7.553497314453125,-1.513885498046875
1713358293181216000,4.415216064453125,-1.856475830078125,-8.046707153320312,-0.7956390380859375
1713358293191195100,4.425195068359375,-1.80859375,-8.410614013671875,-0.2784881591796875
1713358293201174500,4.435174560546875,-1.518890380859375,-8.748199462890625,0.11895751953125
1713358293211123200,4.445123291015625,-0.9514617919921875,-9.253372192382812,0.621734619140625
1713358293221102300,4.455102294921875,-0.2379913330078125,-9.100143432617188,1.17718505859375
1713358293231051000,4.465051025390625,0.07086181640625,-8.427383422851562,2.6304779052734375
1713358293241030400,4.475030517578125,-0.4008026123046875,-7.606170654296875,2.417388916015625
1713358293251009500,4.485009521484375,-0.525299072265625,-7.1752166748046875,3.0805816650390625
1713358293260958200,4.494958251953125,-1.5907135009765625,-7.1800079345703125,2.2521820068359375
1713358293270937600,4.5049375,-2.426300048828125,-7.89825439453125,0.5547027587890625
1713358293280916700,4.514916748046875,-2.0001220703125,-8.037124633789062,0.9736785888671875
1713358293290865700,4.52486572265625,-1.2842559814453125,-8.398651123046875,1.62969970703125
1713358293300844800,4.5348447265625,-0.735992431640625,-9.114517211914062,2.015167236328125
1713358293310824000,4.544823974609375,-0.537261962890625,-9.468856811523438,2.8914337158203125
1713358293320772900,4.55477294921875,0.087615966796875,-9.875869750976562,3.01593017578125
1713358293330752000,4.564751953125,1.07403564453125,-10.05303955078125,2.5107574462890625
1713358293340700700,4.57470068359375,2.3405609130859375,-10.225418090820312,1.557861328125
1713358293350680000,4.58468017578125,3.578369140625,-9.897415161132812,0.9138336181640625
1713358293360659200,4.5946591796875,4.8137664794921875,-9.234222412109375,0.73187255859375
1713358293370638600,4.604638671875,5.2782440185546875,-8.168807983398438,1.6967315673828125
1713358293380587300,4.614587158203125,3.4131622314453125,-7.084228515625,3.0255126953125
1713358293390566400,4.62456640625,1.715667724609375,-6.5838470458984375,3.674346923828125
1713358293400545800,4.6345458984375,0.7915191650390625,-7.6947479248046875,4.3590850830078125
1713358293410494500,4.644494384765625,1.1506500244140625,-10.270919799804688,4.213043212890625
1713358293420473600,4.6544736328125,0.7340545654296875,-12.533432006835938,3.1643829345703125
1713358293430453000,4.664452880859375,0.853759765625,-14.166275024414062,2.0223388671875
1713358293440401700,4.674401611328125,2.1514129638671875,-14.477523803710938,2.06304931640625
1713358293450381000,4.684381103515625,1.4642791748046875,-13.579696655273438,3.315216064453125
1713358293460360200,4.694360107421875,-0.4438934326171875,-12.332321166992188,3.8371429443359375
1713358293470308900,4.704308837890625,-1.181304931640625,-10.826370239257812,2.860321044921875
1713358293480288300,4.714288330078125,-2.0240631103515625,-9.399429321289062,1.8547515869140625
1713358293490267400,4.724267333984375,-3.1397705078125,-8.465682983398438,0.9257965087890625
1713358293500216000,4.734216064453125,-3.3001708984375,-7.74981689453125,-0.07977294921875
1713358293510195500,4.744195556640625,-3.108642578125,-7.426605224609375,-1.82513427734375
1713358293520174600,4.754174560546875,-3.494110107421875,-8.149658203125,-4.8657684326171875
1713358293530123300,4.764123291015625,-4.265045166015625,-10.033889770507812,-7.50897216796875
1713358293540102700,4.7741025390625,-4.698394775390625,-13.100860595703125,-9.848114013671875
1713358293550081800,4.784081787109375,-3.7215576171875,-16.945953369140625,-13.729110717773438
1713358293560030700,4.79403076171875,-2.2730712890625,-20.661758422851562,-16.736221313476562
1713358293570009900,4.804009765625,-2.1222381591796875,-22.378387451171875,-15.565460205078125
1713358293579989000,4.813989013671875,-2.9793548583984375,-20.443878173828125,-9.788253784179688
1713358293589938000,4.82393798828125,-5.97210693359375,-17.874893188476562,-4.98309326171875
1713358293599917000,4.8339169921875,-9.086959838867188,-16.675399780273438,-2.177093505859375
1713358293609896400,4.843896484375,-10.858673095703125,-15.487884521484375,0.5714569091796875
1713358293619845000,4.85384521484375,-10.243362426757812,-13.766448974609375,3.9568634033203125
1713358293629824300,4.86382421875,-8.71826171875,-12.454421997070312,7.1243896484375
1713358293639803600,4.8738037109375,-8.196319580078125,-10.076980590820312,9.044540405273438
1713358293649752300,4.88375244140625,-6.0319671630859375,-8.386672973632812,9.415634155273438
1713358293659731500,4.8937314453125,-2.29461669921875,-7.342803955078125,7.7923736572265625
1713358293669710800,4.9037109375,1.90960693359375,-6.665252685546875,5.6806793212890625
1713358293679690000,4.91368994140625,4.947845458984375,-6.8591766357421875,3.9113616943359375
1713358293689638700,4.923638671875,6.3029632568359375,-6.3731536865234375,2.6424407958984375
1713358293699618000,4.9336181640625,5.385986328125,-6.1457061767578125,0.9688873291015625
1713358293709597200,4.94359716796875,3.3964080810546875,-5.7530517578125,-0.541839599609375
1713358293719545900,4.9535458984375,1.873687744140625,-5.4441986083984375,-1.513885498046875
1713358293729525200,4.963525146484375,0.68377685546875,-5.027618408203125,-2.356658935546875
1713358293739504400,4.97350439453125,0.183380126953125,-4.1848602294921875,-2.627197265625
1713358293749453300,4.983453369140625,0.350982666015625,-3.6461639404296875,-2.53143310546875
1713358293759432400,4.993432373046875,0.6933441162109375,-3.41632080078125,-1.8849945068359375
1713358293769381000,5.003381103515625,0.6861724853515625,-3.4091339111328125,-1.4636077880859375
1713358293779360500,5.013360595703125,0.6502532958984375,-3.6796722412109375,-1.3630523681640625
1713358293789339600,5.023339599609375,0.5808258056640625,-4.2925872802734375,-1.6312103271484375
1713358293799288300,5.033288330078125,0.80108642578125,-4.9414215087890625,-2.062164306640625
1713358293809267700,5.043267822265625,0.8082733154296875,-5.441802978515625,-2.114837646484375
1713358293819246800,5.053246826171875,1.2512054443359375,-5.832061767578125,-1.9496307373046875
1713358293829195500,5.063195556640625,1.275146484375,-6.1361236572265625,-1.386993408203125
1713358293839175000,5.0731748046875,1.38287353515625,-6.6197509765625,-0.3742523193359375
1713358293849154000,5.083154052734375,1.68695068359375,-7.4984283447265625,1.213104248046875
1713358293859103000,5.09310302734375,2.3525390625,-8.2669677734375,3.559417724609375
1713358293869082000,5.10308203125,2.9319305419921875,-9.164794921875,6.3510589599609375
1713358293879061200,5.113061279296875,2.71405029296875,-10.900588989257812,8.1275634765625
1713358293889010200,5.12301025390625,2.115509033203125,-13.299575805664062,8.9942626953125
1713358293898989300,5.1329892578125,1.0141754150390625,-15.6722412109375,8.302337646484375
1713358293908968700,5.14296875,-3.0655517578125,-17.771957397460938,5.0031280517578125
1713358293918917400,5.15291748046875,-3.4390411376953125,-18.423171997070312,1.045501708984375
1713358293928896500,5.162896484375,-0.4438934326171875,-17.381698608398438,-2.6248016357421875
1713358293938876000,5.1728759765625,1.9910125732421875,-14.973129272460938,-5.66064453125
1713358293948855000,5.18285498046875,4.3469085693359375,-12.128814697265625,-7.6598052978515625
1713358293958803700,5.1928037109375,4.5264739990234375,-9.586166381835938,-4.8897247314453125
1713358293968783000,5.202783203125,5.385986328125,-9.1217041015625,0.1428985595703125
1713358293978762200,5.21276220703125,5.814544677734375,-10.565399169921875,4.141204833984375
1713358293988711000,5.2227109375,5.8935546875,-13.457595825195312,5.074951171875
1713358293998690300,5.232690185546875,0.245635986328125,-19.526901245117188,1.8930511474609375
1713358294008669400,5.24266943359375,-7.571441650390625,-28.560226440429688,-2.7732391357421875
1713358294018618400,5.252618408203125,-16.91839599609375,-27.9927978515625,-4.015838623046875
1713358294028597500,5.262597412109375,-16.947128295898438,-17.824615478515625,-4.9328155517578125
1713358294038576600,5.27257666015625,-7.5331268310546875,-10.9915771484375,-1.4516448974609375
1713358294048525600,5.282525634765625,0.3485870361328125,-7.16802978515625,1.0048065185546875
1713358294058504700,5.292504638671875,3.4562530517578125,-4.6445465087890625,1.837982177734375
1713358294068484000,5.302484130859375,0.5760345458984375,-4.6972198486328125,3.1763458251953125
1713358294078432800,5.312432861328125,-0.7431640625,-5.0108489990234375,3.19549560546875
1713358294088412000,5.322411865234375,-1.075958251953125,-4.02923583984375,1.445343017578125
1713358294098360600,5.332360595703125,-0.6186676025390625,-2.451446533203125,0.463714599609375
1713358294108340000,5.342340087890625,0.6239166259765625,-3.1122589111328125,0.1021881103515625
1713358294118319000,5.352319091796875,2.1107177734375,-5.7099609375,-2.2560882568359375
1713358294128268000,5.36226806640625,1.11712646484375,-8.226272583007812,-6.520172119140625
1713358294138247200,5.3722470703125,-1.159759521484375,-10.51751708984375,-10.252731323242188
1713358294148226300,5.382226318359375,-3.05596923828125,-12.6507568359375,-11.27984619140625
1713358294158175200,5.39217529296875,-3.398345947265625,-13.795181274414062,-8.117095947265625
1713358294168154400,5.402154296875,-1.6362152099609375,-11.925308227539062,-4.4420013427734375
1713358294178133500,5.412133544921875,0.78912353515625,-8.231048583984375,-4.59283447265625
1713358294188082400,5.42208251953125,2.433929443359375,-5.547149658203125,-1.9687957763671875
1713358294198061600,5.4320615234375,2.3046417236328125,-4.1130218505859375,-0.3646697998046875
1713358294208041000,5.442041015625,0.9830474853515625,-3.770660400390625,-0.5657958984375
1713358294217989600,5.45198974609375,0.329437255859375,-3.981353759765625,-0.9656219482421875
1713358294227968800,5.46196875,-0.1182861328125,-4.5966644287109375,-0.3646697998046875
1713358294237948200,5.4719482421875,-0.905975341796875,-6.3683624267578125,0.41583251953125
1713358294247927300,5.48192724609375,-1.1142730712890625,-8.585403442382812,0.9521331787109375
1713358294257876000,5.4918759765625,-0.884429931640625,-10.819183349609375,1.7374267578125
1713358294267855400,5.50185546875,-0.9562530517578125,-12.248519897460938,2.4796295166015625
1713358294277834500,5.51183447265625,-1.2698974609375,-12.05938720703125,3.305633544921875
1713358294287783200,5.521783203125,-1.5380401611328125,-11.262115478515625,3.9951629638671875
1713358294297762600,5.531762451171875,-2.89794921875,-9.717849731445312,3.2601470947265625
1713358294307741700,5.54174169921875,-4.403900146484375,-9.116912841796875,1.763763427734375
1713358294317690600,5.551690673828125,-3.271453857421875,-8.927764892578125,0.6672210693359375
1713358294327669800,5.561669677734375,-1.8277435302734375,-8.750595092773438,-0.170745849609375
1713358294337649000,5.57164892578125,-0.9035797119140625,-8.760177612304688,-0.371856689453125
1713358294347597800,5.581597900390625,-0.4606475830078125,-9.016357421875,-0.6519775390625
1713358294357577000,5.591576904296875,-0.5492401123046875,-9.564620971679688,-0.1037139892578125
1713358294367556400,5.601556396484375,-0.4031982421875,-9.859115600585938,1.2993011474609375
1713358294377505000,5.611505126953125,0.468292236328125,-10.045867919921875,1.67279052734375
1713358294387484200,5.621484130859375,1.37091064453125,-9.801651000976562,0.8300323486328125
1713358294397463600,5.631463623046875,2.85052490234375,-9.145645141601562,0.6552581787109375
1713358294407412200,5.641412109375,4.038055419921875,-8.673980712890625,0.7294769287109375
1713358294417391400,5.651391357421875,5.000518798828125,-8.173599243164062,0.4493560791015625
1713358294427340300,5.66134033203125,5.089111328125,-7.64447021484375,0.91143798828125
1713358294437319400,5.6713193359375,3.8201751708984375,-6.7370758056640625,2.1731719970703125
1713358294447298600,5.681298583984375,1.3517608642578125,-6.2366790771484375,3.8155975341796875
1713358294457247500,5.69124755859375,-0.060821533203125,-7.098602294921875,5.110870361328125
1713358294467226600,5.7012265625,-0.271514892578125,-8.74102783203125,5.429290771484375
1713358294477206000,5.7112060546875,-0.0727996826171875,-10.254150390625,4.055023193359375
1713358294487154700,5.72115478515625,-0.3002471923828125,-11.367462158203125,2.3096466064453125
1713358294497133800,5.7311337890625,-0.388824462890625,-11.791229248046875,0.906646728515625
1713358294507113200,5.74111328125,-0.4606475830078125,-12.382598876953125,-0.3694610595703125
1713358294517092400,5.75109228515625,-0.3122100830078125,-12.91650390625,-0.582550048828125
1713358294527041000,5.761041015625,-0.8485107421875,-12.854263305664062,-1.042236328125
1713358294537020400,5.7710205078125,-2.7806396484375,-12.088119506835938,-2.1651153564453125
1713358294546999600,5.78099951171875,-4.55712890625,-10.977203369140625,-2.6343841552734375
1713358294556948200,5.7909482421875,-5.6656494140625,-10.076980590820312,-2.536224365234375
1713358294566927600,5.800927734375,-6.0319671630859375,-9.669967651367188,-3.455596923828125
1713358294576906800,5.81090673828125,-6.9154205322265625,-10.438507080078125,-5.871337890625
1713358294586855700,5.820855712890625,-7.286529541015625,-12.147964477539062,-8.497772216796875
1713358294596834800,5.830834716796875,-6.88189697265625,-14.666671752929688,-9.881622314453125
1713358294606814000,5.84081396484375,-5.4932708740234375,-17.53253173828125,-8.986190795898438
1713358294616763000,5.850762939453125,-4.0088653564453125,-19.644210815429688,-7.1211090087890625
1713358294626742000,5.860741943359375,-2.986541748046875,-19.967437744140625,-4.5712890625
1713358294636721200,5.87072119140625,-3.3624267578125,-18.574005126953125,-0.95843505859375
1713358294646670000,5.880670166015625,-5.289764404296875,-16.69696044921875,1.6536407470703125
1713358294656649200,5.890649169921875,-7.2745513916015625,-14.539779663085938,2.65679931640625
1713358294666628600,5.900628662109375,-7.846771240234375,-12.329925537109375,2.9536895751953125
1713358294676577300,5.910577392578125,-7.36553955078125,-10.108108520507812,3.2984466552734375
1713358294686556400,5.920556396484375,-6.64727783203125,-7.9844512939453125,3.1284637451171875
1713358294696535800,5.930535888671875,-6.1181488037109375,-6.559906005859375,1.457305908203125
1713358294706484500,5.940484375,-3.7335357666015625,-5.7506561279296875,-0.13482666015625
1713358294716463600,5.950463623046875,0.255218505859375,-5.772216796875,-0.170745849609375
1713358294726443000,5.960443115234375,3.7579345703125,-6.41864013671875,-0.022308349609375
1713358294736391700,5.9703916015625,5.232757568359375,-7.0267791748046875,0.2075347900390625
1713358294746370800,5.980370849609375,5.4362640380859375,-7.443359375,-0.1037139892578125
1713358294756319700,5.99031982421875,4.39239501953125,-7.457733154296875,-0.7285919189453125
1713358294766299000,6.000298828125,2.8313751220703125,-6.909454345703125,-0.7597198486328125
1713358294776278300,6.0102783203125,1.5001983642578125,-6.50244140625,-0.2928466796875
1713358294786227000,6.02022705078125,0.678985595703125,-6.3252716064453125,-0.719024658203125
1713358294796206000,6.0302060546875,-0.384033203125,-6.1026153564453125,-0.5442352294921875
1713358294806185500,6.040185546875,-1.24835205078125,-6.05950927734375,-0.1587677001953125
1713358294816164600,6.05016455078125,-1.75592041015625,-6.1193695068359375,0.0279693603515625
1713358294826144000,6.06014404296875,-1.6912689208984375,-6.1840057373046875,0.33203125
1713358294836092700,6.0700927734375,-1.138214111328125,-6.1935882568359375,0.31048583984375
1713358294846071800,6.08007177734375,-0.7120513916015625,-6.157684326171875,0.08782958984375
1713358294856051200,6.09005126953125,-0.3409423828125,-6.073883056640625,-0.1946868896484375
1713358294866000000,6.099999755859375,0.2863311767578125,-6.0451507568359375,-0.5322723388671875
1713358294875979000,6.10997900390625,0.9184112548828125,-6.2031707763671875,-0.6855010986328125
1713358294885928000,6.119927978515625,1.375701904296875,-6.4593505859375,-0.5322723388671875
1713358294895907000,6.129906982421875,1.8593292236328125,-6.708343505859375,0.145294189453125
1713358294905886200,6.13988623046875,2.2136688232421875,-7.098602294921875,1.2011260986328125
1713358294915835100,6.149835205078125,2.5201263427734375,-7.4673004150390625,2.22344970703125
1713358294925814300,6.159814208984375,2.517730712890625,-7.996429443359375,3.073394775390625
1713358294935793700,6.169793701171875,2.2783050537109375,-8.8056640625,3.8826446533203125
1713358294945742300,6.179742431640625,1.5265350341796875,-9.729827880859375,4.5769500732421875
1713358294955721500,6.189721435546875,0.288726806640625,-10.699478149414062,4.2321929931640625
1713358294965700900,6.199700927734375,-1.39678955078125,-11.523086547851562,2.596954345703125
1713358294975649500,6.2096494140625,-2.692047119140625,-12.382598876953125,0.6480712890625
1713358294985628700,6.219628662109375,-2.0695648193359375,-12.44964599609375,-0.6902923583984375
1713358294995608000,6.229608154296875,0.0014190673828125,-12.373031616210938,-2.4188995361328125
1713358295005556700,6.239556640625,3.1258544921875,-12.624420166015625,-3.75726318359375
1713358295015535900,6.249535888671875,6.0395965576171875,-12.219802856445312,-2.579315185546875
1713358295025515300,6.259515380859375,6.0731201171875,-11.0035400390625,1.4525299072265625
1713358295035464000,6.2694638671875,3.2072601318359375,-11.02508544921875,4.2010650634765625
1713358295045443000,6.279443115234375,0.7364501953125,-13.886154174804688,5.070159912109375
1713358295055392000,6.28939208984375,-1.8325347900390625,-17.858139038085938,3.6982879638671875
1713358295065371100,6.29937109375,-8.289688110351562,-23.465362548828125,-3.4795379638671875
1713358295075350500,6.3093505859375,-14.691787719726562,-27.71746826171875,-9.132247924804688
1713358295085329700,6.31932958984375,-13.32470703125,-19.553237915039062,-5.3948974609375
1713358295095278300,6.3292783203125,-5.586639404296875,-11.649978637695312,-2.849853515625
1713358295105257700,6.3392578125,-1.14300537109375,-8.137680053710938,-0.8866119384765625
1713358295115236900,6.34923681640625,0.990234375,-6.7682037353515625,1.3040771484375
1713358295125216300,6.35921630859375,0.87530517578125,-7.4457550048828125,3.0063629150390625
1713358295135165000,6.3691650390625,-0.1925048828125,-9.1336669921875,3.7150421142578125
1713358295145144000,6.37914404296875,-0.8556976318359375,-9.96685791015625,1.383087158203125
1713358295155123500,6.38912353515625,-1.94744873046875,-9.4066162109375,-0.4101715087890625
1713358295165072100,6.399072021484375,-1.803802490234375,-9.00677490234375,-2.7349395751953125
1713358295175051300,6.40905126953125,-0.8556976318359375,-9.289291381835938,-4.8131103515625
1713358295185030700,6.41903076171875,-0.46783447265625,-9.863906860351562,-6.2735595703125
1713358295194979300,6.428979248046875,-0.6402130126953125,-10.20147705078125,-6.5489044189453125
1713358295204958500,6.43895849609375,-1.063995361328125,-9.437728881835938,-4.480316162109375
1713358295214937900,6.448937744140625,0.3485870361328125,-7.85516357421875,-2.9791412353515625
1713358295224886500,6.458886474609375,-0.0560302734375,-6.998046875,-2.421295166015625
1713358295234866000,6.468865966796875,-0.4462890625,-6.7370758056640625,-1.81317138671875
1713358295244814600,6.478814697265625,-0.36248779296875,-6.9429779052734375,-2.9312591552734375
1713358295254793700,6.488793701171875,0.5496978759765625,-6.4880828857421875,-3.7117767333984375
1713358295264773000,6.498773193359375,1.6390533447265625,-5.832061767578125,-4.2408905029296875
1713358295274721800,6.5087216796875,2.1346588134765625,-5.3268890380859375,-4.396514892578125
1713358295284701000,6.518700927734375,2.17535400390625,-5.5974273681640625,-3.68304443359375
1713358295294680300,6.528680419921875,1.435546875,-6.9381866455078125,-3.077301025390625
1713358295304629000,6.53862890625,0.2480316162109375,-8.413009643554688,-2.2967987060546875
1713358295314608000,6.548608154296875,-0.5971221923828125,-9.696304321289062,-0.70465087890625
1713358295324587500,6.55858740234375,-0.9514617919921875,-10.838348388671875,0.7965087890625
1713358295334536200,6.5685361328125,-1.29144287109375,-11.582931518554688,2.31683349609375
1713358295344515600,6.578515625,-1.444671630859375,-12.1551513671875,3.92333984375
1713358295354494700,6.58849462890625,-1.1669464111328125,-12.121627807617188,4.720611572265625
1713358295364443400,6.598443359375,-0.6282501220703125,-11.187896728515625,5.2162017822265625
1713358295374422800,6.6084228515625,-0.283477783203125,-9.6292724609375,4.8546905517578125
1713358295384402000,6.61840185546875,-0.384033203125,-8.187957763671875,4.1364288330078125
1713358295394381300,6.62838134765625,-0.5755767822265625,-7.220703125,3.564208984375
1713358295404330000,6.638330078125,-0.6593780517578125,-7.1871795654296875,3.5402679443359375
1713358295414309000,6.64830908203125,-0.93231201171875,-7.9365692138671875,3.590545654296875
1713358295424288500,6.65828857421875,-1.3943939208984375,-8.707504272460938,3.7940521240234375
1713358295434237200,6.6682373046875,-1.286651611328125,-9.21746826171875,3.9688262939453125
1713358295444216300,6.67821630859375,-0.293060302734375,-9.792068481445312,3.4780120849609375
1713358295454195700,6.68819580078125,0.8872833251953125,-10.203872680664062,2.513153076171875
1713358295464144400,6.698144287109375,1.8880615234375,-10.031494140625,1.9361572265625
1713358295474123500,6.70812353515625,2.5416717529296875,-9.540679931640625,1.4716796875
1713358295484103000,6.71810302734375,3.1019134521484375,-8.673980712890625,1.107757568359375
1713358295494051600,6.728051513671875,3.5663909912109375,-8.005996704101562,0.5858154296875
1713358295504030700,6.73803076171875,2.845733642578125,-7.7091217041015625,0.6863861083984375
1713358295514010000,6.748010009765625,0.841796875,-7.4816741943359375,1.7996826171875
1713358295523958800,6.757958740234375,-0.1326446533203125,-7.689971923828125,2.549072265625
1713358295533938200,6.767938232421875,-0.6114959716796875,-8.25738525390625,2.7956695556640625
1713358295543917300,6.777917236328125,-0.3433380126953125,-8.729049682617188,2.6903228759765625
1713358295553866000,6.787865966796875,1.050079345703125,-8.810455322265625,2.0127716064453125
1713358295563845400,6.797845458984375,2.443511962890625,-8.798477172851562,1.1005706787109375
1713358295573794000,6.8077939453125,2.802642822265625,-8.88946533203125,0.5020294189453125
1713358295583773200,6.817773193359375,1.993408203125,-8.997207641601562,-0.678314208984375
1713358295593752600,6.827752685546875,1.461883544921875,-8.448928833007812,-2.114837646484375
1713358295603701200,6.837701171875,0.468292236328125,-8.125717163085938,-3.4603729248046875
1713358295613680400,6.847680419921875,-1.14300537109375,-8.391464233398438,-3.8961181640625
1713358295623659800,6.85765966796875,-2.4454498291015625,-9.064239501953125,-4.396514892578125
1713358295633608400,6.8676083984375,-3.2858123779296875,-10.0626220703125,-5.2464599609375
1713358295643587800,6.877587890625,-4.1525115966796875,-12.5765380859375,-7.482635498046875
1713358295653567000,6.88756689453125,-5.0455474853515625,-18.116714477539062,-10.654953002929688
1713358295663546000,6.897546142578125,-5.565093994140625,-24.777389526367188,-13.532791137695312
1713358295673495000,6.9074951171875,-7.1021728515625,-27.911392211914062,-12.826492309570312
1713358295683474200,6.91747412109375,-8.878662109375,-24.415863037109375,-6.0509033203125
1713358295693453600,6.92745361328125,-10.032669067382812,-20.836532592773438,-0.867462158203125
1713358295703402200,6.93740234375,-9.328781127929688,-18.143051147460938,4.150787353515625
1713358295713381400,6.94738134765625,-9.7333984375,-15.868560791015625,8.151504516601562
1713358295723360800,6.95736083984375,-9.529891967773438,-12.966781616210938,14.036453247070312
1713358295733309400,6.967309326171875,-7.9281768798828125,-9.950088500976562,17.201583862304688
1713358295743288600,6.97728857421875,-5.5291748046875,-7.996429443359375,14.0029296875
1713358295753268000,6.98726806640625,-1.9187164306640625,-6.3779449462890625,9.930389404296875
1713358295763216600,6.997216552734375,1.993408203125,-5.767425537109375,6.0924835205078125
1713358295773195800,7.00719580078125,5.180084228515625,-6.339630126953125,2.058258056640625
1713358295783175200,7.017175048828125,5.93426513671875,-7.330841064453125,-1.090118408203125
1713358295793123800,7.027123779296875,3.858489990234375,-7.8096771240234375,-3.2209625244140625
1713358295803103200,7.037103271484375,2.5727996826171875,-7.8144683837890625,-3.915283203125
1713358295813082400,7.047082275390625,2.591949462890625,-7.2518310546875,-3.077301025390625
1713358295823031000,7.057031005859375,1.287109375,-6.7945404052734375,-1.999908447265625
1713358295833010400,7.067010498046875,0.5137786865234375,-6.0188140869140625,-1.585723876953125
1713358295842989600,7.076989501953125,0.2647857666015625,-5.58306884765625,-1.418121337890625
1713358295852938200,7.086938232421875,0.5329437255859375,-5.7027740478515625,-1.1619415283203125
1713358295862917600,7.096917724609375,1.20330810546875,-6.09063720703125,-0.98956298828125
1713358295872866300,7.1068662109375,1.8114471435546875,-6.497650146484375,-1.195465087890625
1713358295882845400,7.116845458984375,2.041290283203125,-6.92620849609375,-1.4731903076171875
1713358295892824800,7.126824951171875,1.93115234375,-7.5080108642578125,-1.9687957763671875
1713358295902773500,7.1367734375,1.514556884765625,-8.09698486328125,-2.591278076171875
1713358295912753000,7.1467529296875,1.0357208251953125,-8.5638427734375,-2.801971435546875
1713358295922732000,7.15673193359375,0.4802703857421875,-8.779327392578125,-2.5074920654296875
1713358295932711200,7.166711181640625,0.2288818359375,-8.930160522460938,-1.9520263671875
1713358295942660000,7.17666015625,0.8130645751953125,-8.915802001953125,-1.2720794677734375
1713358295952639200,7.18663916015625,1.725250244140625,-8.681167602539062,-0.5849456787109375
1713358295962618400,7.196618408203125,2.3668975830078125,-8.331619262695312,0.1333160400390625
1713358295972567300,7.2065673828125,2.7475738525390625,-7.88629150390625,1.0526885986328125
1713358295982546400,7.21654638671875,2.7954559326171875,-7.5726470947265625,1.9122161865234375
1713358295992525800,7.22652587890625,2.46026611328125,-7.6133575439453125,2.68792724609375
1713358296002474500,7.236474609375,2.31182861328125,-8.073043823242188,3.1619873046875
1713358296012453600,7.24645361328125,1.7515869140625,-8.654830932617188,4.287261962890625
1713358296022433000,7.25643310546875,0.69573974609375,-9.71307373046875,4.392608642578125
1713358296032381700,7.266381591796875,-0.7623291015625,-11.166351318359375,3.5498504638671875
1713358296042360800,7.27636083984375,-1.6433868408203125,-12.49273681640625,2.1037445068359375
1713358296052340200,7.28634033203125,-2.6250152587890625,-13.50787353515625,-0.4053802490234375
1713358296062289000,7.296288818359375,-4.62896728515625,-13.967559814453125,-3.510650634765625
1713358296072268000,7.30626806640625,-5.0407562255859375,-12.84228515625,-4.8178863525390625
1713358296082247400,7.316247314453125,-2.9362640380859375,-10.237396240234375,-3.5345916748046875
1713358296092196000,7.326196044921875,-0.7455596923828125,-8.070648193359375,-0.8746337890625
1713358296102175500,7.336175537109375,0.298309326171875,-9.1336669921875,0.250640869140625
1713358296112154600,7.346154541015625,0.631103515625,-14.0369873046875,-1.5474090576171875
1713358296122103300,7.356103271484375,2.3716888427734375,-20.3529052734375,-5.188995361328125
1713358296132082700,7.366082763671875,3.59033203125,-22.680068969726562,-6.1993408203125
1713358296142061800,7.376061767578125,1.5217437744140625,-22.397552490234375,-6.3046875
1713358296152010500,7.386010498046875,-2.9290771484375,-17.700119018554688,-5.876129150390625
1713358296161990000,7.395989990234375,-4.8348541259765625,-11.238174438476562,-2.368621826171875
1713358296171969000,7.405968994140625,-3.462982177734375,-8.147262573242188,-0.398193359375
1713358296181917700,7.415917724609375,-1.6218414306640625,-8.195144653320312,1.2011260986328125
1713358296191897000,7.42589697265625,-0.9466705322265625,-10.2110595703125,3.1548004150390625
1713358296201845800,7.435845703125,-1.3728485107421875,-11.685882568359375,3.4780120849609375
1713358296211825200,7.4458251953125,-2.469390869140625,-11.02508544921875,2.735809326171875
1713358296221804300,7.45580419921875,-2.4765777587890625,-9.94769287109375,0.3703460693359375
1713358296231783400,7.465783447265625,-1.9594268798828125,-9.511947631835938,-2.89056396484375
1713358296241732400,7.475732421875,0.109161376953125,-9.131271362304688,-4.930419921875
1713358296251711500,7.48571142578125,2.3956298828125,-8.8487548828125,-6.5345306396484375
1713358296261691000,7.49569091796875,3.891998291015625,-8.760177612304688,-7.85614013671875
1713358296271670000,7.505669921875,4.4378814697265625,-8.180770874023438,-8.627059936523438
1713358296281618700,7.51561865234375,3.9829864501953125,-6.7274932861328125,-8.504959106445312
1713358296291598000,7.52559814453125,2.8840484619140625,-5.0778961181640625,-7.5017852783203125
1713358296301577200,7.5355771484375,2.2136688232421875,-4.860015869140625,-6.7978973388671875
1713358296311526000,7.54552587890625,1.3517608642578125,-5.425048828125,-5.718109130859375
1713358296321505300,7.55550537109375,0.4754791259765625,-6.411468505859375,-4.9447784423828125
1713358296331484400,7.565484375,0.00860595703125,-7.3715362548828125,-3.7764129638671875
1713358296341433000,7.57543310546875,-0.5205078125,-8.348373413085938,-2.49072265625
1713358296351412500,7.58541259765625,-1.24835205078125,-9.392242431640625,-1.133209228515625
1713358296361391600,7.5953916015625,-2.194061279296875,-10.254150390625,-0.31439208984375
1713358296371340300,7.60534033203125,-2.81414794921875,-10.630050659179688,0.0662841796875
1713358296381319700,7.615319580078125,-2.9841461181640625,-10.608505249023438,0.4373779296875
1713358296391268400,7.625268310546875,-2.7159881591796875,-10.2733154296875,1.0000152587890625
1713358296401247700,7.635247802734375,-2.0623779296875,-9.655609130859375,1.457305908203125
1713358296411227000,7.645226806640625,-1.327362060546875,-9.004379272460938,1.64166259765625
1713358296421175600,7.655175537109375,-0.714447021484375,-8.676376342773438,1.23944091796875
1713358296431155000,7.665155029296875,-0.3217926025390625,-8.64764404296875,0.5403289794921875
1713358296441134000,7.675134033203125,0.0948028564453125,-8.934951782226562,-0.31439208984375
1713358296451082800,7.685082763671875,0.415618896484375,-9.320419311523438,-1.1715240478515625
1713358296461062100,7.695062255859375,0.2791595458984375,-9.658004760742188,-2.145965576171875
1713358296471041300,7.705041259765625,-0.1589813232421875,-9.945297241210938,-2.916900634765625
1713358296480990000,7.714989990234375,-0.5061492919921875,-9.940521240234375,-3.0102691650390625
1713358296490969300,7.72496923828125,-0.937103271484375,-9.617294311523438,-2.6080474853515625
1713358296500948500,7.734948486328125,-1.0998992919921875,-9.253372192382812,-2.1651153564453125
1713358296510897400,7.7448974609375,-0.8604888916015625,-8.990020751953125,-1.82513427734375
1713358296520876500,7.75487646484375,-0.482208251953125,-8.8487548828125,-1.612060546875
1713358296530855700,7.764855712890625,-0.123077392578125,-8.810455322265625,-1.554595947265625
1713358296540835000,7.7748349609375,0.0852203369140625,-8.93255615234375,-1.52825927734375
1713358296550783700,7.78478369140625,0.1690216064453125,-9.116912841796875,-1.576141357421875
1713358296560763100,7.79476318359375,0.1211395263671875,-9.318023681640625,-1.576141357421875
1713358296570742300,7.8047421875,0.130706787109375,-9.744186401367188,-1.6623382568359375
1713358296580691000,7.81469091796875,-0.2523651123046875,-10.280487060546875,-1.7581024169921875
1713358296590670300,7.82467041015625,-1.24835205078125,-10.926925659179688,-1.659942626953125
1713358296600649500,7.8346494140625,-1.8636627197265625,-11.590118408203125,-1.4683990478515625
1713358296610598100,7.84459814453125,-1.87322998046875,-11.367462158203125,-1.3462982177734375
1713358296620577500,7.85457763671875,-2.0288543701171875,-10.04107666015625,-1.027862548828125
1713358296630556700,7.864556640625,-2.2132110595703125,-9.078598022460938,-1.0709686279296875
1713358296640505300,7.87450537109375,-2.1557464599609375,-8.755386352539062,-0.8602752685546875
1713358296650484700,7.884484619140625,-1.7487335205078125,-8.652435302734375,-0.7142333984375
1713358296660463900,7.8944638671875,-1.3369293212890625,-8.659622192382812,-0.8746337890625
1713358296670412800,7.904412841796875,-0.9514617919921875,-8.860733032226562,-1.4420623779296875
1713358296680392000,7.914391845703125,-0.4582672119140625,-9.222259521484375,-1.82513427734375
1713358296690371000,7.92437109375,0.3749237060546875,-9.578994750976562,-1.9735870361328125
1713358296700320000,7.934320068359375,0.8920745849609375,-9.516738891601562,-2.0286407470703125
1713358296710299100,7.944299072265625,0.870513916015625,-9.279708862304688,-2.26806640625
1713358296720278500,7.954278564453125,0.7555999755859375,-9.066635131835938,-2.33270263671875
1713358296730227200,7.964227294921875,0.329437255859375,-9.064239501953125,-2.241729736328125
1713358296740206300,7.974206298828125,-0.3265838623046875,-9.32281494140625,-2.062164306640625
1713358296750155000,7.984155029296875,-0.9179534912109375,-9.583786010742188,-1.597686767578125
1713358296760134400,7.994134521484375,-1.3513031005859375,-9.727432250976562,-0.9752044677734375
1713358296770113500,8.004113525390625,-1.571563720703125,-9.717849731445312,-0.37664794921875
1713358296780062500,8.0140625,-1.6649322509765625,-9.689117431640625,0.1596527099609375
1713358296790041600,8.02404150390625,-1.4925537109375,-9.631668090820312,0.516387939453125
1713358296800020700,8.034020751953125,-1.17413330078125,-9.4927978515625,0.6863861083984375
1713358296810000100,8.044000244140625,-0.862884521484375,-9.370697021484375,0.6887664794921875
1713358296819979300,8.053979248046875,-0.5444488525390625,-9.21746826171875,0.559478759765625
1713358296829928000,8.063927978515625,-0.2379913330078125,-9.030715942382812,0.5355377197265625
1713358296839907300,8.0739072265625,-0.048858642578125,-9.191131591796875,0.2745819091796875
1713358296849886500,8.083886474609375,-0.1374359130859375,-9.476043701171875,-0.096527099609375
1713358296859835400,8.09383544921875,-0.53009033203125,-9.674758911132812,-0.52508544921875
1713358296869814500,8.103814453125,-0.831756591796875,-9.849533081054688,-0.963226318359375
1713358296879763200,8.11376318359375,-0.980194091796875,-10.007553100585938,-1.4372711181640625
1713358296889742600,8.12374267578125,-1.09033203125,-9.96685791015625,-1.97119140625
1713358296899721700,8.1337216796875,-1.14300537109375,-9.818405151367188,-2.294403076171875
1713358296909670400,8.14367041015625,-1.1525726318359375,-9.610122680664062,-2.34228515625
1713358296919649800,8.15364990234375,-0.949066162109375,-9.37548828125,-2.430877685546875
1713358296929629000,8.16362890625,-0.534881591796875,-9.140853881835938,-2.478759765625
1713358296939577600,8.17357763671875,0.0205841064453125,-8.999588012695312,-2.6942291259765625
1713358296949557000,8.183556884765625,0.4132232666015625,-8.992416381835938,-3.05096435546875
1713358296959536000,8.1935361328125,0.657440185546875,-9.090576171875,-3.508270263671875
1713358296969485000,8.203485107421875,0.7077178955078125,-9.24859619140625,-3.8721771240234375
1713358296979464200,8.213464111328125,0.5113983154296875,-9.488006591796875,-4.0948486328125
1713358296989443300,8.223443359375,0.245635986328125,-9.612503051757812,-4.2145538330078125
1713358296999392300,8.233392333984375,-0.091949462890625,-9.528717041015625,-4.111602783203125
1713358297009371400,8.243371337890625,-0.3720703125,-9.37548828125,-3.762054443359375
1713358297019350800,8.253350830078125,-0.5971221923828125,-9.241409301757812,-3.3119354248046875
1713358297029299500,8.263299560546875,-0.642608642578125,-9.210281372070312,-2.8809814453125
1713358297039278600,8.273278564453125,-0.5659942626953125,-9.2821044921875,-2.5146636962890625
1713358297049258000,8.283258056640625,-0.4917755126953125,-9.404220581054688,-2.2249755859375
1713358297059206700,8.29320654296875,-0.508544921875,-9.521530151367188,-2.019073486328125
1713358297069185800,8.303185791015625,-0.582763671875,-9.665176391601562,-1.9544219970703125
1713358297079165200,8.313165283203125,-0.6976776123046875,-9.79925537109375,-2.00469970703125
1713358297089113900,8.32311376953125,-0.7551422119140625,-9.9141845703125,-1.9951324462890625
1713358297099093000,8.333093017578125,-0.7335968017578125,-9.933334350585938,-1.9472503662109375
1713358297109072400,8.343072265625,-0.652191162109375,-9.942916870117188,-1.904144287109375
1713358297119051500,8.353051513671875,-0.5109405517578125,-9.897415161132812,-1.73895263671875
1713358297129000400,8.36300048828125,-0.2906646728515625,-9.796859741210938,-1.671905517578125
1713358297138979600,8.3729794921875,-0.3217926025390625,-9.772918701171875,-1.4995269775390625
1713358297148958700,8.382958740234375,-0.187713623046875,-9.667572021484375,-1.413330078125
1713358297158907600,8.39290771484375,-0.135040283203125,-9.59814453125,-1.37982177734375
1713358297168886800,8.40288671875,-0.1422271728515625,-9.557449340820312,-1.34869384765625
1713358297178866200,8.4128662109375,-0.2475738525390625,-9.58856201171875,-1.1715240478515625
1713358297188814800,8.42281494140625,-0.1518096923828125,-9.430557250976562,-1.2529296875
1713358297198794000,8.4327939453125,-0.2739105224609375,-9.380279541015625,-1.217010498046875
1713358297208773400,8.4427734375,-0.2164459228515625,-9.40899658203125,-1.3558807373046875
1713358297218722000,8.45272216796875,-0.38165283203125,-9.550262451171875,-1.4013671875
1713358297228701200,8.462701171875,-0.4702301025390625,-9.660400390625,-1.3822174072265625
1713358297238680600,8.4726806640625,-0.25714111328125,-9.531112670898438,-1.8586578369140625
1713358297248629200,8.482629150390625,-0.1925048828125,-9.646026611328125,-1.5689544677734375
1713358297258608400,8.4926083984375,-0.175750732421875,-9.775314331054688,-1.817962646484375
1713358297268587800,8.502587890625,-0.1781463623046875,-9.686737060546875,-1.908935546875
1713358297278536400,8.512536376953125,-0.1494140625,-9.583786010742188,-1.8754119873046875
1713358297288515600,8.522515625,-0.135040283203125,-9.531112670898438,-1.8371124267578125
1713358297298464500,8.532464599609375,-0.051239013671875,-9.437728881835938,-1.8897857666015625
1713358297308443600,8.542443603515625,-0.0847625732421875,-9.394638061523438,-1.81317138671875
1713358297318423000,8.552423095703125,-0.156585693359375,-9.44970703125,-1.7102203369140625
1713358297328371700,8.562371826171875,-0.1326446533203125,-9.44012451171875,-1.8682403564453125
1713358297338350800,8.572350830078125,-0.2068634033203125,-9.511947631835938,-1.817962646484375
1713358297348330200,8.582330322265625,-0.283477783203125,-9.562225341796875,-1.7269744873046875
1713358297358279000,8.59227880859375,-0.3577117919921875,-9.602935791015625,-1.6958465576171875
1713358297368258000,8.602258056640625,-0.419952392578125,-9.65081787109375,-1.6144561767578125
1713358297378237400,8.612237548828125,-0.4869842529296875,-9.68194580078125,-1.564178466796875
1713358297388216600,8.622216552734375,-0.5396575927734375,-9.708282470703125,-1.5569915771484375
1713358297398165200,8.632165283203125,-0.5659942626953125,-9.691513061523438,-1.5737457275390625
1713358297408144600,8.64214453125,-0.5923309326171875,-9.701095581054688,-1.63360595703125
1713358297418123800,8.652123779296875,-0.582763671875,-9.67236328125,-1.73895263671875
1713358297428072700,8.66207275390625,-0.5659942626953125,-9.622085571289062,-1.7700653076171875
1713358297438051800,8.6720517578125,-0.5205078125,-9.593353271484375,-1.7796478271484375
1713358297448031000,8.682031005859375,-0.4534759521484375,-9.559844970703125,-1.839508056640625
1713358297457980000,8.69197998046875,-0.407989501953125,-9.590957641601562,-1.786834716796875
1713358297467959000,8.701958984375,-0.309814453125,-9.655609130859375,-1.8682403564453125
1713358297477938400,8.7119384765625,-0.1901092529296875,-9.679550170898438,-1.9232940673828125
1713358297487887000,8.72188720703125,-0.1063079833984375,-9.701095581054688,-1.9065399169921875
1713358297497866200,8.7318662109375,-0.0680084228515625,-9.722640991210938,-1.904144287109375
1713358297507845600,8.741845703125,-0.060821533203125,-9.737014770507812,-1.8466796875
1713358297517794300,8.751794189453125,-0.091949462890625,-9.813629150390625,-1.7174072265625
1713358297527773400,8.7617734375,-0.103912353515625,-9.899810791015625,-1.6360015869140625
1713358297537752800,8.7717529296875,-0.0943450927734375,-9.875869750976562,-1.48516845703125
1713358297547701500,8.781701416015625,-0.135040283203125,-9.79925537109375,-1.3462982177734375
1713358297557680600,8.7916806640625,-0.1254730224609375,-9.72503662109375,-1.2241973876953125
1713358297567660000,8.801659912109375,-0.048858642578125,-9.643630981445312,-1.2218017578125
1713358297577608700,8.811608642578125,-0.0153350830078125,-9.550262451171875,-1.31756591796875
1713358297587588000,8.821588134765625,-0.376861572265625,-9.674758911132812,-0.984771728515625
1713358297597536800,8.831536865234375,-0.451080322265625,-9.655609130859375,-1.0757598876953125
1713358297607516000,8.841515869140625,-0.36248779296875,-9.590957641601562,-1.2194061279296875
1713358297617495300,8.851495361328125,-0.355316162109375,-9.622085571289062,-1.3079986572265625
1713358297627444000,8.86144384765625,-0.38165283203125,-9.710678100585938,-1.4875640869140625
1713358297637423000,8.871423095703125,-0.4582672119140625,-9.720245361328125,-1.6240234375
1713358297647402500,8.881402587890625,-0.4391021728515625,-9.646026611328125,-1.777252197265625
1713358297657381600,8.891381591796875,-0.3600921630859375,-9.602935791015625,-1.9376678466796875
1713358297667330300,8.901330322265625,-0.384033203125,-9.741790771484375,-1.7676849365234375
1713358297677309700,8.911309814453125,-0.18292236328125,-9.677154541015625,-1.9017486572265625
1713358297687288800,8.921288818359375,-0.1374359130859375,-9.58856201171875,-1.851470947265625
1713358297697237800,8.93123779296875,-0.09674072265625,-9.547866821289062,-1.7916259765625
1713358297707217000,8.941216796875,-0.06561279296875,-9.499984741210938,-1.8011932373046875
1713358297717196000,8.951196044921875,-0.0057525634765625,-9.466461181640625,-1.8011932373046875
1713358297727145000,8.96114501953125,0.08282470703125,-9.452102661132812,-1.75091552734375
1713358297737124000,8.9711240234375,0.10198974609375,-9.4927978515625,-1.7006378173828125
1713358297747103200,8.981103271484375,0.0469207763671875,-9.526321411132812,-1.7006378173828125
1713358297757052200,8.99105224609375,-0.051239013671875,-9.59814453125,-1.7796478271484375
1713358297767031300,9.00103125,-0.101531982421875,-9.543075561523438,-1.861053466796875
1713358297777010700,9.0110107421875,-0.135040283203125,-9.40899658203125,-1.944854736328125
1713358297786959400,9.02095947265625,-0.0751953125,-9.330001831054688,-2.0549774169921875
1713358297796938500,9.0309384765625,-0.017730712890625,-9.092971801757812,-2.136383056640625
1713358297806894000,9.04089404296875,-0.03448486328125,-9.061843872070312,-2.2129974365234375
1713358297816842800,9.0508427734375,-0.091949462890625,-9.083389282226562,-2.198638916015625
1713358297826822000,9.06082177734375,-0.1302490234375,-9.239013671875,-2.2177886962890625
1713358297836801300,9.07080126953125,-0.07757568359375,-9.432937622070312,-2.3111572265625
1713358297846750000,9.08075,-0.0009613037109375,-9.660400390625,-2.3614349365234375
1713358297856729000,9.09072900390625,0.0062103271484375,-9.8519287109375,-2.4093170166015625
1713358297866708500,9.10070849609375,-0.0249176025390625,-9.86151123046875,-2.4667816162109375
1713358297876657200,9.1106572265625,-0.187713623046875,-9.737014770507812,-2.38299560546875
1713358297886636300,9.12063623046875,-0.36248779296875,-9.574203491210938,-2.26806640625
1713358297896585200,9.130585205078125,-0.5181121826171875,-9.394638061523438,-2.19384765625
1713358297906564400,9.140564453125,-0.582763671875,-9.2701416015625,-2.1483612060546875
1713358297916543700,9.150543701171875,-0.5971221923828125,-9.1959228515625,-2.15313720703125
1713358297926492400,9.160492431640625,-0.5947265625,-9.1959228515625,-2.1507568359375
1713358297936471600,9.170471435546874,-0.6234588623046875,-9.219863891601562,-2.1387786865234375
1713358297946451000,9.180450927734375,-0.6497955322265625,-9.253372192382812,-2.18426513671875
1713358297956430000,9.19043017578125,-0.7024688720703125,-9.298873901367188,-2.17230224609375
1713358297966409200,9.2004091796875,-0.6976776123046875,-9.39703369140625,-2.1914520263671875
1713358297976358100,9.210358154296875,-0.7431640625,-9.473648071289062,-2.2177886962890625
1713358297986337300,9.220337158203124,-0.7288055419921875,-9.547866821289062,-2.294403076171875
1713358297996316700,9.230316650390625,-0.7551422119140625,-9.605331420898438,-2.4093170166015625
1713358298006265300,9.240265380859375,-0.726409912109375,-9.6412353515625,-2.536224365234375
1713358298016244500,9.250244384765624,-0.661773681640625,-9.669967651367188,-2.6032562255859375
1713358298026223900,9.260223876953125,-0.5851593017578125,-9.691513061523438,-2.6128387451171875
1713358298036172500,9.270172607421875,-0.5229034423828125,-9.686737060546875,-2.569732666015625
1713358298046151700,9.280151611328124,-0.42474365234375,-9.667572021484375,-2.5865020751953125
1713358298056131000,9.290131103515625,-0.376861572265625,-9.602935791015625,-2.5457916259765625
1713358298066079700,9.300079833984375,-0.3170013427734375,-9.511947631835938,-2.473968505859375
1713358298076059000,9.310058837890624,-0.3409423828125,-9.459274291992188,-2.3758087158203125
1713358298086038300,9.320038330078125,-0.410369873046875,-9.478439331054688,-2.2824249267578125
1713358298095987000,9.329987060546875,-0.4438934326171875,-9.4808349609375,-2.1746978759765625
1713358298105966300,9.33996630859375,-0.482208251953125,-9.490402221679688,-2.03582763671875
1713358298115915000,9.3499150390625,-0.5229034423828125,-9.614898681640625,-1.8682403564453125
1713358298125894100,9.35989404296875,-0.5635986328125,-9.734619140625,-1.786834716796875
1713358298135873500,9.36987353515625,-0.6186676025390625,-9.83038330078125,-1.73895263671875
1713358298145822200,9.379822265625,-0.6641693115234375,-9.868682861328125,-1.7221832275390625
1713358298155801300,9.38980126953125,-0.6809234619140625,-9.890243530273438,-1.71978759765625
1713358298165780700,9.39978076171875,-0.6665496826171875,-9.765731811523438,-1.786834716796875
1713358298175729400,9.4097294921875,-0.642608642578125,-9.569412231445312,-1.70782470703125
1713358298185708500,9.41970849609375,-0.6402130126953125,-9.4185791015625,-1.6551513671875
1713358298195688000,9.42968798828125,-0.6258544921875,-9.303665161132812,-1.6264190673828125
1713358298205636600,9.43963671875,-0.5659942626953125,-9.21746826171875,-1.607269287109375
1713358298215616000,9.449615966796875,-0.5755767822265625,-9.219863891601562,-1.6168365478515625
1713358298225595100,9.45959521484375,-0.525299072265625,-9.239013671875,-1.612060546875
1713358298235574300,9.46957421875,-0.4846038818359375,-9.296478271484375,-1.66473388671875
1713358298245523200,9.479523193359375,-0.43670654296875,-9.361114501953125,-1.597686767578125
1713358298255502300,9.48950244140625,-0.4750213623046875,-9.361114501953125,-1.5091094970703125
1713358298265481700,9.499481689453125,-0.556427001953125,-9.358718872070312,-1.5210723876953125
1713358298275430400,9.509430419921875,-0.656982421875,-9.380279541015625,-1.5498046875
1713358298285409500,9.519409423828124,-0.7072601318359375,-9.416183471679688,-1.597686767578125
1713358298295389000,9.529388916015625,-0.704864501953125,-9.521530151367188,-1.6240234375
1713358298305337600,9.539337646484375,-0.695281982421875,-9.634063720703125,-1.57135009765625
1713358298315316700,9.549316650390624,-0.7455596923828125,-9.727432250976562,-1.439666748046875
1713358298325296000,9.559296142578125,-0.75274658203125,-9.744186401367188,-1.260101318359375
1713358298335244800,9.569244873046875,-0.7551422119140625,-9.741790771484375,-1.2241973876953125
1713358298345224000,9.579223876953124,-0.7288055419921875,-9.753768920898438,-1.195465087890625
1713358298355203300,9.589203369140625,-0.7024688720703125,-9.7154541015625,-1.21221923828125
1713358298365152000,9.599152099609375,-0.6593780517578125,-9.701095581054688,-1.3032073974609375
1713358298375131400,9.60913134765625,-0.5971221923828125,-9.710678100585938,-1.365447998046875
1713358298385110500,9.619110595703125,-0.4702301025390625,-9.71307373046875,-1.4013671875
1713358298395059200,9.62905908203125,-0.3217926025390625,-9.684341430664062,-1.37982177734375
1713358298405038600,9.63903857421875,-0.2260284423828125,-9.7034912109375,-1.1834869384765625
1713358298415017700,9.649017822265625,-0.2068634033203125,-9.679550170898438,-0.92730712890625
1713358298424966400,9.65896630859375,-0.3170013427734375,-9.622085571289062,-0.699859619140625
1713358298434945800,9.66894580078125,-0.434326171875,-9.58856201171875,-0.486785888671875
1713358298444925000,9.678925048828125,-0.5707855224609375,-9.564620971679688,-0.412567138671875
1713358298454873600,9.68887353515625,-0.621063232421875,-9.552658081054688,-0.4053802490234375
1713358298464853000,9.69885302734375,-0.6450042724609375,-9.5670166015625,-0.5178985595703125
1713358298474832100,9.70883203125,-0.652191162109375,-9.60772705078125,-0.625640869140625
1713358298484780800,9.71878076171875,-0.6545867919921875,-9.612503051757812,-0.7118377685546875
1713358298494760200,9.72876025390625,-0.6665496826171875,-9.58856201171875,-0.8626708984375
1713358298504739300,9.7387392578125,-0.6378326416015625,-9.600540161132812,-1.0853271484375
1713358298514688300,9.748688232421875,-0.54205322265625,-9.634063720703125,-1.2553253173828125
1713358298524667400,9.75866748046875,-0.4271392822265625,-9.729827880859375,-1.418121337890625
1713358298534646500,9.768646484375,-0.3648834228515625,-9.763351440429688,-1.492340087890625
1713358298544626000,9.7786259765625,-0.3577117919921875,-9.792068481445312,-1.4875640869140625
1713358298554574600,9.78857470703125,-0.434326171875,-9.760955810546875,-1.4564361572265625
1713358298564554000,9.798553955078125,-0.577972412109375,-9.655609130859375,-1.4037628173828125
1713358298574533000,9.808533203125,-0.69049072265625,-9.531112670898438,-1.386993408203125
1713358298584481800,9.818481689453124,-0.7240142822265625,-9.488006591796875,-1.3510894775390625
1713358298594461200,9.828461181640625,-0.75274658203125,-9.466461181640625,-1.3726348876953125
1713358298604440300,9.8384404296875,-0.7599334716796875,-9.473648071289062,-1.4013671875
1713358298614389000,9.848388916015624,-0.747955322265625,-9.473648071289062,-1.3510894775390625
1713358298624368400,9.858368408203125,-0.7862701416015625,-9.495193481445312,-1.260101318359375
1713358298634347500,9.868347412109374,-0.8987884521484375,-9.521530151367188,-1.185882568359375
1713358298644296200,9.878296142578124,-0.9394989013671875,-9.538284301757812,-1.0709686279296875
1713358298654275600,9.888275634765625,-0.9610443115234375,-9.622085571289062,-0.972808837890625
1713358298664254700,9.898254638671874,-1.011322021484375,-9.696304321289062,-0.92730712890625
1713358298674203600,9.90820361328125,-0.949066162109375,-9.727432250976562,-1.0182952880859375
1713358298684182800,9.918182861328125,-0.822174072265625,-9.67236328125,-1.1882781982421875
1713358298694162000,9.928161865234374,-0.7288055419921875,-9.610122680664062,-1.1475830078125
1713358298704110800,9.93811083984375,-0.7455596923828125,-9.58856201171875,-1.02069091796875
1713358298714090000,9.948090087890625,-0.8030242919921875,-9.569412231445312,-0.845916748046875
1713358298724038700,9.95803857421875,-0.6713409423828125,-9.6292724609375,-0.719024658203125
1713358298734018000,9.96801806640625,-0.336151123046875,-9.801651000976562,-0.6687469482421875
1713358298743997200,9.9779970703125,0.1378936767578125,-9.945297241210938,-0.7261962890625
1713358298753945900,9.98794580078125,0.468292236328125,-9.916580200195312,-0.6591644287109375
1713358298763925200,9.99792529296875,0.542510986328125,-9.794464111328125,-0.604095458984375
1713358298773904400,10.007904296875,0.4850616455078125,-9.677154541015625,-0.529876708984375
1713358298783853300,10.017853271484375,0.41082763671875,-9.679550170898438,-0.5538177490234375
1713358298793832400,10.02783251953125,0.4587249755859375,-9.792068481445312,-0.7716827392578125
1713358298803811600,10.0378115234375,0.5113983154296875,-9.8399658203125,-0.9656219482421875
1713358298813791000,10.047791015625,0.604766845703125,-9.9141845703125,-0.9991455078125
1713358298823739600,10.05773974609375,0.5975799560546875,-10.050643920898438,-0.9608306884765625
1713358298833718800,10.06771875,0.2959136962890625,-10.122482299804688,-0.77886962890625
1713358298843698200,10.0776982421875,-0.1637725830078125,-10.191909790039062,-0.8746337890625
1713358298853646800,10.087646728515624,-0.4774169921875,-10.124862670898438,-1.0565948486328125
1713358298863626200,10.097626220703125,-0.556427001953125,-10.155990600585938,-1.2457427978515625
1713358298873605400,10.10760546875,-0.4893798828125,-10.179931640625,-1.458831787109375
1713358298883554000,10.117553955078124,-0.2427825927734375,-10.05303955078125,-1.41094970703125
1713358298893533400,10.127533447265625,0.0373382568359375,-9.744186401367188,-1.2553253173828125
1713358298903512600,10.1375126953125,0.3485870361328125,-9.36590576171875,-1.0877227783203125
1713358298913461200,10.147461181640624,0.56884765625,-9.126480102539062,-0.9225311279296875
1713358298923440600,10.157440673828125,0.635894775390625,-9.016357421875,-0.83154296875
1713358298933419800,10.167419677734374,0.705322265625,-8.942138671875,-0.7645111083984375
1713358298943368400,10.177368408203124,0.710113525390625,-8.918197631835938,-0.656768798828125
1713358298953347800,10.187347900390625,0.6717987060546875,-8.925369262695312,-0.5538177490234375
1713358298963327000,10.197326904296874,0.5449066162109375,-8.93255615234375,-0.3527069091796875
1713358298973276000,10.20727587890625,0.276763916015625,-8.99481201171875,-0.22821044921875
1713358298983255000,10.217255126953125,0.07086181640625,-9.128875732421875,-0.2162322998046875
1713358298993234200,10.227234130859374,-0.123077392578125,-9.303665161132812,-0.2258148193359375
1713358299003183000,10.23718310546875,-0.2954559326171875,-9.478439331054688,-0.27130126953125
1713358299013162200,10.247162353515625,-0.4223480224609375,-9.571807861328125,-0.2521514892578125
1713358299023111000,10.25711083984375,-0.4654388427734375,-9.526321411132812,-0.213836669921875
1713358299033090300,10.26709033203125,-0.3864288330078125,-9.394638061523438,-0.086944580078125
1713358299043069400,10.2770693359375,-0.209259033203125,-9.262954711914062,0.1117706298828125
1713358299053018000,10.28701806640625,-0.029693603515625,-9.119308471679688,0.2961273193359375
1713358299062997500,10.29699755859375,0.1067657470703125,-9.0474853515625,0.41583251953125
1713358299072976600,10.3069765625,0.214508056640625,-9.04986572265625,0.4086456298828125
1713358299082956000,10.3169560546875,0.2743682861328125,-9.1336669921875,0.315277099609375
1713358299092904700,10.32690478515625,0.1953582763671875,-9.24859619140625,0.0854339599609375
1713358299102883800,10.3368837890625,0.0373382568359375,-9.327606201171875,-0.0677947998046875
1713358299112863200,10.34686328125,-0.0560302734375,-9.574203491210938,-0.34552001953125
1713358299122812000,10.35681201171875,-0.0249176025390625,-9.772918701171875,-0.4436798095703125
1713358299132791300,10.366791259765625,-0.0368804931640625,-9.97882080078125,-0.5490264892578125
1713358299142770400,10.3767705078125,-0.082366943359375,-10.045867919921875,-0.477203369140625
1713358299152719000,10.386718994140624,-0.3122100830078125,-10.275711059570312,-0.6519775390625
1713358299162698500,10.396698486328125,-0.45587158203125,-10.33795166015625,-0.7549285888671875
1713358299172677600,10.406677734375,-0.384033203125,-10.419357299804688,-0.953643798828125
1713358299182626300,10.416626220703124,-0.0895538330078125,-10.534271240234375,-0.9775848388671875
1713358299192605700,10.426605712890625,0.3581695556640625,-10.658782958984375,-0.8770294189453125
1713358299202584800,10.436584716796874,0.8441925048828125,-10.883834838867188,-0.836334228515625
1713358299212533500,10.446533447265624,1.0955810546875,-11.09930419921875,-0.7645111083984375
1713358299222513000,10.456512939453125,1.423583984375,-11.113677978515625,-0.8770294189453125
1713358299232492000,10.466491943359374,1.70849609375,-11.017913818359375,-1.331939697265625
1713358299242441000,10.47644091796875,2.1035308837890625,-10.821578979492188,-2.167510986328125
1713358299252420000,10.486420166015625,2.146636962890625,-10.800033569335938,-3.08209228515625
1713358299262399200,10.496399169921874,2.189727783203125,-10.831161499023438,-3.7476806640625
1713358299272348200,10.50634814453125,2.3501434326171875,-10.902984619140625,-3.984710693359375
1713358299282327300,10.516327392578125,2.211273193359375,-10.912567138671875,-3.6112060546875
1713358299292306400,10.526306396484374,1.9287567138671875,-10.773696899414062,-2.689453125
1713358299302255400,10.53625537109375,2.1562042236328125,-10.402603149414062,-1.73895263671875
1713358299312234500,10.546234375,1.9694671630859375,-10.112899780273438,-0.752532958984375
1713358299322214000,10.5562138671875,1.5792083740234375,-9.899810791015625,0.039947509765625
1713358299332162600,10.56616259765625,0.4970245361328125,-10.32598876953125,0.7462310791015625
1713358299342141700,10.5761416015625,-0.609100341796875,-10.711441040039062,1.1197357177734375
1713358299352090400,10.58609033203125,-2.1796875,-11.324371337890625,1.2418365478515625
1713358299362069800,10.59606982421875,-2.352081298828125,-11.683486938476562,1.1197357177734375
1713358299372049000,10.606048828125,-1.6314239501953125,-11.709823608398438,0.84918212890625
1713358299382028300,10.6160283203125,-0.97540283203125,-11.434494018554688,0.209930419921875
1713358299391977000,10.62597705078125,-0.874847412109375,-10.90777587890625,-0.6447906494140625
1713358299401956000,10.6359560546875,-0.9251251220703125,-10.256546020507812,-1.45404052734375
1713358299411935500,10.645935546875,-0.90118408203125,-9.674758911132812,-2.442840576171875
1713358299421914600,10.65591455078125,-1.2627105712890625,-9.114517211914062,-3.5609283447265625
1713358299431863600,10.665863525390625,-1.9809722900390625,-8.812850952148438,-4.7628173828125
1713358299441842700,10.6758427734375,-2.41192626953125,-8.978042602539062,-6.43157958984375
1713358299451821800,10.68582177734375,-2.7088165283203125,-9.737014770507812,-7.5951690673828125
1713358299461770800,10.695770751953125,-3.072723388671875,-10.84552001953125,-7.5424957275390625
1713358299471750000,10.70575,-3.16131591796875,-12.191070556640625,-6.7667694091796875
1713358299481729300,10.715729248046875,-2.9290771484375,-13.143951416015625,-5.3565826416015625
1713358299491678000,10.725677978515625,-2.47418212890625,-12.950027465820312,-3.129974365234375
1713358299501657000,10.735656982421874,-2.2850341796875,-12.1551513671875,-0.6807098388671875
1713358299511636500,10.745636474609375,-2.6944427490234375,-11.623641967773438,0.4397735595703125
1713358299521585200,10.755585205078125,-3.3863677978515625,-11.137619018554688,1.05987548828125
1713358299531564300,10.765564208984374,-4.1261749267578125,-11.147186279296875,1.098175048828125
1713358299541513200,10.77551318359375,-4.693603515625,-10.455276489257812,1.25140380859375
1713358299551492400,10.785492431640625,-4.95697021484375,-9.538284301757812,1.19873046875
1713358299561471500,10.795471435546874,-4.0926666259765625,-8.9852294921875,0.569061279296875
1713358299571420400,10.80542041015625,-2.6298065185546875,-8.611740112304688,0.5235748291015625
1713358299581399600,10.815399658203125,-0.309814453125,-8.211898803710938,0.547515869140625
1713358299591379000,10.82537890625,1.2942962646484375,-8.07781982421875,0.6672210693359375
1713358299601327600,10.83532763671875,1.7515869140625,-8.106552124023438,0.4565277099609375
1713358299611306800,10.845306640625,1.406829833984375,-7.9198150634765625,0.4230194091796875
1713358299621286100,10.8552861328125,0.7915191650390625,-7.4864654541015625,0.26739501953125
1713358299631234800,10.86523486328125,0.5329437255859375,-6.9669189453125,0.2219085693359375
1713358299641214000,10.8752138671875,0.4323883056640625,-6.8232574462890625,-0.2066650390625
1713358299651193300,10.885193359375,0.350982666015625,-6.638916015625,-0.63043212890625
1713358299661142000,10.89514208984375,0.0995941162109375,-6.476104736328125,-0.9488677978515625
1713358299671121200,10.90512109375,0.130706787109375,-6.4689178466796875,-1.080535888671875
1713358299681100500,10.9151005859375,0.3437957763671875,-6.564697265625,-1.1284332275390625
1713358299691079700,10.92507958984375,0.4275970458984375,-6.7107391357421875,-1.2146148681640625
1713358299701028600,10.935028564453125,0.434783935546875,-6.9788818359375,-1.4779815673828125
1713358299711007700,10.9450078125,0.2384490966796875,-7.2183074951171875,-1.5306549072265625
1713358299720987000,10.95498681640625,0.1857757568359375,-7.352386474609375,-1.4013671875
1713358299730935800,10.964935791015625,0.2264862060546875,-7.5726470947265625,-1.207427978515625
1713358299740915000,10.9749150390625,0.425201416015625,-7.7522125244140625,-0.9033660888671875
1713358299750894000,10.98489404296875,0.468292236328125,-7.965301513671875,-0.52508544921875
1713358299760843000,10.994843017578125,0.4180145263671875,-8.223876953125,0.008819580078125
1713358299770822100,11.004822265625,0.7292633056640625,-8.4345703125,0.8563690185546875
1713358299780801500,11.014801513671875,1.112335205078125,-8.645248413085938,1.952911376953125
1713358299790750200,11.024750244140625,1.713287353515625,-8.961288452148438,3.205078125
1713358299800729300,11.034729248046874,2.08917236328125,-9.303665161132812,4.6344146728515625
1713358299810708700,11.044708740234375,1.9598846435546875,-9.701095581054688,5.8817901611328125
1713358299820657400,11.054657470703125,1.660614013671875,-10.175140380859375,7.002288818359375
1713358299830636500,11.064636474609374,1.7539825439453125,-10.7928466796875,6.9783477783203125
1713358299840616000,11.074615966796875,1.524139404296875,-11.683486938476562,5.0246734619140625
1713358299850564600,11.084564697265625,0.4611053466796875,-12.61004638671875,2.8531341552734375
1713358299860543700,11.094543701171874,-0.3074188232421875,-13.737716674804688,1.2945098876953125
1713358299870523100,11.104523193359375,0.7460174560546875,-14.855804443359375,-0.613677978515625
1713358299880471800,11.114471923828125,3.034881591796875,-15.270004272460938,-2.4500274658203125
1713358299890451200,11.124451171875,4.3588714599609375,-13.845458984375,-3.8985137939453125
1713358299900399900,11.13439990234375,2.3932342529296875,-12.423309326171875,-1.4372711181640625
1713358299910379000,11.14437890625,0.741241455078125,-13.438446044921875,2.5897674560546875
1713358299920358400,11.1543583984375,1.883270263671875,-16.009811401367188,3.3702850341796875
1713358299930307000,11.16430712890625,-0.060821533203125,-18.193328857421875,2.2881011962890625
1713358299940286200,11.1742861328125,-4.3775634765625,-20.118270874023438,-0.774078369140625
1713358299950265600,11.184265625,-8.514755249023438,-20.623443603515625,-3.118011474609375
1713358299960244700,11.19424462890625,-9.86029052734375,-16.450347900390625,-4.00146484375
1713358299970224000,11.20422412109375,-6.199554443359375,-12.011505126953125,-2.0741424560546875
1713358299980172800,11.2141728515625,-2.2299652099609375,-9.114517211914062,0.83721923828125
1713358299990152000,11.22415185546875,0.1594390869140625,-7.1704254150390625,2.2138824462890625
1713358300000131300,11.23413134765625,0.6454620361328125,-5.884735107421875,2.57061767578125
1713358300010080000,11.244080078125,0.4539337158203125,-4.9605712890625,2.0917816162109375
1713358300020059100,11.25405908203125,0.14508056640625,-4.5128631591796875,0.9353790283203125
1713358300030008000,11.264008056640625,0.267181396484375,-4.721160888671875,0.2769775390625
1713358300039987200,11.2739873046875,1.028533935546875,-6.20556640625,-0.7022552490234375
1713358300049966600,11.283966552734375,2.168182373046875,-8.1927490234375,-2.6942291259765625
1713358300059915300,11.293915283203125,1.7061004638671875,-9.837570190429688,-4.4467926025390625
1713358300069894400,11.303894287109374,-0.1422271728515625,-10.93890380859375,-5.854583740234375
1713358300079873800,11.313873779296875,-2.3401031494140625,-11.34112548828125,-6.40045166015625
1713358300089822500,11.323822509765625,-3.35284423828125,-10.90777587890625,-5.758819580078125
1713358300099801600,11.333801513671874,-2.885986328125,-9.813629150390625,-3.9200592041015625
1713358300109781000,11.343781005859375,-1.1980743408203125,-8.144866943359375,-3.2329254150390625
1713358300119729700,11.353729736328125,0.4491424560546875,-6.3037261962890625,-3.3813629150390625
1713358300129708800,11.363708740234374,1.4571075439453125,-4.9725494384765625,-3.78839111328125
1713358300139688200,11.373688232421875,1.629486083984375,-4.5248260498046875,-4.312713623046875
1713358300149636900,11.383636962890625,1.4163970947265625,-4.2303466796875,-4.3151092529296875
1713358300159616000,11.393615966796874,1.6103363037109375,-4.151336669921875,-3.8123321533203125
1713358300169595400,11.403595458984375,1.275146484375,-4.7043914794921875,-2.3350982666015625
1713358300179544000,11.4135439453125,-0.060821533203125,-6.3468170166015625,-1.1763153076171875
1713358300189523500,11.4235234375,-1.0352630615234375,-8.300491333007812,0.0160064697265625
1713358300199502600,11.433502685546875,-1.3153839111328125,-10.244583129882812,1.6440582275390625
1713358300209451300,11.443451171875,-1.0089263916015625,-11.556594848632812,2.7382049560546875
1713358300219430700,11.4534306640625,-0.8987884521484375,-11.927703857421875,3.3559112548828125
1713358300229409800,11.463409912109375,-1.190887451171875,-10.924530029296875,3.6312408447265625
1713358300239358500,11.4733583984375,-1.7152099609375,-9.29168701171875,3.6049041748046875
1713358300249337900,11.483337890625,-1.7152099609375,-8.367523193359375,2.2665557861328125
1713358300259317000,11.49331689453125,-1.597900390625,-8.149658203125,0.8084869384765625
1713358300269296400,11.50329638671875,-1.487762451171875,-7.965301513671875,0.60498046875
1713358300279245000,11.5132451171875,-1.3728485107421875,-8.211898803710938,0.3032989501953125
1713358300289224200,11.52322412109375,-1.5380401611328125,-8.85833740234375,0.38470458984375
1713358300299203600,11.53320361328125,-1.7583160400390625,-9.368301391601562,0.7151031494140625
1713358300309152300,11.54315234375,-1.921112060546875,-10.067413330078125,1.0574798583984375
1713358300319131400,11.55313134765625,-2.067169189453125,-10.788070678710938,1.4525299072265625
1713358300329110800,11.56311083984375,-1.751129150390625,-11.47998046875,1.3040771484375
1713358300339059500,11.5730595703125,-0.9730072021484375,-11.439285278320312,0.885101318359375
1713358300349038800,11.583038818359375,0.384490966796875,-10.773696899414062,0.315277099609375
1713358300359018000,11.59301806640625,1.7013092041015625,-9.638839721679688,-0.20904541015625
1713358300368966700,11.602966552734374,2.91278076171875,-8.669189453125,-0.38861083984375
1713358300378946000,11.612946044921875,3.9375,-7.912628173828125,-0.0941314697265625
1713358300388925200,11.62292529296875,4.811370849609375,-7.1488800048828125,0.37274169921875
1713358300398873900,11.632873779296874,4.155364990234375,-6.318084716796875,1.244232177734375
1713358300408853200,11.642853271484375,2.7787017822265625,-6.22711181640625,1.6512451171875
1713358300418832400,11.652832275390624,1.1147308349609375,-7.405059814453125,1.699127197265625
1713358300428781000,11.662781005859374,-0.3409423828125,-9.691513061523438,1.383087158203125
1713358300438760400,11.672760498046875,-0.5755767822265625,-11.671524047851562,0.2482452392578125
1713358300448709000,11.682709228515625,-0.2260284423828125,-12.74652099609375,-0.592132568359375
1713358300458688500,11.6926884765625,0.5137786865234375,-13.175079345703125,-1.02069091796875
1713358300468667600,11.702667724609375,0.626312255859375,-13.014663696289062,-0.3742523193359375
1713358300478616300,11.7126162109375,0.1043701171875,-12.686660766601562,0.420623779296875
1713358300488595700,11.722595703125,-1.020904541015625,-12.480758666992188,0.3823089599609375
1713358300498574800,11.732574951171875,-2.586700439453125,-12.315567016601562,-0.3527069091796875
1713358300508523500,11.7425234375,-3.479736328125,-11.676315307617188,-1.2960205078125
1713358300518503000,11.7525029296875,-3.5731201171875,-10.8670654296875,-3.0198516845703125
1713358300528482000,11.76248193359375,-3.8891448974609375,-10.426544189453125,-5.538543701171875
1713358300538461400,11.77246142578125,-4.9545745849609375,-10.972412109375,-7.85614013671875
1713358300548410000,11.78241015625,-5.617767333984375,-12.653152465820312,-10.295822143554688
1713358300558389200,11.79238916015625,-5.069488525390625,-15.119171142578125,-12.5272216796875
1713358300568368600,11.80236865234375,-3.9035186767578125,-17.180587768554688,-13.820083618164062
1713358300578317300,11.8123173828125,-2.4406585693359375,-17.951507568359375,-11.447433471679688
1713358300588296400,11.82229638671875,-1.1310272216796875,-17.0584716796875,-6.869720458984375
1713358300598275800,11.83227587890625,-1.35369873046875,-15.533370971679688,-1.8586578369140625
1713358300608224500,11.842224609375,-3.3624267578125,-14.556533813476562,1.519561767578125
1713358300618203600,11.85220361328125,-6.905853271484375,-13.881378173828125,4.5697784423828125
1713358300628183000,11.86218310546875,-9.072601318359375,-13.313949584960938,7.7708282470703125
1713358300638131700,11.872131591796874,-8.648818969726562,-12.590896606445312,9.257614135742188
1713358300648111000,11.882111083984375,-8.313644409179688,-11.41534423828125,8.697372436523438
1713358300658090200,11.89209033203125,-6.5778350830078125,-9.696304321289062,7.7397003173828125
1713358300668039000,11.902038818359374,-4.2363128662109375,-8.2669677734375,4.72540283203125
1713358300678018300,11.912018310546875,-1.243560791015625,-7.203948974609375,3.5618133544921875
1713358300687997400,11.92199755859375,2.5775909423828125,-7.0650787353515625,2.3072509765625
1713358300697946000,11.931946044921874,4.229583740234375,-6.9333953857421875,0.7869415283203125
1713358300707925500,11.941925537109375,3.9470672607421875,-6.31329345703125,-1.2241973876953125
1713358300717904600,11.951904541015624,3.6956787109375,-5.3795623779296875,-2.8307037353515625
1713358300727853300,11.961853271484374,3.4730224609375,-4.701995849609375,-3.9583740234375
1713358300737832700,11.971832763671875,2.6949005126953125,-4.014862060546875,-4.154693603515625
1713358300747811800,11.981811767578124,2.0556488037109375,-3.1649169921875,-4.6574859619140625
1713358300757760800,11.9917607421875,1.4331512451171875,-2.6741180419921875,-4.8657684326171875
1713358300767740000,12.001739990234375,0.8848876953125,-2.3149871826171875,-4.027801513671875
1713358300777688600,12.0116884765625,0.34619140625,-2.5998992919921875,-2.833099365234375
1713358300787668000,12.02166796875,0.3222503662109375,-3.63897705078125,-1.6312103271484375
1713358300797647000,12.031647216796875,0.2480316162109375,-5.1640777587890625,-0.9249267578125
1713358300807626500,12.04162646484375,-0.135040283203125,-6.708343505859375,-1.0613861083984375
1713358300817575200,12.0515751953125,-0.3600921630859375,-7.91741943359375,-1.418121337890625
1713358300827554300,12.06155419921875,-0.31939697265625,-8.865524291992188,-1.576141357421875
1713358300837533700,12.07153369140625,0.0062103271484375,-9.478439331054688,-1.513885498046875
1713358300847512800,12.081512939453125,0.60955810546875,-9.624481201171875,-1.0925140380859375
1713358300857461500,12.09146142578125,1.0979766845703125,-9.698699951171875,-0.2258148193359375
1713358300867441000,12.10144091796875,1.6845550537109375,-9.923751831054688,1.0215606689453125
1713358300877420000,12.111419921875,2.2471923828125,-9.971633911132812,2.448516845703125
1713358300887368700,12.12136865234375,2.41717529296875,-9.880661010742188,3.9640350341796875
1713358300897348000,12.13134814453125,2.1657867431640625,-9.758560180664062,5.6950531005859375
1713358300907327200,12.1413271484375,1.725250244140625,-9.959671020507812,7.57928466796875
1713358300917276200,12.151276123046875,1.2057037353515625,-10.756942749023438,8.285568237304688
1713358300927255300,12.16125537109375,1.4307708740234375,-12.076141357421875,7.4954833984375
1713358300937234400,12.171234375,0.489837646484375,-13.373794555664062,5.7429351806640625
1713358300947183400,12.181183349609375,-1.6649322509765625,-14.69061279296875,3.564208984375
1713358300957162500,12.19116259765625,-1.107086181640625,-15.265213012695312,1.541107177734375
1713358300967111200,12.201111083984374,0.5664520263671875,-15.255645751953125,-0.6160736083984375
1713358300977090600,12.211090576171875,2.587158203125,-14.39373779296875,-3.0102691650390625
1713358300987069700,12.221069580078124,2.9774169921875,-11.77447509765625,-4.7317047119140625
1713358300997018400,12.231018310546874,2.37408447265625,-9.76812744140625,-2.876190185546875
1713358301006997800,12.240997802734375,2.438720703125,-10.11529541015625,2.1252899169921875
1713358301016977000,12.250976806640624,4.00213623046875,-11.209442138671875,5.6327972412109375
1713358301026925800,12.26092578125,3.93988037109375,-14.20458984375,5.3000030517578125
1713358301036905000,12.270905029296875,-1.1310272216796875,-19.747161865234375,-0.288055419921875
1713358301046884000,12.280884033203124,-9.357513427734375,-25.809280395507812,-5.93359375
1713358301056833000,12.2908330078125,-13.71734619140625,-20.984970092773438,-8.404403686523438
1713358301066812200,12.300812255859375,-11.270477294921875,-11.989959716796875,-8.548065185546875
1713358301076791300,12.310791259765624,-5.438201904296875,-9.5550537109375,-4.523406982421875
1713358301086770700,12.320770751953125,-1.0137176513671875,-7.6349029541015625,-0.1468048095703125
1713358301096719400,12.33071923828125,1.2799224853515625,-5.94219970703125,1.277740478515625
1713358301106698800,12.34069873046875,2.0484619140625,-5.50885009765625,1.23944091796875
1713358301116678000,12.350677978515625,1.5265350341796875,-5.1784515380859375,1.837982177734375
1713358301126626600,12.36062646484375,0.5449066162109375,-4.5607452392578125,1.921783447265625
1713358301136606000,12.37060595703125,0.4491424560546875,-4.6613006591796875,1.404632568359375
1713358301146585000,12.380585205078125,1.0141754150390625,-5.8560028076171875,0.1644439697265625
1713358301156533800,12.39053369140625,0.8346099853515625,-7.7474212646484375,-2.51226806640625
1713358301166513200,12.40051318359375,-0.5923309326171875,-10.141632080078125,-6.182586669921875
1713358301176492300,12.4104921875,-2.1126556396484375,-12.52386474609375,-9.307022094726562
1713358301186441000,12.42044091796875,-2.6322021484375,-14.008270263671875,-10.441864013671875
1713358301196420400,12.43042041015625,-2.81414794921875,-12.878204345703125,-7.872894287109375
1713358301206399500,12.4403994140625,-1.9857635498046875,-9.016357421875,-5.88092041015625
1713358301216348400,12.450348388671875,-0.7766876220703125,-5.978118896484375,-3.498687744140625
1713358301226327600,12.46032763671875,0.901641845703125,-4.01007080078125,-1.89935302734375
1713358301236306700,12.470306640625,1.756378173828125,-3.1194305419921875,-1.9280853271484375
1713358301246255600,12.480255615234375,1.5289306640625,-2.7914276123046875,-1.5689544677734375
1713358301256234800,12.49023486328125,1.081207275390625,-3.4378662109375,-0.8339385986328125
1713358301266214100,12.500214111328125,0.0469207763671875,-5.2694244384765625,-0.0845489501953125
1713358301276162800,12.510162841796875,-0.6067047119140625,-7.5151824951171875,0.5618743896484375
1713358301286142000,12.520141845703124,-1.190887451171875,-9.844741821289062,1.2849273681640625
1713358301296121300,12.530121337890625,-1.3369293212890625,-11.762496948242188,1.952911376953125
1713358301306070000,12.540070068359375,-1.2148284912109375,-12.751312255859375,2.4580841064453125
1713358301316049200,12.550049072265624,-1.4949493408203125,-12.782440185546875,2.5299072265625
1713358301326028500,12.560028564453125,-2.048004150390625,-11.977981567382812,2.5323028564453125
1713358301335977200,12.569977294921875,-2.5819244384765625,-10.764114379882812,2.053466796875
1713358301345956400,12.579956298828124,-2.7351531982421875,-9.452102661132812,1.584197998046875
1713358301355905300,12.5899052734375,-2.20123291015625,-8.64764404296875,1.19873046875
1713358301365884400,12.599884521484375,-1.602691650390625,-8.427383422851562,0.7965087890625
1713358301375863800,12.60986376953125,-0.7623291015625,-8.441741943359375,0.590606689453125
1713358301385843000,12.619843017578125,-0.1853179931640625,-8.480056762695312,0.66961669921875
1713358301395791600,12.62979150390625,-0.1781463623046875,-8.53033447265625,0.98565673828125
1713358301405771000,12.63977099609375,-0.235595703125,-8.451324462890625,1.1939544677734375
1713358301415750100,12.649750244140625,0.3270416259765625,-8.35076904296875,0.65765380859375
1713358301425729500,12.6597294921875,1.2679595947265625,-8.195144653320312,0.171630859375
1713358301435678200,12.66967822265625,2.1298675537109375,-8.23583984375,-0.4293212890625
1713358301445657300,12.6796572265625,2.9031982421875,-8.39385986328125,-0.752532958984375
1713358301455636700,12.68963671875,3.6334228515625,-8.515960693359375,-0.5634002685546875
1713358301465585400,12.69958544921875,4.5480194091796875,-8.812850952148438,-0.2689056396484375
1713358301475564500,12.709564453125,4.356475830078125,-8.846359252929688,1.0143890380859375
1713358301485544000,12.7195439453125,3.5568084716796875,-9.150436401367188,2.1204986572265625
1713358301495492600,12.72949267578125,1.9981842041015625,-9.698699951171875,3.43731689453125
1713358301505471700,12.7394716796875,0.9782562255859375,-10.661163330078125,3.7413787841796875
1713358301515420700,12.749420654296875,0.329437255859375,-11.757720947265625,3.262542724609375
1713358301525399800,12.75939990234375,0.078033447265625,-12.6507568359375,2.0103759765625
1713358301535379000,12.76937890625,0.4515380859375,-13.124801635742188,1.0048065185546875
1713358301545327900,12.779327880859375,0.858551025390625,-12.550201416015625,1.773345947265625
1713358301555307000,12.78930712890625,0.4922332763671875,-11.525482177734375,2.7166595458984375
1713358301565286400,12.799286376953125,-0.525299072265625,-10.66595458984375,3.0183258056640625
1713358301575235000,12.809235107421875,-1.3728485107421875,-9.950088500976562,2.280914306640625
1713358301585214200,12.819214111328124,-2.69683837890625,-9.241409301757812,1.584197998046875
1713358301595193600,12.829193603515625,-3.7287445068359375,-8.705108642578125,0.621734619140625
1713358301605142300,12.839142333984375,-3.5563507080078125,-8.075439453125,-0.774078369140625
1713358301615121400,12.849121337890624,-3.108642578125,-7.7785491943359375,-2.7612762451171875
1713358301625100800,12.859100830078125,-3.3504638671875,-8.348373413085938,-5.3087005615234375
1713358301635049500,12.869049560546875,-3.7646484375,-10.134445190429688,-7.6334686279296875
1713358301645028600,12.879028564453124,-3.747894287109375,-12.966781616210938,-9.594329833984375
1713358301655008000,12.889008056640625,-3.0631561279296875,-16.512603759765625,-12.192031860351562
1713358301664956700,12.898956787109375,-2.194061279296875,-19.771102905273438,-14.753829956054688
1713358301674936000,12.90893603515625,-1.5907135009765625,-21.585906982421875,-13.772201538085938
1713358301684915200,12.918915283203125,-2.0815277099609375,-20.283462524414062,-8.303848266601562
1713358301694894300,12.928894287109374,-3.4174957275390625,-17.580413818359375,-2.7253570556640625
1713358301704843300,12.93884326171875,-6.4724884033203125,-15.784759521484375,0.2578125
1713358301714822400,12.948822509765625,-8.869094848632812,-14.736099243164062,1.9768524169921875
1713358301724801800,12.9588017578125,-9.230621337890625,-13.213394165039062,3.8299713134765625
