time,seconds_elapsed,z,y,x
1715093648536980700,0.160980712890625,-1.81805419921875,3.7215728759765625,3.2696259021759033
1715093648546990300,0.170990234375,0.1405172348022461,1.0405936241149902,0.6768956184387207
1715093648556969700,0.1809697265625,0.3639392852783203,-0.7182765007019043,-0.783015251159668
1715093648566948900,0.190948974609375,0.475921630859375,-0.24266529083251953,-1.860804557800293
1715093648576928300,0.20092822265625,0.7343368530273438,0.25165605545043945,-0.9197607040405273
1715093648586907400,0.210907470703125,0.2743520736694336,0.6052036285400391,0.08040952682495117
1715093648596886500,0.220886474609375,-0.014556884765625,0.8774681091308594,0.49753546714782715
1715093648606866000,0.230865966796875,0.07280254364013672,0.8012762069702148,0.2876579761505127
1715093648616845000,0.240844970703125,0.5416889190673828,0.996269702911377,-0.8449075222015381
1715093648626794000,0.2507939453125,-0.8132553100585938,0.253176212310791,0.2140970230102539
1715093648636773000,0.260773193359375,-1.8532381057739258,0.08608198165893555,-0.9116687774658203
1715093648646752300,0.270752197265625,-1.702580451965332,0.41608619689941406,-1.293534755706787
1715093648656731600,0.280731689453125,-2.1137781143188477,0.4936070442199707,-0.26523804664611816
1715093648666710800,0.290710693359375,-2.193150520324707,1.0882868766784668,-0.34262871742248535
1715093648676659700,0.30065966796875,-3.4591283798217773,0.4240717887878418,1.3562891483306885
1715093648686638800,0.310638916015625,-3.447817802429199,0.367800235748291,0.06770896911621094
1715093648696618000,0.320617919921875,-2.360727310180664,-0.04845905303955078,-0.7864643335342407
1715093648706567000,0.33056689453125,-2.407334327697754,-0.6641249656677246,-0.8335747718811035
1715093648716546000,0.340546142578125,-2.0191593170166016,-0.5343036651611328,-0.6337970495223999
1715093648726525400,0.350525390625,-2.199599266052246,-0.45119571685791016,-0.40081465244293213
1715093648736474000,0.36047412109375,-3.1476802825927734,-0.9090251922607422,-0.32998794317245483
1715093648746453200,0.370453369140625,-3.280266761779785,-1.3483953475952148,-0.2218230962753296
1715093648756432600,0.3804326171875,0.2462148666381836,-0.7158026695251465,-0.09689739346504211
1715093648766381300,0.39038134765625,-0.1942577362060547,-0.8909897804260254,-0.012791484594345093
1715093648776360400,0.4003603515625,-1.3284502029418945,-1.7995505332946777,0.13280841708183289
1715093648786344000,0.410343994140625,-1.8374547958374023,-2.330615520477295,1.4718430042266846
1715093648796292600,0.420292724609375,-3.69854736328125,-2.5302534103393555,1.7077019214630127
1715093648806271700,0.430271728515625,-6.140369415283203,-1.9964523315429688,1.7644450664520264
1715093648816251100,0.440251220703125,-9.373279571533203,0.4592018127441406,-0.3156026005744934
1715093648826230300,0.450230224609375,-3.531998634338379,-1.7987828254699707,0.14952903985977173
1715093648836209700,0.460209716796875,-1.0490360260009766,-2.247819185256958,0.9772253632545471
1715093648846158300,0.470158447265625,-0.7627859115600586,-1.875103235244751,0.8508527278900146
1715093648856137500,0.480137451171875,-0.5965070724487305,-1.5786011219024658,0.4999815821647644
1715093648866116900,0.490116943359375,11.711447715759277,0.20615386962890625,-5.590346336364746
1715093648876096000,0.500095947265625,11.472116470336914,0.4606587886810303,-5.897670269012451
1715093648886044700,0.510044677734375,5.411896705627441,-1.5392711162567139,-5.5548882484436035
1715093648896024000,0.520024169921875,2.465456962585449,-4.173435211181641,-3.546119213104248
1715093648906003200,0.530003173828125,-1.6452503204345703,-5.646685600280762,-3.5763750076293945
1715093648915952000,0.5399521484375,-4.347245216369629,-7.8820343017578125,-3.326143980026245
1715093648925931300,0.54993115234375,-6.399334907531738,-9.72419548034668,-4.645264625549316
1715093648935910400,0.559910400390625,-5.70186710357666,-10.6796293258667,-7.118017196655273
1715093648945859300,0.569859375,-2.0397567749023438,-11.279760360717773,-11.213871955871582
1715093648955838500,0.57983837890625,2.4091272354125977,-13.627432823181152,-11.68197250366211
1715093648965817900,0.58981787109375,4.565849304199219,-11.785890579223633,-3.7195913791656494
1715093648975766500,0.5997666015625,1.0794668197631836,-9.443084716796875,2.4078259468078613
1715093648985745700,0.60974560546875,-4.34426212310791,-11.058646202087402,7.277332782745361
1715093648995725000,0.61972509765625,-7.804746627807617,-12.585448265075684,10.418014526367188
1715093649005673700,0.629673828125,-8.896673202514648,-11.225467681884766,11.978644371032715
1715093649015652900,0.63965283203125,-9.371307373046875,-9.66173267364502,11.220318794250488
1715093649025632300,0.64963232421875,-9.394059181213379,-6.9169535636901855,10.638145446777344
1715093649035581000,0.659580810546875,-9.31006908416748,-6.457387924194336,10.086624145507812
1715093649045560000,0.66956005859375,-9.111712455749512,-5.70102596282959,10.466850280761719
1715093649055539500,0.67953955078125,-10.39182186126709,0.4676785469055176,18.662288665771484
1715093649065488100,0.689488037109375,-10.13156509399414,6.8908185958862305,26.49317169189453
1715093649075467500,0.699467529296875,-9.978691101074219,8.48829174041748,26.874191284179688
1715093649085446700,0.70944677734375,-13.402219772338867,0.5314177870750427,19.97952651977539
1715093649095425800,0.71942578125,-15.794565200805664,-4.548885345458984,9.401641845703125
1715093649105365200,0.729365234375,-10.06641960144043,-5.2064208984375,1.6893234252929688
1715093649115344600,0.7393447265625,-1.2824769020080566,-11.291585922241211,-6.89756965637207
1715093649125323800,0.74932373046875,13.779271125793457,-8.951839447021484,-7.58783483505249
1715093649135303000,0.759302978515625,15.000214576721191,-7.381113529205322,-4.272012233734131
1715093649145282300,0.7692822265625,11.413541793823242,-5.90641450881958,-0.9158806800842285
1715093649155231000,0.77923095703125,7.109119892120361,-4.921996116638184,-2.350245952606201
1715093649165210400,0.78921044921875,6.500133991241455,-3.109816074371338,-4.293764591217041
1715093649175189500,0.799189453125,9.459245681762695,-3.247478485107422,-4.779679298400879
1715093649185138200,0.80913818359375,10.231195449829102,-1.7581839561462402,-4.819467544555664
1715093649195117600,0.81911767578125,8.040567398071289,0.11101007461547852,-3.0511209964752197
1715093649205096700,0.8290966796875,8.82010269165039,-0.335512638092041,-3.912285089492798
1715093649215045400,0.83904541015625,11.356924057006836,-0.30484628677368164,-4.247993469238281
1715093649225024800,0.849024658203125,15.043554306030273,1.0219612121582031,-1.9116487503051758
1715093649235004000,0.85900390625,15.75930118560791,0.6341447830200195,-1.9051451683044434
1715093649244952600,0.86895263671875,15.779958724975586,0.5758914947509766,-2.2717716693878174
1715093649254932000,0.878931884765625,15.168098449707031,1.8375353813171387,-2.6338906288146973
1715093649264911000,0.8889111328125,13.781538009643555,3.2217860221862793,-0.20585274696350098
1715093649274860000,0.898860107421875,15.85783576965332,3.8460140228271484,-0.5235339403152466
1715093649284839200,0.908839111328125,12.331591606140137,4.26347017288208,0.9766826629638672
1715093649294818300,0.918818359375,9.439131736755371,3.348971366882324,1.7536221742630005
1715093649304767200,0.928767333984375,9.976396560668945,6.138096809387207,5.8597307205200195
1715093649314746400,0.938746337890625,10.539237976074219,8.72156047821045,8.493963241577148
1715093649324725800,0.948725830078125,10.04258918762207,8.05894660949707,9.394471168518066
1715093649334674400,0.95867431640625,8.397188186645508,7.400469779968262,9.803204536437988
1715093649344653600,0.968653564453125,5.177070617675781,7.367898464202881,9.693153381347656
1715093649354633000,0.978633056640625,1.2596020698547363,7.609272003173828,11.048866271972656
1715093649364581600,0.98858154296875,-2.459744930267334,7.863906383514404,11.801939964294434
1715093649374548200,0.99854833984375,-3.6617860794067383,7.502115726470947,12.657824516296387
1715093649384527600,1.008527587890625,-4.727926254272461,6.983504295349121,13.775627136230469
1715093649394506800,1.0185068359375,-7.338733673095703,7.9948625564575195,13.78049373626709
1715093649404486100,1.028486083984375,-6.66906213760376,5.949624538421631,13.129928588867188
1715093649414434800,1.038434814453125,-4.450139045715332,-3.466681480407715,14.053033828735352
1715093649424414000,1.0484140625,-6.125352382659912,-9.515840530395508,8.138789176940918
1715093649434393300,1.058393310546875,-3.856919765472412,-8.373531341552734,0.8021851778030396
1715093649444372500,1.06837255859375,-1.160634994506836,-2.302943229675293,0.1266706883907318
1715093649454321400,1.0783212890625,-2.790825605392456,-0.9650592803955078,0.18850278854370117
1715093649464300500,1.088300537109375,-3.414090633392334,-0.25509071350097656,1.7378143072128296
1715093649474279700,1.09827978515625,-3.1550467014312744,2.221487045288086,1.42305588722229
1715093649484228600,1.108228515625,-0.7027482986450195,3.5341386795043945,3.2296762466430664
1715093649494207700,1.118207763671875,-1.9807682037353516,-3.4896860122680664,3.967775344848633
1715093649504187100,1.128187255859375,0.05779874324798584,-10.62991714477539,2.443694591522217
1715093649514135800,1.1381357421875,2.4552505016326904,-12.580020904541016,-1.1704509258270264
1715093649524115000,1.148114990234375,2.716557025909424,-10.425960540771484,-1.046653389930725
1715093649534094300,1.15809423828125,1.4679616689682007,-5.511731147766113,1.8486688137054443
1715093649544051000,1.168051025390625,-0.048702120780944824,-4.326327323913574,2.2357521057128906
1715093649554030000,1.178030029296875,-0.43911468982696533,-3.73968505859375,0.5289475917816162
1715093649564009500,1.188009521484375,-0.8376487493515015,-2.170060157775879,-1.0718631744384766
1715093649573958100,1.197958251953125,-1.0636231899261475,-1.182830810546875,-0.3141026496887207
1715093649583937300,1.207937255859375,-0.7914015054702759,-1.0393123626708984,-0.13904809951782227
1715093649593916700,1.217916748046875,-1.1686878204345703,-1.1937589645385742,-1.2485427856445312
1715093649603865300,1.227865234375,-0.9048880934715271,-1.1843929290771484,-3.8814339637756348
1715093649613838800,1.2378388671875,0.2546059787273407,0.5977001190185547,-7.166376113891602
1715093649623818000,1.24781787109375,-0.45332854986190796,0.13812685012817383,-9.781599044799805
1715093649633766700,1.2577666015625,0.40550723671913147,0.6819291114807129,-8.656665802001953
1715093649643746000,1.26774609375,0.8217683434486389,2.3344168663024902,-8.820465087890625
1715093649653725200,1.27772509765625,1.090266227722168,2.6587610244750977,-11.814658164978027
1715093649663704600,1.28770458984375,1.8793599605560303,2.2325968742370605,-15.917885780334473
1715093649673653200,1.2976533203125,2.889385223388672,1.0232830047607422,-14.371644020080566
1715093649683632400,1.30763232421875,3.3976688385009766,1.4218673706054688,-5.560023307800293
1715093649693611800,1.31761181640625,4.154135704040527,1.6010141372680664,6.8612799644470215
1715093649703591000,1.3275908203125,3.077871799468994,1.899205207824707,12.96334457397461
1715093649713570300,1.3375703125,0.704542875289917,2.1656570434570312,15.470342636108398
1715093649723519000,1.34751904296875,2.686830520629883,3.841273307800293,10.492655754089355
1715093649733498000,1.357498046875,0.857891321182251,2.6874256134033203,8.82795524597168
1715093649743477500,1.3674775390625,-1.2857136726379395,2.317715644836426,7.301871299743652
1715093649753426200,1.37742626953125,0.7066461443901062,5.032167434692383,3.961994171142578
1715093649763426800,1.3874267578125,-2.9336702823638916,1.8143892288208008,4.21713924407959
1715093649773406000,1.397406005859375,-6.037140846252441,-6.069755554199219,1.4446440935134888
1715093649783354600,1.407354736328125,-3.286614179611206,-7.161673545837402,0.17989492416381836
1715093649793334000,1.417333984375,-1.895036220550537,-6.085996627807617,2.1385042667388916
1715093649803313200,1.427313232421875,-0.5084183216094971,-7.554144859313965,2.9517016410827637
1715093649813261800,1.43726171875,-0.36312663555145264,-9.236479759216309,1.8468031883239746
1715093649823241200,1.4472412109375,-0.5544477701187134,-6.941190719604492,0.5363157987594604
1715093649833220400,1.457220458984375,-0.668947696685791,-6.364930152893066,-0.4458425045013428
1715093649843169000,1.4671689453125,0.010339677333831787,-5.5093994140625,-1.6795876026153564
1715093649853148400,1.4771484375,-0.7823557257652283,-3.0505380630493164,-2.6254119873046875
1715093649863127600,1.48712744140625,-2.4886693954467773,-1.351243019104004,0.6335989236831665
1715093649873076500,1.497076416015625,-0.8975328207015991,-0.9817981719970703,4.053060531616211
1715093649883055600,1.5070556640625,3.5905661582946777,-0.7562026977539062,2.0808463096618652
1715093649893034800,1.51703466796875,4.772653102874756,0.03472709655761719,0.6860727071762085
1715093649902983700,1.526983642578125,4.186436653137207,0.7623939514160156,-0.6236351728439331
1715093649912962800,1.536962890625,2.8624820709228516,3.2270116806030273,-0.24648821353912354
1715093649922942200,1.546942138671875,3.036224365234375,5.250324249267578,0.6788626909255981
1715093649932891000,1.556890869140625,2.8710007667541504,4.765925407409668,2.578796863555908
1715093649942870000,1.5668701171875,2.195643663406372,3.8086509704589844,1.5142923593521118
1715093649952849400,1.576849365234375,1.1751270294189453,2.6239490509033203,1.4204185009002686
1715093649962828500,1.58682861328125,-1.1577256917953491,2.7728233337402344,2.0017833709716797
1715093649972808000,1.596807861328125,1.2075135707855225,2.4207897186279297,1.2197061777114868
1715093649982756600,1.606756591796875,1.054118037223816,1.5444908142089844,1.9704489707946777
1715093649992735700,1.61673583984375,-0.2640596628189087,0.17609786987304688,1.5309338569641113
1715093650002715100,1.626715087890625,-1.9832687377929688,-0.5859546661376953,1.0386862754821777
1715093650012694300,1.6366943359375,-1.833846092224121,-1.108428955078125,0.6228373050689697
1715093650022643200,1.646643310546875,-0.9033710360527039,-1.245351791381836,0.3703871965408325
1715093650032622300,1.656622314453125,-1.520713210105896,-0.5041275024414062,0.7066332697868347
1715093650042601700,1.666601806640625,-0.9256548285484314,1.944535255432129,-0.2649326026439667
1715093650052550400,1.67655029296875,-0.0401858389377594,3.196141242980957,-0.9325205087661743
1715093650062529500,1.686529541015625,0.2574567198753357,5.551255226135254,-0.6784611940383911
1715093650072509000,1.696509033203125,-0.8683703541755676,5.667405128479004,0.1747903823852539
1715093650082457600,1.70645751953125,-0.9697641730308533,5.205055236816406,-0.029325395822525024
1715093650092437000,1.71643701171875,-0.39820432662963867,5.185617446899414,-0.6811801195144653
1715093650102416100,1.726416015625,1.0488306283950806,6.148797988891602,-0.8722832202911377
1715093650112364800,1.73636474609375,1.9149657487869263,8.748746871948242,-0.9439903497695923
1715093650122344200,1.74634423828125,2.7456870079040527,5.42803955078125,2.094841241836548
1715093650132323300,1.7563232421875,3.1643552780151367,-0.46966552734375,2.9652106761932373
1715093650142272000,1.76627197265625,3.3071439266204834,-2.0275869369506836,3.644716501235962
1715093650152251400,1.77625146484375,2.389016628265381,-2.3448047637939453,4.737207889556885
1715093650162230500,1.78623046875,1.1150686740875244,-5.4340715408325195,5.19990873336792
1715093650172179200,1.79617919921875,2.628089189529419,-6.401887893676758,5.077898979187012
1715093650182158600,1.80615869140625,2.071110725402832,-7.072991371154785,2.5363194942474365
1715093650192137700,1.8161376953125,-1.5349992513656616,-10.613978385925293,-5.712578296661377
1715093650202086700,1.826086669921875,-2.6896378993988037,-11.6791353225708,-16.565492630004883
1715093650212065800,1.836065673828125,-1.231612205505371,-6.370469093322754,-3.8602147102355957
1715093650222045000,1.846044921875,-2.2305140495300293,-11.005022048950195,2.990596294403076
1715093650231993900,1.855993896484375,-2.3859052658081055,-6.7769575119018555,-0.047775864601135254
1715093650241973000,1.865972900390625,-1.976939082145691,-5.259707450866699,-0.6700282692909241
1715093650251952400,1.875952392578125,-1.0180809497833252,-4.795500755310059,0.5633335709571838
1715093650261931500,1.885931640625,0.2632113993167877,-2.9113168716430664,1.8512715101242065
1715093650271910700,1.89591064453125,1.8723313808441162,-0.4063081741333008,2.1934826374053955
1715093650281859600,1.905859619140625,2.518667697906494,3.0615358352661133,2.300363540649414
1715093650291838700,1.915838623046875,3.7549877166748047,4.448235511779785,1.122319221496582
1715093650301817900,1.92581787109375,1.5095375776290894,3.741347312927246,-0.4798019528388977
1715093650311797200,1.93579736328125,-1.0269429683685303,3.6857786178588867,-1.0166012048721313
1715093650321746000,1.945745849609375,-0.6767516136169434,3.1152515411376953,-0.030262887477874756
1715093650331725300,1.955725341796875,0.1630426049232483,1.821619987487793,0.9306105375289917
1715093650341704400,1.965704345703125,1.2952358722686768,0.6078472137451172,1.5410802364349365
1715093650351653000,1.975653076171875,-0.06950253248214722,-0.38596153259277344,2.0091793537139893
1715093650361632500,1.985632568359375,0.7297414541244507,-2.3464975357055664,2.065826892852783
1715093650371611600,1.995611572265625,5.202064037322998,1.1556453704833984,1.1382567882537842
1715093650381560300,2.005560302734375,1.5027447938919067,2.6080379486083984,1.3468836545944214
1715093650391539700,2.015539794921875,2.1910171508789062,2.009735107421875,1.2225161790847778
1715093650401518800,2.025518798828125,1.1364611387252808,1.9985284805297852,1.237363576889038
1715093650411467500,2.035467529296875,0.7011695504188538,1.7011756896972656,1.5367648601531982
1715093650421447000,2.045447021484375,1.5232990980148315,1.452834129333496,0.8392825126647949
1715093650431426000,2.055426025390625,1.1682325601577759,2.51961612701416,-0.5596281886100769
1715093650441375000,2.065375,1.1719367504119873,2.3559160232543945,0.0577816367149353
1715093650451354000,2.07535400390625,1.6527061462402344,2.2029638290405273,0.027162015438079834
1715093650461333200,2.085333251953125,1.0820438861846924,2.1143579483032227,0.024470269680023193
1715093650471282200,2.0952822265625,0.08403730392456055,1.842031478881836,-1.658212661743164
1715093650481261300,2.10526123046875,-1.3928829431533813,1.0220699310302734,-3.9398272037506104
1715093650491240700,2.11524072265625,-2.6981019973754883,-1.9619054794311523,-2.343752384185791
1715093650501189400,2.125189453125,-2.752781867980957,-4.905426025390625,-2.8887953758239746
1715093650511168500,2.13516845703125,-2.1146373748779297,-5.988101959228516,-1.766785740852356
1715093650521148000,2.14514794921875,-1.7872934341430664,-6.374402046203613,-0.6769744753837585
1715093650531127000,2.155126953125,-1.8226773738861084,-4.770784378051758,-0.4628586173057556
1715093650541106400,2.1651064453125,-1.4528177976608276,-2.0044736862182617,0.5291357636451721
1715093650551055000,2.17505517578125,-0.9517592787742615,-0.005725860595703125,1.2521940469741821
1715093650561034200,2.1850341796875,-0.10985362529754639,1.1954574584960938,1.1009830236434937
1715093650571013600,2.195013671875,0.8178339004516602,1.8986797332763672,1.0363837480545044
1715093650580962300,2.20496240234375,1.4471263885498047,2.7079601287841797,0.7864795923233032
1715093650590941400,2.21494140625,1.537619948387146,4.113598823547363,-0.21293890476226807
1715093650600920800,2.2249208984375,1.20664644241333,3.4895877838134766,-0.19443178176879883
1715093650610900000,2.23489990234375,0.8252453804016113,2.456171989440918,0.29155588150024414
1715093650620848600,2.2448486328125,0.2641294002532959,1.4494705200195312,-0.2198408842086792
1715093650630828000,2.254828125,-0.48731863498687744,1.1211128234863281,-1.320056438446045
1715093650640807200,2.26480712890625,-1.1379767656326294,0.560877799987793,-1.7746118307113647
1715093650650756000,2.274756103515625,-1.6158534288406372,0.34032344818115234,-1.8374078273773193
1715093650660735200,2.2847353515625,-1.422816514968872,0.6238422393798828,-1.550386667251587
1715093650670714400,2.29471435546875,-0.9295693635940552,0.8472757339477539,-1.256483554840088
1715093650680663300,2.304663330078125,-0.4653325080871582,0.8398962020874023,-1.169612169265747
1715093650690642400,2.314642333984375,-0.239953875541687,0.8868350982666016,-0.8111215829849243
1715093650700621600,2.32462158203125,-0.16001546382904053,1.0432567596435547,-0.4072345495223999
1715093650710570500,2.334570556640625,-0.15096616744995117,0.801020622253418,-0.3826260566711426
1715093650720549600,2.344549560546875,-0.4015021324157715,0.7504186630249023,-0.3923226594924927
1715093650730529000,2.354529052734375,-0.42871546745300293,0.9527120590209961,-0.6826430559158325
1715093650740477700,2.364477783203125,-0.2078840732574463,0.8591670989990234,-0.8840255737304688
1715093650750456800,2.374456787109375,0.12669086456298828,0.5505561828613281,-1.0091638565063477
1715093650760436200,2.384436279296875,0.37784838676452637,-0.2813253402709961,-0.5205742120742798
1715093650770385000,2.394385009765625,0.5441771745681763,-1.430394172668457,0.3753606081008911
1715093650780364000,2.404364013671875,0.5045380592346191,-2.5617761611938477,0.6923116445541382
1715093650790343400,2.414343505859375,0.43439149856567383,-4.085229873657227,0.5834401845932007
1715093650800292000,2.4242919921875,0.4797329902648926,-5.0381879806518555,0.6400388479232788
1715093650810271200,2.434271240234375,0.6798243522644043,-6.072580337524414,0.03600764274597168
1715093650820250600,2.444250732421875,0.9518238306045532,-5.344353675842285,-1.0480186939239502
1715093650830229800,2.454229736328125,1.4258660078048706,-4.238307952880859,-1.1003581285476685
1715093650840178700,2.4641787109375,1.1196844577789307,-2.722360610961914,-0.49580371379852295
1715093650850157800,2.47415771484375,0.9967929124832153,-1.0242862701416016,-0.49529337882995605
1715093650860137000,2.484136962890625,1.019023060798645,0.32962894439697266,-1.3547248840332031
1715093650870116400,2.494116455078125,1.3068345785140991,2.1759376525878906,-2.9812238216400146
1715093650880065000,2.50406494140625,1.6254035234451294,3.7046384811401367,-3.7070953845977783
1715093650890044400,2.51404443359375,1.824824333190918,5.321141242980957,-3.7071750164031982
1715093650900023600,2.5240234375,1.6507560014724731,6.395834922790527,-2.874675989151001
1715093650910002700,2.534002685546875,1.581921100616455,6.8228302001953125,-1.924390196800232
1715093650919951600,2.54395166015625,0.6358572244644165,5.980253219604492,-0.6712932586669922
1715093650929930800,2.5539306640625,1.0690679550170898,5.283315658569336,0.13580167293548584
1715093650939910100,2.56391015625,0.7545820474624634,4.114535331726074,-0.1912192702293396
1715093650949858800,2.57385888671875,0.40474092960357666,3.761178970336914,-0.7510666251182556
1715093650959838000,2.583837890625,-0.06364405155181885,3.659132957458496,-1.132381558418274
1715093650969817300,2.5938173828125,-0.4135829210281372,3.798969268798828,-1.5781315565109253
1715093650979766000,2.60376611328125,-0.5975979566574097,3.775570869445801,-1.843906044960022
1715093650989745200,2.6137451171875,-0.39273738861083984,2.7389936447143555,-1.0102368593215942
1715093650999724500,2.623724609375,-0.24427783489227295,2.2793712615966797,-0.8963475227355957
1715093651009673200,2.633673095703125,0.28649842739105225,0.8418102264404297,-0.3430556058883667
1715093651019652400,2.64365234375,1.3956830501556396,-1.6196584701538086,0.20236659049987793
1715093651029631700,2.6536318359375,1.7634754180908203,-10.18423843383789,2.2855191230773926
1715093651039580400,2.663580322265625,0.7345085144042969,-13.344673156738281,-2.545454502105713
1715093651049559600,2.6735595703125,-0.7679387331008911,-11.096166610717773,-1.8759065866470337
1715093651059539000,2.6835390625,-1.2908101081848145,-4.941031455993652,1.0866416692733765
1715093651069487600,2.693487548828125,-1.3572382926940918,-0.9774618148803711,1.6991527080535889
1715093651079467000,2.703467041015625,-0.9978166818618774,1.1996021270751953,2.1510086059570312
1715093651089446100,2.713446044921875,-0.45654869079589844,2.335625648498535,2.365037441253662
1715093651099425300,2.72342529296875,0.18340420722961426,2.540989875793457,2.4168081283569336
1715093651109374200,2.733374267578125,1.0183501243591309,1.9343786239624023,2.3315441608428955
1715093651119353300,2.743353271484375,1.830559253692627,1.0673894882202148,2.0610995292663574
1715093651129332700,2.753332763671875,2.5465049743652344,0.5087289810180664,1.767224669456482
1715093651139311900,2.763311767578125,3.150585412979126,0.4102821350097656,1.3549108505249023
1715093651149260500,2.773260498046875,3.5688858032226562,0.52960205078125,1.1955245733261108
1715093651159240000,2.783239990234375,4.03279972076416,1.0761127471923828,1.2350229024887085
1715093651169219000,2.793218994140625,4.220093727111816,1.5714693069458008,1.63470458984375
1715093651179167700,2.803167724609375,4.478981971740723,1.8005867004394531,2.5582189559936523
1715093651189147100,2.813147216796875,4.160401344299316,2.317246437072754,2.9902234077453613
1715093651199126300,2.823126220703125,3.705965757369995,2.523601531982422,3.3877174854278564
1715093651209105700,2.833105712890625,2.8672590255737305,1.9447107315063477,3.8232786655426025
1715093651219054300,2.843054443359375,2.349024534225464,0.6891717910766602,3.874053716659546
1715093651229033500,2.853033447265625,2.4016451835632324,-0.9044294357299805,3.383002758026123
1715093651239012900,2.863012939453125,3.0033047199249268,-2.6237125396728516,2.5386219024658203
1715093651248961500,2.87296142578125,4.121250152587891,-4.239413261413574,1.4684491157531738
1715093651258940700,2.882940673828125,5.383108139038086,-5.485100746154785,0.7567017078399658
1715093651268920000,2.892920166015625,5.919146537780762,-6.1807098388671875,0.6674957275390625
1715093651278868700,2.90286865234375,5.246306419372559,-5.978960037231445,1.0432839393615723
1715093651288848100,2.91284814453125,4.403780460357666,-4.7978010177612305,1.6520206928253174
1715093651298827300,2.9228271484375,3.9078869819641113,-3.3578882217407227,2.4275074005126953
1715093651308776000,2.93277587890625,3.404778003692627,-2.2583656311035156,2.964536428451538
1715093651318755300,2.94275537109375,2.486250162124634,-0.9844703674316406,3.53617787361145
1715093651328734500,2.952734375,1.210329294204712,0.7209405899047852,3.8348679542541504
1715093651338683100,2.96268310546875,0.010467529296875,2.4038610458374023,3.1553242206573486
1715093651348662500,2.97266259765625,-0.7017662525177002,3.7308292388916016,1.5758863687515259
1715093651358641700,2.9826416015625,-1.1167696714401245,4.547660827636719,-0.6280332803726196
1715093651368590300,2.99259033203125,-1.9129968881607056,4.353231430053711,-4.084902286529541
1715093651378569700,3.00256982421875,-2.559587001800537,3.078584671020508,-6.5824971199035645
1715093651388548900,3.012548828125,-2.6491551399230957,1.5922260284423828,-7.32526159286499
1715093651398528300,3.0225283203125,-2.6207804679870605,0.6517524719238281,-7.289304733276367
1715093651408507400,3.03250732421875,-4.121574401855469,-1.073878288269043,-8.1836576461792
1715093651418456000,3.0424560546875,-4.987552642822266,-3.092794418334961,-9.158618927001953
1715093651428435500,3.052435546875,-4.084808826446533,-5.04725456237793,-7.728568077087402
1715093651438414600,3.06241455078125,-4.346861839294434,-6.947484016418457,-5.0620341300964355
1715093651448394000,3.07239404296875,-3.6431705951690674,-8.129544258117676,-1.4315037727355957
1715093651458342700,3.0823427734375,-4.815451622009277,-8.132615089416504,1.2039635181427002
1715093651468321800,3.09232177734375,-4.119568824768066,-5.024550437927246,7.523423194885254
1715093651478301200,3.10230126953125,-6.527264595031738,-3.694390296936035,9.157541275024414
1715093651488249900,3.112249755859375,-8.281598091125488,-3.241335868835449,8.878189086914062
1715093651498229000,3.12222900390625,-7.845892906188965,-0.8683328628540039,8.170560836791992
1715093651508208400,3.13220849609375,-5.920840263366699,1.586461067199707,6.307644844055176
1715093651518157000,3.142156982421875,-3.267578601837158,2.7360286712646484,4.376585960388184
1715093651528136400,3.152136474609375,-1.5760884284973145,2.4850120544433594,2.328551769256592
1715093651538115600,3.162115478515625,-0.17284655570983887,1.2744989395141602,1.143362283706665
1715093651548064300,3.172064208984375,-0.11184704303741455,0.2528676986694336,-0.14986932277679443
1715093651558043600,3.182043701171875,0.39862287044525146,0.3355894088745117,-0.9954804182052612
1715093651568022800,3.192022705078125,1.390052318572998,1.3383417129516602,-1.6585426330566406
1715093651577971500,3.201971435546875,1.342237114906311,2.464855194091797,-1.6817712783813477
1715093651587950800,3.211950927734375,1.296960711479187,3.2876195907592773,-2.3394906520843506
1715093651597930000,3.221929931640625,-2.9020442962646484,5.640552520751953,-2.671417236328125
1715093651607878700,3.231878662109375,-1.6370958089828491,5.49400520324707,-4.1443328857421875
1715093651617858000,3.241858154296875,-1.625895380973816,4.966695785522461,-5.441593170166016
1715093651627837200,3.251837158203125,-0.6251774430274963,3.981522560119629,-5.219216823577881
1715093651637786000,3.2617861328125,2.0968565940856934,1.8212471008300781,-2.3901379108428955
1715093651647765200,3.27176513671875,3.2523207664489746,0.5614213943481445,-2.4820830821990967
1715093651657744400,3.281744384765625,0.19301122426986694,1.2975482940673828,0.6707965135574341
1715093651667723800,3.291723876953125,0.4662555456161499,1.4519147872924805,0.2449030578136444
1715093651677672400,3.30167236328125,0.5252370834350586,0.8144912719726562,-0.22518759965896606
1715093651687651800,3.31165185546875,0.39863765239715576,0.31192588806152344,0.2565390169620514
1715093651697631000,3.321630859375,0.5611666440963745,-0.11766815185546875,0.30796265602111816
1715093651707610000,3.331610107421875,0.5464797019958496,-0.29007625579833984,0.0639798641204834
1715093651717589500,3.341589599609375,0.4373549222946167,-0.05427742004394531,-0.28038907051086426
1715093651727538200,3.3515380859375,0.5668051242828369,0.5328388214111328,-0.3038564622402191
1715093651737517600,3.361517578125,0.9229663610458374,1.1158666610717773,0.03614810109138489
1715093651747496700,3.37149658203125,1.3719992637634277,1.5824832916259766,0.691903829574585
1715093651757445400,3.3814453125,1.5590219497680664,1.6137266159057617,1.917894721031189
1715093651767424800,3.3914248046875,2.1351776123046875,1.7166900634765625,3.9036221504211426
1715093651777404000,3.40140380859375,2.1553540229797363,1.894094467163086,5.626433372497559
1715093651787352600,3.4113525390625,1.782212734222412,1.2048254013061523,6.689496994018555
1715093651797332000,3.42133203125,1.4573692083358765,0.5386257171630859,7.3271098136901855
1715093651807311000,3.43131103515625,0.5230278968811035,-2.0830821990966797,6.504007816314697
1715093651817259800,3.441259765625,-0.5207341909408569,-3.6778764724731445,4.8307671546936035
1715093651827239200,3.4512392578125,-1.3136926889419556,-5.229250907897949,1.9309977293014526
1715093651837218300,3.46121826171875,0.6700338125228882,-6.537663459777832,-1.1598566770553589
1715093651847167000,3.4711669921875,4.845248699188232,-7.5052385330200195,-4.203888893127441
1715093651857146400,3.481146484375,4.879759788513184,-5.596117973327637,-5.0963287353515625
1715093651867125500,3.49112548828125,1.6505258083343506,-1.8091106414794922,-3.056649684906006
1715093651877074400,3.501074462890625,-1.7412790060043335,-1.75067138671875,0.45878374576568604
1715093651887053600,3.511053466796875,-1.1131376028060913,-3.9625444412231445,4.028441905975342
1715093651897032700,3.52103271484375,-2.938419818878174,-3.807469367980957,2.8648083209991455
1715093651906981600,3.530981689453125,-8.749031066894531,-5.48033332824707,-1.9526809453964233
1715093651916960800,3.540960693359375,-6.963438034057617,-10.144611358642578,-4.434243679046631
1715093651926940200,3.550940185546875,-6.939774990081787,-11.378377914428711,-5.6821393966674805
1715093651936888800,3.560888916015625,-3.6135852336883545,-5.77001953125,-7.03691291809082
1715093651946868000,3.570867919921875,-1.9738081693649292,0.06039142608642578,-5.256340980529785
1715093651956847400,3.580847412109375,-1.5773026943206787,2.1426830291748047,-1.4354469776153564
1715093651966826500,3.590826416015625,-0.28978148102760315,3.7648181915283203,1.1962887048721313
1715093651976806000,3.600805908203125,1.3002020120620728,5.1156110763549805,2.2590951919555664
1715093651986754600,3.610754638671875,0.7776499390602112,5.630495071411133,1.2378700971603394
1715093651996733700,3.620733642578125,0.13617384433746338,6.097234725952148,0.03099679946899414
1715093652006713000,3.630713134765625,0.38421815633773804,5.425931930541992,-1.0727607011795044
1715093652016692200,3.640692138671875,1.151680588722229,3.7132644653320312,-1.3945705890655518
1715093652026641000,3.650640869140625,1.177914023399353,1.2208881378173828,-3.458949089050293
1715093652036620300,3.660620361328125,0.7195996046066284,-1.3105525970458984,-6.191458702087402
1715093652046599400,3.670599365234375,-0.038855552673339844,-3.2078208923339844,-8.508625030517578
1715093652056548000,3.680548095703125,-1.1254035234451294,-3.8306236267089844,-10.331683158874512
1715093652066527500,3.690527587890625,-1.8553529977798462,-2.1500606536865234,-11.052816390991211
1715093652076506600,3.700506591796875,-0.17102909088134766,1.0609245300292969,-9.02613353729248
1715093652086455600,3.71045556640625,2.6972644329071045,4.078106880187988,-6.038634777069092
1715093652096434700,3.7204345703125,4.423694610595703,6.087299346923828,-5.062535762786865
1715093652106413800,3.730413818359375,5.579327583312988,7.321433067321777,-3.9487509727478027
1715093652116362800,3.74036279296875,4.9504899978637695,7.364368438720703,-2.857457160949707
1715093652126342000,3.750341796875,3.257802963256836,6.3350934982299805,-2.0385923385620117
1715093652136321300,3.7603212890625,1.2430403232574463,4.561040878295898,-0.6761459112167358
1715093652146270000,3.77027001953125,0.515005350112915,2.1721067428588867,1.2736252546310425
1715093652156249000,3.7802490234375,0.12817776203155518,-0.20475101470947266,2.7833445072174072
1715093652166228500,3.790228515625,-0.25309908390045166,-2.4484500885009766,3.5465736389160156
1715093652176177200,3.80017724609375,-0.7647345662117004,-3.6668577194213867,3.9521055221557617
1715093652186156300,3.81015625,-0.991073489189148,-3.239222526550293,4.183651447296143
1715093652196135700,3.8201357421875,-0.9871996641159058,-1.9165191650390625,3.4928128719329834
1715093652206084400,3.83008447265625,-0.998483419418335,-0.49152565002441406,2.8478152751922607
1715093652216063500,3.8400634765625,-0.7535622715950012,0.6177787780761719,2.991058588027954
1715093652226043000,3.85004296875,-0.7888832092285156,1.299860954284668,3.1711971759796143
1715093652235991600,3.859991455078125,-0.716469407081604,1.5218420028686523,3.2645678520202637
1715093652245970700,3.869970703125,-0.52773118019104,1.461038589477539,3.5477898120880127
1715093652255950000,3.8799501953125,-0.2723783254623413,1.2679786682128906,3.6399986743927
1715093652265929200,3.88992919921875,-0.220566987991333,1.0518465042114258,3.9232072830200195
1715093652275908600,3.89990869140625,-0.5129737854003906,0.5175790786743164,3.917546033859253
1715093652285857300,3.909857177734375,0.4179821014404297,0.1727447509765625,3.624582290649414
1715093652295836400,3.91983642578125,2.405426025390625,-0.02132701873779297,2.599724769592285
1715093652305815800,3.92981591796875,3.345790147781372,0.03344917297363281,1.2691295146942139
1715093652315795000,3.939794921875,6.653860092163086,0.10173702239990234,-0.2890998125076294
1715093652325743900,3.949743896484375,6.737923622131348,1.0294113159179688,-1.3229107856750488
1715093652335723000,3.959722900390625,6.493290901184082,2.307859420776367,-0.8873429298400879
1715093652345702100,3.9697021484375,6.5446906089782715,2.5982446670532227,0.0996059775352478
1715093652355651000,3.979651123046875,5.712855339050293,2.3871192932128906,0.7111386060714722
1715093652365630200,3.989630126953125,3.662900924682617,1.0774202346801758,0.8952086567878723
1715093652375609600,3.999609619140625,3.291128396987915,-1.1795730590820312,0.42399898171424866
1715093652385558300,4.009558349609375,2.943258047103882,-3.628387451171875,-0.4266755282878876
1715093652395537400,4.019537353515625,2.6838197708129883,-5.354851722717285,-1.104117512702942
1715093652405516800,4.029516845703125,2.5143656730651855,-6.42999267578125,-1.7452199459075928
1715093652415465500,4.039465576171875,4.605719566345215,-6.39335823059082,-1.706877589225769
1715093652425444600,4.049444580078125,4.808049201965332,-4.328153610229492,0.12248349189758301
1715093652435424000,4.059424072265625,1.3965413570404053,-1.8477468490600586,2.158233165740967
1715093652445372700,4.06937255859375,0.7841389179229736,0.6203231811523438,3.1672840118408203
1715093652455351800,4.079351806640625,0.1562488079071045,2.6336002349853516,3.544191837310791
1715093652465331200,4.089331298828125,-0.6138205528259277,3.8827924728393555,3.7041168212890625
1715093652475280000,4.09927978515625,-0.5639430284500122,4.431181907653809,2.693840265274048
1715093652485259300,4.10925927734375,-0.7199262380599976,4.163445472717285,0.7019760608673096
1715093652495238400,4.11923828125,-1.4522143602371216,3.2769203186035156,-1.734174132347107
1715093652505187000,4.12918701171875,-2.1651806831359863,2.3199329376220703,-4.557093620300293
1715093652515166500,4.13916650390625,-3.3618414402008057,0.7882232666015625,-7.022234916687012
1715093652525145600,4.1491455078125,-5.009908676147461,-1.3639888763427734,-8.440122604370117
1715093652535125000,4.159125,-5.956795692443848,-3.9917850494384766,-10.245393753051758
1715093652545104100,4.169104248046875,-6.452904224395752,-7.488286972045898,-12.859881401062012
1715093652555052800,4.179052734375,-6.657464504241943,-11.82186222076416,-12.803400993347168
1715093652565032200,4.1890322265625,-5.9629998207092285,-13.911367416381836,-7.554769039154053
1715093652575011300,4.19901123046875,-5.643298625946045,-12.188925743103027,-0.1462240219116211
1715093652584990500,4.208990478515625,-6.233948230743408,-6.943147659301758,6.853010654449463
1715093652594939400,4.218939453125,-6.859057426452637,-3.988408088684082,8.013322830200195
1715093652604918500,4.22891845703125,-6.595578193664551,-1.210296630859375,10.789812088012695
1715093652614898000,4.23889794921875,-4.677425384521484,2.0057878494262695,11.36768627166748
1715093652624846600,4.2488466796875,-3.9588875770568848,3.7279958724975586,7.783464431762695
1715093652634825700,4.25882568359375,-3.334765911102295,4.561420440673828,5.939028263092041
1715093652644805000,4.26880517578125,-3.550234317779541,4.303666114807129,4.766999244689941
1715093652654753800,4.27875390625,-2.4111108779907227,3.50026798248291,2.546431064605713
1715093652664733000,4.28873291015625,-0.42331135272979736,2.897345542907715,0.5754586458206177
1715093652674712300,4.29871240234375,1.07229483127594,2.3562803268432617,-1.2911020517349243
1715093652684643000,4.30864306640625,1.5877063274383545,1.9715261459350586,-2.325392723083496
1715093652694622500,4.31862255859375,0.9073866605758667,2.173755645751953,-3.1620633602142334
1715093652704601600,4.3286015625,-0.048155903816223145,3.041520118713379,-3.3787615299224854
1715093652714550500,4.338550537109375,-0.38566362857818604,4.009565353393555,-3.1800031661987305
1715093652724529700,4.34852978515625,-0.6400463581085205,4.170746803283691,-2.85791277885437
1715093652734508800,4.3585087890625,-0.36751091480255127,3.9169931411743164,-2.9599361419677734
1715093652744457700,4.368457763671875,-0.32584309577941895,3.360642433166504,-3.05214524269104
1715093652754436900,4.378436767578125,-0.20111584663391113,2.8596181869506836,-3.284292697906494
1715093652764416300,4.388416259765625,0.17966902256011963,2.7274370193481445,-3.4238386154174805
1715093652774365000,4.398364990234375,0.4298185110092163,2.667250633239746,-3.2162513732910156
1715093652784344000,4.408343994140625,0.9555082321166992,2.7307395935058594,-2.879025936126709
1715093652794323500,4.418323486328125,1.101595163345337,2.439448356628418,-2.139517307281494
1715093652804272000,4.428272216796875,1.0233793258666992,2.069334030151367,-1.4753267765045166
1715093652814251300,4.438251220703125,1.1313574314117432,1.7308597564697266,-0.9215637445449829
1715093652824230700,4.448230712890625,1.3063839673995972,1.4311962127685547,-0.03479498624801636
1715093652834209800,4.458209716796875,1.5753306150436401,1.4372119903564453,1.7633239030838013
1715093652844189200,4.468189208984375,2.480203628540039,1.6198816299438477,3.981703042984009
1715093652854137900,4.478137939453125,2.8158481121063232,1.3252191543579102,6.074109077453613
1715093652864117000,4.488116943359375,2.1794466972351074,0.20291614532470703,7.19696044921875
1715093652874096400,4.498096435546875,1.5873762369155884,-1.3565130233764648,8.058984756469727
1715093652884075500,4.508075439453125,0.9481782913208008,-3.145681381225586,8.112143516540527
1715093652894024200,4.518024169921875,-1.421173334121704,-5.110844612121582,6.020632266998291
1715093652904003600,4.528003662109375,-4.13054084777832,-6.601604461669922,1.9639701843261719
1715093652913982700,4.537982666015625,-3.4653635025024414,-7.7969255447387695,-2.191354513168335
1715093652923931600,4.547931640625,0.8979784250259399,-8.56457233428955,-5.168565273284912
1715093652933910800,4.557910888671875,4.8832173347473145,-6.330845832824707,-4.7572736740112305
1715093652943890000,4.567889892578125,2.5221071243286133,-1.4857406616210938,-1.8109049797058105
1715093652953838800,4.5778388671875,2.1953864097595215,0.5079402923583984,0.31588900089263916
1715093652963818000,4.58781787109375,0.22326993942260742,-0.2392740249633789,0.4283589720726013
1715093652973797400,4.59779736328125,-1.1586058139801025,-0.7797880172729492,0.8015047907829285
1715093652983746000,4.60774609375,-5.07716178894043,-5.701395034790039,-0.3993036150932312
1715093652993725200,4.61772509765625,-7.984646320343018,-11.286792755126953,0.05323866009712219
1715093653003704600,4.62770458984375,-9.024017333984375,-12.405311584472656,-4.031442642211914
1715093653013653200,4.6376533203125,-5.9155778884887695,-9.155769348144531,-9.035258293151855
1715093653023632400,4.64763232421875,-3.0135607719421387,-2.5399961471557617,-7.074958801269531
1715093653033611800,4.65761181640625,-2.0395405292510986,1.387242317199707,-2.766115427017212
1715093653043560400,4.667560546875,0.525023341178894,2.0887889862060547,0.3336317539215088
1715093653053539600,4.67753955078125,3.3399884700775146,2.9450788497924805,2.507906436920166
1715093653063519000,4.68751904296875,3.3671875,4.459722518920898,2.495145320892334
1715093653073467600,4.697467529296875,1.533163070678711,5.532549858093262,0.015708446502685547
1715093653083446800,4.70744677734375,0.547619640827179,5.51541805267334,-1.6783007383346558
1715093653093426200,4.71742626953125,0.8913431167602539,4.097719192504883,-2.68234920501709
1715093653103405300,4.7274052734375,1.068383812904358,2.4509410858154297,-4.235621452331543
1715093653113354200,4.737354248046875,0.7616353034973145,-0.387176513671875,-6.5752644538879395
1715093653123333400,4.74733349609375,-0.23300814628601074,-1.5537681579589844,-7.803371906280518
1715093653133312500,4.7573125,-1.0156643390655518,-2.1834354400634766,-7.843909740447998
1715093653143292000,4.7672919921875,-0.5385524034500122,-1.4907159805297852,-7.687121868133545
1715093653153271000,4.77727099609375,0.9490450620651245,0.8276081085205078,-7.2608418464660645
1715093653163220000,4.787219970703125,2.6627674102783203,3.432506561279297,-5.11166524887085
1715093653173199000,4.79719921875,3.9619810581207275,5.355228424072266,-4.1761932373046875
1715093653183178200,4.80717822265625,4.218973636627197,6.551413536071777,-3.6027023792266846
1715093653193127200,4.817127197265625,3.163738250732422,6.677430152893066,-3.023831367492676
1715093653203106300,4.827106201171875,2.3111863136291504,6.041860580444336,-0.8069089651107788
1715093653213085700,4.837085693359375,1.7443151473999023,4.090792655944824,1.0603349208831787
1715093653223034400,4.847034423828125,1.0389994382858276,1.5769414901733398,2.580578565597534
1715093653233013500,4.857013427734375,0.6181703805923462,-0.4705696105957031,4.189233779907227
1715093653242993000,4.866992919921875,0.6231495141983032,-2.2468957901000977,4.779465675354004
1715093653252941600,4.876941650390625,0.4464590549468994,-3.1605825424194336,4.962886810302734
1715093653262920700,4.886920654296875,-0.13753604888916016,-2.5835914611816406,4.833083629608154
1715093653272900000,4.896900146484375,-0.14079546928405762,-1.1836471557617188,3.7904839515686035
1715093653282848800,4.906848876953125,-0.7806942462921143,0.035964012145996094,2.9854726791381836
1715093653292828000,4.916827880859375,-1.3774182796478271,0.6518011093139648,2.50032639503479
1715093653302807300,4.926807373046875,-1.281005859375,0.9007587432861328,1.8660364151000977
1715093653312756000,4.936755859375,-0.6877309083938599,0.7860002517700195,1.556509256362915
1715093653322735400,4.9467353515625,0.17628419399261475,0.5619192123413086,1.7033238410949707
1715093653332714500,4.956714599609375,0.32120490074157715,0.4535484313964844,2.13427734375
1715093653342663200,4.9666630859375,3.2502458095550537,0.3982124328613281,2.436004400253296
1715093653352642600,4.976642578125,5.441156387329102,0.6505470275878906,2.78625750541687
1715093653362621700,4.98662158203125,7.56868839263916,1.2756338119506836,2.2765300273895264
1715093653372570400,4.9965703125,7.7124199867248535,2.7748050689697266,1.85096275806427
1715093653382549800,5.0065498046875,6.334446907043457,4.112298011779785,1.6539115905761719
1715093653392529000,5.01652880859375,4.4695658683776855,4.6702680587768555,1.067044973373413
1715093653402508300,5.02650830078125,2.271411180496216,3.8190174102783203,0.2990439534187317
1715093653412487400,5.0364873046875,1.0879123210906982,1.5909423828125,0.4819748103618622
1715093653422436000,5.04643603515625,0.5843696594238281,-1.3679475784301758,0.9025107622146606
1715093653432415500,5.05641552734375,2.1539978981018066,-3.9023303985595703,0.9117357134819031
1715093653442394600,5.06639453125,3.441263198852539,-5.2374372482299805,0.36951935291290283
1715093653452374000,5.0763740234375,4.961019992828369,-5.102938652038574,0.4215800166130066
1715093653462322700,5.08632275390625,7.019222259521484,-3.6339550018310547,1.5879034996032715
1715093653472301800,5.0963017578125,5.852353572845459,-1.4294042587280273,2.7925148010253906
1715093653482281200,5.10628125,2.9705238342285156,0.20715045928955078,2.845597743988037
1715093653492230000,5.11622998046875,1.3741334676742554,1.3846073150634766,2.2719149589538574
1715093653502209000,5.126208984375,-1.0795973539352417,1.978581428527832,1.8357815742492676
1715093653512188400,5.1361884765625,-2.075939893722534,1.7043962478637695,0.18266910314559937
1715093653522137000,5.14613720703125,-2.539381742477417,0.5352926254272461,-2.345059394836426
1715093653532116200,5.1561162109375,-2.3182263374328613,-1.2774286270141602,-4.929624080657959
1715093653542095600,5.166095703125,-2.5932061672210693,-2.9877986907958984,-6.688490867614746
1715093653552044300,5.176044189453125,-4.587421417236328,-3.8651905059814453,-8.287078857421875
1715093653562023700,5.186023681640625,-6.130076885223389,-4.920982360839844,-10.178627014160156
1715093653572002800,5.1960029296875,-6.702064037322998,-7.129850387573242,-12.941353797912598
1715093653581951500,5.205951416015625,-7.35405158996582,-9.78896713256836,-13.367266654968262
1715093653591931000,5.215930908203125,-7.382967472076416,-11.425217628479004,-8.968832015991211
1715093653601910000,5.225909912109375,-6.439689636230469,-10.485053062438965,-3.4446358680725098
1715093653611858700,5.235858642578125,-6.647538185119629,-6.728711128234863,3.2538366317749023
1715093653621838000,5.245838134765625,-5.281073570251465,-2.639434814453125,10.866044044494629
1715093653631817200,5.255817138671875,-5.617337226867676,-1.8119373321533203,12.387853622436523
1715093653641766000,5.265765869140625,-5.148620128631592,-0.4074287414550781,14.389204978942871
1715093653651745300,5.275745361328125,-4.718470573425293,1.9411506652832031,12.445402145385742
1715093653661724400,5.285724365234375,-4.252452850341797,4.770020484924316,9.88343334197998
1715093653671703800,5.295703857421875,-4.197357654571533,5.651515007019043,7.624979019165039
1715093653681652500,5.305652587890625,-3.2014968395233154,5.089504241943359,4.724949836730957
1715093653691631600,5.315631591796875,-1.0148019790649414,4.325897216796875,2.124239206314087
1715093653701611000,5.325611083984375,1.215213418006897,3.520449638366699,-0.4761562645435333
1715093653711590100,5.335590087890625,2.5850446224212646,2.6440210342407227,-2.5184686183929443
1715093653721569500,5.345569580078125,2.4647321701049805,2.0177230834960938,-4.013500690460205
1715093653731518200,5.355518310546875,1.6654468774795532,2.1760244369506836,-5.246811389923096
1715093653741497300,5.365497314453125,0.8350114822387695,2.5430755615234375,-5.440886497497559
1715093653751476700,5.375476806640625,0.7539682388305664,2.8842315673828125,-5.266110420227051
1715093653761425400,5.38542529296875,0.423797607421875,2.946714401245117,-5.3638081550598145
1715093653771404800,5.39540478515625,0.12613987922668457,3.0544700622558594,-4.859829902648926
1715093653781384000,5.405384033203125,-0.6243273019790649,2.117525100708008,-3.4959888458251953
1715093653791332600,5.41533251953125,-1.176576018333435,2.095735549926758,-2.89094614982605
1715093653801312000,5.42531201171875,-1.6681361198425293,2.4240903854370117,-2.4248151779174805
1715093653811291100,5.435291015625,-1.226690649986267,2.442962646484375,-2.312753677368164
1715093653821239800,5.44523974609375,-0.36155056953430176,1.9306459426879883,-1.738046407699585
1715093653831219200,5.45521923828125,0.4737204313278198,1.3652896881103516,-1.0089688301086426
1715093653841198300,5.4651982421875,1.660121202468872,1.2110347747802734,0.3757258653640747
1715093653851147000,5.47514697265625,2.4100074768066406,1.1882314682006836,2.4691226482391357
1715093653861126400,5.48512646484375,2.7556262016296387,2.149968147277832,6.088541030883789
1715093653871105500,5.49510546875,2.6262619495391846,3.316575050354004,8.675497055053711
1715093653881054200,5.50505419921875,2.5151479244232178,2.7574920654296875,8.662620544433594
1715093653891033600,5.51503369140625,2.606314182281494,0.8470602035522461,7.82249116897583
1715093653901012700,5.5250126953125,2.1644887924194336,-1.1886968612670898,5.3558220863342285
1715093653910961700,5.534961669921875,1.255400538444519,-3.0700273513793945,2.3785455226898193
1715093653920940800,5.54494091796875,-0.0783454179763794,-5.201805114746094,-1.0754276514053345
1715093653930920000,5.554919921875,1.415468454360962,-7.151512145996094,-5.35355806350708
1715093653940868900,5.564868896484375,4.227385997772217,-7.389778137207031,-7.590219974517822
1715093653950848000,5.574847900390625,1.1665077209472656,-3.377760887145996,-6.163816928863525
1715093653960827400,5.584827392578125,-4.30494499206543,0.6363658905029297,-2.3049259185791016
1715093653970806500,5.594806640625,-6.280022621154785,-1.9304790496826172,-0.5805339813232422
1715093653980785700,5.60478564453125,-3.7564613819122314,-9.352273941040039,1.5758856534957886
1715093653990734600,5.614734619140625,-4.34721565246582,-15.43836784362793,4.320492267608643
1715093654000713700,5.624713623046875,-5.2891130447387695,-14.296745300292969,0.8621931076049805
1715093654010693000,5.634693115234375,-5.674380779266357,-10.549309730529785,-4.421295642852783
1715093654020672300,5.64467236328125,-6.735977649688721,-4.654630661010742,-8.204556465148926
1715093654030621000,5.654620849609375,-4.534719944000244,0.41240692138671875,-7.741111755371094
1715093654040600300,5.664600341796875,-0.3345412611961365,2.6725616455078125,-2.9036834239959717
1715093654050579500,5.674579345703125,2.200860023498535,3.4646100997924805,0.9023096561431885
1715093654060528000,5.684528076171875,3.1797189712524414,3.671738624572754,2.9369235038757324
1715093654070507500,5.694507568359375,2.8521573543548584,3.960742950439453,2.1586098670959473
1715093654080486700,5.704486572265625,1.824514389038086,4.596977233886719,-0.6501405239105225
1715093654090435300,5.714435302734375,1.2066715955734253,4.295619010925293,-2.0829336643218994
1715093654100414700,5.724414794921875,1.3635482788085938,2.797757148742676,-3.741283655166626
1715093654110393900,5.734393798828125,1.4118201732635498,1.0898675918579102,-5.5062360763549805
1715093654120342800,5.7443427734375,0.8789809942245483,-0.4241981506347656,-6.901925563812256
1715093654130322000,5.754322021484375,0.7986947894096375,-1.3716392517089844,-7.273509979248047
1715093654140301000,5.764301025390625,-0.31308192014694214,-1.762740135192871,-6.3412933349609375
1715093654150250000,5.77425,-0.8335238695144653,-0.6215295791625977,-5.965658664703369
1715093654160229000,5.78422900390625,0.14534366130828857,1.462265968322754,-5.557191848754883
1715093654170208300,5.794208251953125,1.7133008241653442,3.2101688385009766,-4.633095741271973
1715093654180157200,5.8041572265625,2.7731151580810547,4.115873336791992,-4.754098415374756
1715093654190136300,5.81413623046875,3.05039644241333,4.811766624450684,-4.499098300933838
1715093654200115700,5.82411572265625,2.1956377029418945,4.95407772064209,-3.5439364910125732
1715093654210064400,5.834064453125,1.1168732643127441,4.391427993774414,-2.537838935852051
1715093654220043500,5.84404345703125,0.5406314134597778,3.291640281677246,-0.855863094329834
1715093654230023000,5.85402294921875,0.8008660078048706,2.0907535552978516,0.4159771800041199
1715093654239971600,5.8639716796875,0.8681247234344482,0.6438713073730469,2.0574662685394287
1715093654249950700,5.87395068359375,0.8543633222579956,-0.9632663726806641,3.0606653690338135
1715093654259930000,5.88393017578125,1.1125805377960205,-1.9803495407104492,3.9186830520629883
1715093654269909200,5.8939091796875,1.5772491693496704,-2.0666799545288086,4.324524879455566
1715093654279888600,5.903888671875,1.8643983602523804,-1.4564123153686523,4.145418643951416
1715093654289837300,5.91383740234375,1.2786533832550049,-0.4826841354370117,3.513674259185791
1715093654299816400,5.92381640625,0.677072286605835,0.39994335174560547,2.844594955444336
1715093654309795800,5.9337958984375,0.2658369541168213,0.9939022064208984,2.5726215839385986
1715093654319775000,5.94377490234375,0.593008279800415,1.1952095031738281,2.44059419631958
1715093654329723600,5.9537236328125,1.1850526332855225,1.3644580841064453,2.6971042156219482
1715093654339703000,5.963703125,2.618586778640747,1.547943115234375,3.1463429927825928
1715093654349682200,5.97368212890625,3.6030080318450928,1.9705076217651367,3.9671988487243652
1715093654359631000,5.983631103515625,7.652439117431641,2.575779914855957,4.0251617431640625
1715093654369610200,5.9936103515625,8.199310302734375,3.49678897857666,3.6689610481262207
1715093654379589400,6.00358935546875,6.0350799560546875,4.5565595626831055,2.8265488147735596
1715093654389568800,6.01356884765625,2.6849613189697266,4.707527160644531,1.768114447593689
1715093654399517400,6.023517333984375,0.289700984954834,2.9845142364501953,1.6005834341049194
1715093654409496800,6.033496826171875,0.9757990837097168,-0.4157238006591797,1.2701034545898438
1715093654419476000,6.04347607421875,3.143169641494751,-3.3600234985351562,1.4903182983398438
1715093654429424600,6.053424560546875,4.594225883483887,-5.141383171081543,0.3701702058315277
1715093654439404000,6.063404052734375,6.478978633880615,-5.181809425354004,-1.4922984838485718
1715093654449383200,6.073383056640625,8.665316581726074,-4.547329902648926,-1.4425612688064575
1715093654459331800,6.083331787109375,7.896627902984619,-2.766378402709961,0.018627047538757324
1715093654469311200,6.093311279296875,3.476738929748535,-0.6478548049926758,1.4971998929977417
1715093654479290400,6.103290283203125,1.1608784198760986,0.7647218704223633,2.087707757949829
1715093654489239000,6.113239013671875,-0.45816707611083984,1.3783435821533203,2.8887808322906494
1715093654499218400,6.123218505859375,-0.9648244380950928,2.1090173721313477,3.546599864959717
1715093654509197600,6.133197509765625,-2.6100194454193115,2.2052135467529297,2.9613261222839355
1715093654519146500,6.143146484375,-3.443911075592041,1.793344497680664,0.7292529940605164
1715093654529125600,6.153125732421875,-2.6302998065948486,1.222886085510254,-2.5652108192443848
1715093654539104800,6.163104736328125,-3.565584897994995,-0.14377212524414062,-5.323309898376465
1715093654549084200,6.173084228515625,-5.177783012390137,-2.5905914306640625,-7.702719688415527
1715093654559063300,6.183063232421875,-5.60725212097168,-6.218362808227539,-10.37104606628418
1715093654569012000,6.193011962890625,-5.311695575714111,-9.783952713012695,-13.494589805603027
1715093654578991400,6.202991455078125,-4.788644790649414,-14.265284538269043,-15.155517578125
1715093654588970500,6.212970458984375,-4.277962684631348,-17.03354263305664,-12.817821502685547
1715093654598950000,6.222949951171875,-5.945667743682861,-15.068340301513672,-6.999244689941406
1715093654608898600,6.232898681640625,-8.540680885314941,-9.269929885864258,0.871374249458313
1715093654618877700,6.242877685546875,-8.28571891784668,-1.7211837768554688,9.956013679504395
1715093654628857000,6.252857177734375,-8.7008056640625,0.46503639221191406,10.906381607055664
1715093654638805800,6.2628056640625,-6.428147315979004,1.6946220397949219,11.645376205444336
1715093654648785200,6.27278515625,-4.3804473876953125,2.7544641494750977,9.736169815063477
1715093654658764300,6.282764404296875,-2.9103357791900635,4.00445556640625,8.128805160522461
1715093654668713000,6.292712890625,-3.5380678176879883,3.694692611694336,6.769462585449219
1715093654678692400,6.3026923828125,-2.52420711517334,3.3027267456054688,5.26515531539917
1715093654688671500,6.31267138671875,-0.022579550743103027,2.7116270065307617,2.6097702980041504
1715093654698620200,6.3226201171875,2.007697105407715,2.4141845703125,0.2526276111602783
1715093654708599600,6.332599609375,3.1702513694763184,2.128720283508301,-1.5171698331832886
1715093654718578700,6.34257861328125,2.7778849601745605,2.8089218139648438,-2.473421335220337
1715093654728527400,6.35252734375,1.614569902420044,3.804366111755371,-3.3269593715667725
1715093654738506800,6.3625068359375,0.7280548810958862,4.6378679275512695,-3.631089210510254
1715093654748486000,6.37248583984375,0.03436243534088135,4.697338104248047,-3.678741931915283
1715093654758434800,6.382434814453125,-0.33231353759765625,4.76426887512207,-3.5339832305908203
1715093654768414000,6.3924140625,-0.4936707019805908,4.349997520446777,-3.8277246952056885
1715093654778393000,6.40239306640625,-0.843836784362793,3.6358089447021484,-3.810932159423828
1715093654788353000,6.41235302734375,-0.7285966873168945,3.3248348236083984,-3.7157998085021973
1715093654798332400,6.42233251953125,-0.5392228364944458,3.5904054641723633,-3.425441265106201
1715093654808311600,6.4323115234375,0.18629992008209229,3.7360076904296875,-3.428225040435791
1715093654818291000,6.442291015625,1.1459589004516602,3.52276611328125,-3.1139986515045166
1715093654828239600,6.452239501953125,1.4008238315582275,3.0561084747314453,-2.1657443046569824
1715093654838218800,6.46221875,1.7926039695739746,2.1520957946777344,-1.144087314605713
1715093654848198100,6.4721982421875,1.9901798963546753,1.300588607788086,0.6982289552688599
1715093654858177300,6.48217724609375,2.6003975868225098,1.8106880187988281,4.763091087341309
1715093654868126000,6.4921259765625,2.678130626678467,1.9059953689575195,6.860751152038574
1715093654878105300,6.502105224609375,2.0138840675354004,-0.18930435180664062,6.569730758666992
1715093654888084500,6.51208447265625,1.4621806144714355,-3.259737014770508,6.228885650634766
1715093654898033200,6.522033203125,1.3114548921585083,-5.30341911315918,3.9945483207702637
1715093654908012500,6.532012451171875,1.675592303276062,-6.653489112854004,-0.8924816846847534
1715093654917991700,6.54199169921875,0.5063273906707764,-7.841490745544434,-4.9823689460754395
1715093654927971000,6.55197119140625,2.000197172164917,-7.957921981811523,-5.423935413360596
1715093654937919700,6.561919677734375,3.1600046157836914,-4.735284805297852,-3.550992965698242
1715093654947899000,6.57189892578125,1.3997355699539185,-0.331329345703125,-2.0123202800750732
1715093654957878300,6.581878173828125,-4.213265419006348,0.22735309600830078,-0.0884171649813652
1715093654967827000,6.591826904296875,-6.6454572677612305,-4.566307067871094,-0.22789892554283142
1715093654977806300,6.601806396484375,-5.802757740020752,-14.266246795654297,1.467037320137024
1715093654987785500,6.611785400390625,-9.088530540466309,-21.965221405029297,1.4901212453842163
1715093654997734100,6.621734130859375,-7.338976860046387,-17.57868194580078,-0.8233987092971802
1715093655007713500,6.631713623046875,-5.707456588745117,-6.553694725036621,-5.728816986083984
1715093655017692700,6.641692626953125,-6.023667335510254,0.4685039520263672,-7.464789867401123
1715093655027641300,6.651641357421875,-2.587502956390381,3.9014883041381836,-3.614109992980957
1715093655037620700,6.661620849609375,2.3889811038970947,4.768926620483398,0.28385138511657715
1715093655047599900,6.671599853515625,3.4652557373046875,5.526427268981934,1.3446670770645142
1715093655057548500,6.681548583984375,3.515158176422119,6.941231727600098,1.5041842460632324
1715093655067528000,6.69152783203125,2.6419622898101807,6.96866512298584,-0.5506576895713806
1715093655077507000,6.701507080078125,1.357369303703308,6.290278434753418,-2.5610084533691406
1715093655087455700,6.711455810546875,0.32552415132522583,4.759382247924805,-3.7408905029296875
1715093655097435100,6.72143505859375,-0.410744309425354,2.7380552291870117,-4.617068767547607
1715093655107414300,6.731414306640625,-0.5152587890625,0.04900836944580078,-6.728498458862305
1715093655117393700,6.7413935546875,-0.22514480352401733,-2.3522844314575195,-7.783982753753662
1715093655127342300,6.75134228515625,0.09973132610321045,-3.748623847961426,-6.887819766998291
1715093655137321500,6.761321533203125,-0.035261332988739014,-2.9618749618530273,-5.858833312988281
1715093655147300900,6.77130078125,1.0202134847640991,0.6563148498535156,-5.977306842803955
1715093655157280000,6.781280029296875,2.625412940979004,3.8881778717041016,-4.736908435821533
1715093655167229000,6.79122900390625,4.008682727813721,5.716107368469238,-4.690940856933594
1715093655177208000,6.8012080078125,4.123447895050049,6.633243560791016,-4.647341251373291
1715093655187187200,6.811187255859375,2.5990281105041504,6.365633964538574,-3.783505439758301
1715093655197136100,6.82113623046875,1.6838061809539795,5.2043304443359375,-1.8088487386703491
1715093655207115300,6.831115234375,2.001964569091797,3.87404727935791,0.7724722623825073
1715093655217094700,6.8410947265625,1.788164496421814,1.912984848022461,3.4213368892669678
1715093655227073800,6.85107373046875,2.266533374786377,-0.07590007781982422,4.860914707183838
1715093655237022500,6.8610224609375,2.39640474319458,-1.418405532836914,5.8387131690979
1715093655247001900,6.871001953125,1.278171420097351,-2.5181665420532227,5.65605354309082
1715093655256981000,6.88098095703125,-0.07606124877929688,-2.5754270553588867,5.137484550476074
1715093655266929700,6.8909296875,-1.2424728870391846,-1.4576692581176758,4.408129692077637
1715093655276909000,6.900908935546875,-1.8101089000701904,-0.3248767852783203,3.2011168003082275
1715093655286888200,6.91088818359375,-2.294638156890869,0.3468618392944336,2.27058482170105
1715093655296836900,6.9208369140625,-1.5851516723632812,0.9094924926757812,1.982696533203125
1715093655306816300,6.930816162109375,-1.474102258682251,0.9446697235107422,1.928767442703247
1715093655316795400,6.94079541015625,-0.9120627641677856,0.8929653167724609,2.139510154724121
1715093655326744300,6.950744384765625,0.028258085250854492,0.43276214599609375,2.299537181854248
1715093655336723500,6.960723388671875,2.1029229164123535,-0.036004066467285156,2.4342668056488037
1715093655346702600,6.97070263671875,4.4180145263671875,-0.24114227294921875,2.452317714691162
1715093655356651500,6.980651611328125,7.789203643798828,0.14903640747070312,1.788590431213379
1715093655366630700,6.990630615234375,9.218555450439453,0.9518718719482422,1.0389277935028076
1715093655376610000,7.000610107421875,8.136743545532227,1.8903226852416992,0.5968880653381348
1715093655386589200,7.010589111328125,5.62653923034668,2.3695287704467773,-0.18443414568901062
1715093655396537900,7.020537841796875,2.897648811340332,1.570847511291504,-0.784693717956543
1715093655406517200,7.030517333984375,1.1684868335723877,-0.42943763732910156,-0.4860870838165283
1715093655416496400,7.040496337890625,0.34099555015563965,-2.6201791763305664,0.40797144174575806
1715093655426475500,7.0504755859375,0.8023805618286133,-4.39433479309082,0.7162747383117676
1715093655436455000,7.060454833984375,1.8125452995300293,-4.981263160705566,0.9107158780097961
1715093655446403600,7.070403564453125,2.929469585418701,-4.1557769775390625,2.3295981884002686
1715093655456383000,7.080383056640625,4.001405715942383,-2.614950180053711,4.324062824249268
1715093655466362000,7.090362060546875,5.264359474182129,-0.4231119155883789,4.815131187438965
1715093655476310800,7.100310791015625,4.91887092590332,1.9427919387817383,4.430107116699219
1715093655486290200,7.110290283203125,3.654975652694702,3.894455909729004,4.008771896362305
1715093655496269300,7.120269287109375,2.5361695289611816,4.538573265075684,3.402970314025879
1715093655506218000,7.130218017578125,2.7622737884521484,4.748566627502441,1.7374027967453003
1715093655516197400,7.140197265625,1.4543125629425049,4.1583051681518555,0.02424675226211548
1715093655526176500,7.150176513671875,-0.4897174835205078,2.6317262649536133,-2.018265724182129
1715093655536125200,7.160125244140625,-1.247621774673462,0.9539566040039062,-4.169683456420898
1715093655546104600,7.1701044921875,-2.175381898880005,-0.3297395706176758,-5.7686309814453125
1715093655556083700,7.180083740234375,-4.3071112632751465,-1.9311714172363281,-6.552567481994629
1715093655566032600,7.19003271484375,-5.9849138259887695,-4.068208694458008,-8.230591773986816
1715093655576011800,7.20001171875,-7.088179111480713,-7.761211395263672,-11.359832763671875
1715093655585991000,7.209990966796875,-8.079330444335938,-11.572651863098145,-11.553138732910156
1715093655595939800,7.21993994140625,-8.64056396484375,-14.115421295166016,-8.643653869628906
1715093655605919000,7.2299189453125,-8.68467903137207,-14.308966636657715,-6.079010486602783
1715093655615898400,7.2398984375,-8.049311637878418,-10.329658508300781,-1.2064179182052612
1715093655625847000,7.249846923828125,-7.061773300170898,-4.571086883544922,6.664811611175537
1715093655635826200,7.259826171875,-5.566498756408691,-1.0321636199951172,10.360004425048828
1715093655645805600,7.2698056640625,-2.669320583343506,0.5511112213134766,10.726616859436035
1715093655655754200,7.279754150390625,-1.6985366344451904,1.585646629333496,7.489195823669434
1715093655665733400,7.2897333984375,-1.9547032117843628,2.624420166015625,4.9471516609191895
1715093655675712800,7.299712646484375,-3.754157543182373,3.03659725189209,2.6162052154541016
1715093655685692000,7.30969189453125,-4.304078102111816,3.3143787384033203,0.8281370997428894
1715093655695671300,7.31967138671875,-2.8149375915527344,3.0965662002563477,-1.8662364482879639
1715093655705620000,7.329619873046875,-0.2620915174484253,2.7935028076171875,-3.885432004928589
1715093655715599000,7.33959912109375,1.5226317644119263,2.725022315979004,-4.444389820098877
1715093655725578500,7.34957861328125,1.599548101425171,3.113405227661133,-4.197658061981201
1715093655735557600,7.3595576171875,0.8630539178848267,4.403243064880371,-2.5662004947662354
1715093655745506300,7.36950634765625,-0.06692945957183838,5.536657333374023,-0.9431010484695435
1715093655755485700,7.379485595703125,-0.9587008953094482,5.708562850952148,-0.14436614513397217
1715093655765464800,7.38946484375,-1.2521793842315674,5.2242841720581055,0.28817397356033325
1715093655775413800,7.399413818359375,-1.0097808837890625,4.230009078979492,0.3043965697288513
1715093655785393000,7.409392822265625,-0.5848091840744019,3.312807083129883,0.05681389570236206
1715093655795372000,7.4193720703125,-0.09891867637634277,2.8523311614990234,-0.09487295150756836
1715093655805321000,7.429321044921875,0.4046516418457031,2.389139175415039,-0.6680594086647034
1715093655815300000,7.439300048828125,1.109041452407837,2.324751853942871,-1.1356146335601807
1715093655825279200,7.449279296875,1.6693638563156128,2.1629581451416016,-0.802749752998352
1715093655835228200,7.459228271484375,2.136713981628418,2.107375144958496,0.8898214101791382
1715093655845207300,7.469207275390625,2.076904296875,2.1584291458129883,3.0012869834899902
1715093655855186700,7.479186767578125,1.7914713621139526,1.6944637298583984,4.366296291351318
1715093655865135400,7.48913525390625,1.8668098449707031,1.1267824172973633,5.1261444091796875
1715093655875114500,7.499114501953125,1.6200809478759766,-0.15158843994140625,5.506768226623535
1715093655885094000,7.509093994140625,1.2334837913513184,-2.1629858016967773,4.485103607177734
1715093655895042600,7.51904248046875,0.7362386584281921,-4.351273536682129,2.1998531818389893
1715093655905021700,7.529021728515625,-0.6908585429191589,-6.332749366760254,-0.04634702205657959
1715093655915001000,7.5390009765625,-2.6627345085144043,-7.983412742614746,-1.9412972927093506
1715093655924949800,7.54894970703125,-2.340043544769287,-9.483040809631348,-4.844064712524414
1715093655934929000,7.558928955078125,0.996218204498291,-8.236682891845703,-6.277987003326416
1715093655944908300,7.568908203125,3.1895029544830322,-2.7290496826171875,-4.594840049743652
1715093655954857000,7.57885693359375,2.488646984100342,2.1511240005493164,-1.58738374710083
1715093655964836400,7.58883642578125,1.6885340213775635,2.5975704193115234,-0.20041772723197937
1715093655974815500,7.5988154296875,0.18046802282333374,-0.7906465530395508,1.090429425239563
1715093655984794600,7.608794677734375,0.4323732256889343,-5.199643135070801,1.5016539096832275
1715093655994774000,7.61877392578125,-1.888137936592102,-9.307043075561523,0.869184672832489
1715093656004722700,7.62872265625,-5.903583526611328,-10.93056583404541,0.5739167928695679
1715093656014702000,7.6387021484375,-9.31618595123291,-9.255452156066895,-3.4261319637298584
1715093656024681200,7.64868115234375,-6.897504806518555,-6.02275276184082,-3.6972076892852783
1715093656034660400,7.658660400390625,-2.9991769790649414,-1.4016914367675781,-2.418287992477417
1715093656044609300,7.668609375,-0.46008768677711487,0.9883356094360352,0.005953967571258545
1715093656054588400,7.67858837890625,1.2241499423980713,1.940826416015625,1.7743611335754395
1715093656064567800,7.68856787109375,2.584613800048828,3.3893117904663086,2.3252618312835693
1715093656074516500,7.6985166015625,1.810163974761963,4.85251522064209,1.3448703289031982
1715093656084495600,7.70849560546875,1.0288349390029907,5.192519187927246,-1.261228322982788
1715093656094475000,7.71847509765625,1.7757381200790405,4.775911331176758,-2.267542839050293
1715093656104423700,7.728423583984375,2.532923698425293,4.070518493652344,-4.740975379943848
1715093656114402800,7.73840283203125,2.781334400177002,2.81754207611084,-6.4579925537109375
1715093656124382200,7.74838232421875,2.4160778522491455,1.2583351135253906,-7.468405723571777
1715093656134331000,7.758330810546875,1.289957046508789,-0.23802757263183594,-6.94983434677124
1715093656144310000,7.76831005859375,-0.9831219911575317,-1.2663211822509766,-4.271725177764893
1715093656154289400,7.778289306640625,-2.3385918140411377,-1.0682048797607422,-4.4972991943359375
1715093656164238000,7.788238037109375,-1.863898515701294,0.9228057861328125,-5.669870853424072
1715093656174217200,7.79821728515625,0.4651319980621338,2.515133857727051,-4.61167049407959
1715093656184196600,7.808196533203125,2.99029541015625,3.3554506301879883,-4.528107166290283
1715093656194145300,7.818145263671875,4.546530246734619,3.5837841033935547,-4.283999443054199
1715093656204124700,7.828124755859375,4.523355484008789,3.471123695373535,-3.7106974124908447
1715093656214103800,7.838103759765625,3.159526824951172,2.9070730209350586,-2.9669899940490723
1715093656224083000,7.8480830078125,1.613282322883606,2.4352970123291016,-1.1521743535995483
1715093656234031900,7.858031982421875,0.8933286666870117,1.7466039657592773,0.8774464130401611
1715093656244011000,7.868010986328125,0.7500585317611694,0.8237133026123047,2.3888986110687256
1715093656253990400,7.877990478515625,0.6797564029693604,-0.30806732177734375,3.1849827766418457
1715093656263969500,7.887969482421875,0.46237802505493164,-0.9420261383056641,3.304302215576172
1715093656273948700,7.89794873046875,0.6855521202087402,-0.6224241256713867,3.149261236190796
1715093656283897600,7.907897705078125,0.6121854782104492,0.009142875671386719,3.2955520153045654
1715093656293876700,7.917876708984375,0.12832999229431152,0.6397762298583984,3.2830188274383545
1715093656303856000,7.927856201171875,-0.15296661853790283,1.1283025741577148,2.9893221855163574
1715093656313835300,7.937835205078125,-0.3212096691131592,1.1813831329345703,2.4157230854034424
1715093656323784000,7.947783935546875,-0.5081251859664917,0.8475465774536133,1.71246337890625
1715093656333763300,7.957763427734375,-1.3560497760772705,0.1974620819091797,1.3874878883361816
1715093656343742500,7.967742431640625,0.4108283519744873,-0.1486034393310547,1.3482906818389893
1715093656353691100,7.977691162109375,1.7273039817810059,-0.5901222229003906,1.684889793395996
1715093656363670500,7.98767041015625,2.9613096714019775,-0.77532958984375,2.3404884338378906
1715093656373649700,7.997649658203125,5.568969249725342,-0.42650508880615234,2.2377240657806396
1715093656383598300,8.007598388671875,7.427000999450684,0.35537147521972656,1.5416104793548584
1715093656393577700,8.01757763671875,7.782923221588135,1.6668157577514648,1.2130924463272095
1715093656403556900,8.027556884765625,7.075959205627441,2.974116325378418,1.4200522899627686
1715093656413505800,8.037505859375,5.59560489654541,3.5502967834472656,1.80973482131958
1715093656423485000,8.04748486328125,3.479379892349243,2.7383508682250977,2.3493576049804688
1715093656433464000,8.057464111328125,2.5127742290496826,0.842738151550293,2.9460182189941406
1715093656443413000,8.0674130859375,2.712584972381592,-1.5679235458374023,3.1650733947753906
1715093656453392100,8.07739208984375,2.9656267166137695,-3.964779853820801,1.8666448593139648
1715093656463371500,8.08737158203125,4.144006252288818,-4.647682189941406,0.08442208170890808
1715093656473320200,8.0973203125,4.0562286376953125,-4.21427059173584,0.3790545165538788
1715093656483299300,8.10729931640625,4.790079116821289,-3.3391647338867188,1.3977434635162354
1715093656493278700,8.11727880859375,3.9765453338623047,-2.124765396118164,2.4245715141296387
1715093656503227400,8.127227294921875,3.0935356616973877,-0.2840900421142578,2.0564403533935547
1715093656513206500,8.13720654296875,1.896359920501709,1.831808090209961,1.8435704708099365
1715093656523186000,8.14718603515625,0.39299774169921875,3.139537811279297,1.7462644577026367
1715093656533165000,8.1571650390625,-0.7807985544204712,3.1825037002563477,0.36365771293640137
1715093656543113700,8.16711376953125,-1.356660008430481,2.125443458557129,-1.893235206604004
1715093656553093000,8.177093017578125,-1.8778183460235596,0.8054323196411133,-4.637927055358887
1715093656563072300,8.187072265625,-2.2285022735595703,0.032093048095703125,-6.635528087615967
1715093656573051600,8.1970517578125,-3.169055700302124,-0.6175670623779297,-7.612144470214844
1715093656583030800,8.20703076171875,-4.302731990814209,-2.4389781951904297,-8.939261436462402
1715093656592979500,8.2169794921875,-4.570869445800781,-5.433908462524414,-11.003576278686523
1715093656602958800,8.226958740234375,-5.024258136749268,-8.920896530151367,-12.577816009521484
1715093656612938000,8.23693798828125,-5.600550174713135,-12.35513687133789,-11.537766456604004
1715093656622886700,8.24688671875,-5.744097709655762,-13.44637680053711,-7.339062213897705
1715093656632866000,8.256865966796875,-6.931605339050293,-10.056570053100586,-2.0610644817352295
1715093656642845200,8.26684521484375,-9.353785514831543,-4.499334335327148,2.7676572799682617
1715093656652794000,8.276794189453126,-8.728910446166992,-1.3553314208984375,6.964035987854004
1715093656662773200,8.286773193359375,-5.029562950134277,0.8900146484375,9.97298526763916
1715093656672752400,8.29675244140625,-3.625157594680786,1.7492942810058594,8.961535453796387
1715093656682701300,8.306701416015626,-2.412325859069824,2.5640039443969727,7.639689922332764
1715093656692680400,8.316680419921875,-3.2082836627960205,3.206451416015625,6.048630714416504
1715093656702659800,8.326659912109376,-3.285862684249878,3.3116493225097656,4.549962997436523
1715093656712608500,8.3366083984375,-1.4966975450515747,3.0049266815185547,2.530524730682373
1715093656722587600,8.346587646484375,0.3145592212677002,2.669804573059082,0.5075960755348206
1715093656732567000,8.356567138671876,1.9079780578613281,2.1861572265625,-1.0640463829040527
1715093656742515700,8.366515625,1.944563627243042,1.7834110260009766,-2.076037883758545
1715093656752494800,8.376494873046875,1.00672447681427,2.3386268615722656,-2.1099913120269775
1715093656762474200,8.38647412109375,0.18670141696929932,3.1336755752563477,-1.7305853366851807
1715093656772423000,8.3964228515625,-0.1857515573501587,3.3165788650512695,-1.9351892471313477
1715093656782402000,8.406402099609375,-0.01965796947479248,3.133419990539551,-2.4548146724700928
1715093656792381400,8.41638134765625,0.4224797487258911,2.915266990661621,-3.2059223651885986
1715093656802330000,8.426330078125,1.0076308250427246,3.042147636413574,-4.1024041175842285
1715093656812309500,8.4363095703125,1.4680684804916382,3.482534408569336,-4.666440963745117
1715093656822288600,8.44628857421875,1.5879669189453125,4.04787540435791,-4.9294209480285645
1715093656832267800,8.456267822265625,1.9758964776992798,3.940768241882324,-4.480384349822998
1715093656842247200,8.4662470703125,1.717782974243164,3.616854667663574,-3.6169838905334473
1715093656852195800,8.47619580078125,1.4700204133987427,3.1625471115112305,-2.772266387939453
1715093656862175200,8.48617529296875,1.4413803815841675,2.9594955444335938,-1.2677123546600342
1715093656872154400,8.496154296875,1.3913767337799072,3.063143730163574,1.113565444946289
1715093656882133500,8.506133544921875,1.5984747409820557,2.8151168823242188,3.076450824737549
1715093656892082400,8.51608251953125,1.8718677759170532,1.6306581497192383,5.153214454650879
1715093656902061600,8.5260615234375,1.8431339263916016,-0.4882345199584961,6.95817756652832
1715093656912040700,8.536040771484375,1.435246229171753,-3.2415542602539062,8.572083473205566
1715093656921989600,8.54598974609375,1.0745456218719482,-5.949352264404297,8.885856628417969
1715093656931968800,8.55596875,-1.726271629333496,-8.467042922973633,6.355247497558594
1715093656941948200,8.5659482421875,-5.062875747680664,-9.479543685913086,2.1090521812438965
1715093656951896800,8.575896728515625,-5.089194297790527,-9.287870407104492,-2.561063766479492
1715093656961876000,8.5858759765625,-2.109884738922119,-8.041714668273926,-5.214683532714844
1715093656971855400,8.59585546875,2.904411792755127,-2.9593076705932617,-4.009814739227295
1715093656981804000,8.605803955078125,3.2614426612854004,1.958761215209961,-1.7224310636520386
1715093656991783200,8.615783203125,3.5878372192382812,1.710057258605957,-0.012288182973861694
1715093657001762600,8.625762451171875,1.9334282875061035,-1.683340072631836,1.0326201915740967
1715093657011711200,8.635711181640625,-1.135338544845581,-2.717660903930664,-0.44654858112335205
1715093657021690400,8.6456904296875,-3.1746437549591064,-6.521798133850098,-2.7274832725524902
1715093657031669800,8.655669677734375,-5.962643146514893,-12.740941047668457,-0.48655810952186584
1715093657041618400,8.665618408203125,-10.049454689025879,-14.485991477966309,-2.2150380611419678
1715093657051597800,8.675597900390626,-7.64097261428833,-7.4078369140625,-6.302288055419922
1715093657061577000,8.685576904296875,-3.3541452884674072,-0.6312379837036133,-5.289193153381348
1715093657071525600,8.695525634765625,0.4503653943538666,0.9749031066894531,0.34381216764450073
1715093657081505000,8.705505126953126,2.2318711280822754,2.729477882385254,1.2239165306091309
1715093657091484200,8.715484130859375,3.63959002494812,4.956059455871582,2.398400068283081
1715093657101432800,8.725432861328125,3.669584274291992,6.9698076248168945,1.479184627532959
1715093657111412200,8.735412109375,2.1802899837493896,7.867708206176758,-0.8827891945838928
1715093657121391400,8.745391357421875,1.3037687540054321,7.461117744445801,-2.23333740234375
1715093657131370800,8.755370849609376,0.5934754014015198,5.779059410095215,-3.9456591606140137
1715093657141350000,8.765349853515625,-0.1247183084487915,3.7754831314086914,-6.1115641593933105
1715093657151298600,8.775298583984375,-0.1447136402130127,1.4010419845581055,-7.945375919342041
1715093657161278000,8.78527783203125,-0.1317129135131836,-1.2711820602416992,-8.582112312316895
1715093657171257000,8.795257080078125,-0.32579171657562256,-3.3891172409057617,-7.333305358886719
1715093657181236500,8.805236572265626,-0.05714070796966553,-3.3416566848754883,-6.44377326965332
1715093657191185200,8.81518505859375,1.6236276626586914,-0.22205162048339844,-5.816371440887451
1715093657201164300,8.825164306640625,3.232966423034668,2.659163475036621,-4.1294074058532715
1715093657211143700,8.835143798828126,4.180563926696777,4.396135330200195,-2.9309372901916504
1715093657221092400,8.84509228515625,4.009653091430664,5.13216495513916,-1.7530025243759155
1715093657231071500,8.855071533203125,3.2569406032562256,5.019672393798828,-0.21772417426109314
1715093657241051000,8.86505078125,2.5736780166625977,4.225436210632324,1.9816222190856934
1715093657250999600,8.87499951171875,2.165431499481201,2.9684267044067383,4.100327491760254
1715093657260979000,8.88497900390625,1.7232232093811035,1.3788213729858398,5.220893859863281
1715093657270958000,8.8949580078125,0.9144152402877808,-0.21086788177490234,5.418713569641113
1715093657280906800,8.90490673828125,0.019744515419006348,-1.577620506286621,4.85440731048584
1715093657290886100,8.91488623046875,-0.7798311710357666,-2.1841163635253906,4.077413082122803
1715093657300865300,8.924865234375,-1.115218997001648,-2.100160598754883,3.3104047775268555
1715093657310814000,8.93481396484375,-1.3250336647033691,-1.7293815612792969,2.351196765899658
1715093657320793300,8.94479345703125,-0.7083472013473511,-1.110818862915039,1.771925687789917
1715093657330772500,8.9547724609375,-0.056243896484375,-0.45973682403564453,1.487161636352539
1715093657340721200,8.96472119140625,0.3513658046722412,0.08284854888916016,1.6730000972747803
1715093657350700500,8.974700439453125,0.4202432632446289,0.3664817810058594,2.07490873336792
1715093657360679700,8.9846796875,0.6417475938796997,0.5330028533935547,2.4584197998046875
1715093657370628400,8.99462841796875,1.0416316986083984,0.7010831832885742,2.495199680328369
1715093657380607700,9.004607666015625,2.682220458984375,1.1107206344604492,2.44368839263916
1715093657390587000,9.0145869140625,4.30671501159668,1.675088882446289,1.761135220527649
1715093657400566300,9.024566162109375,6.232605457305908,2.328948974609375,0.6288638114929199
1715093657410545400,9.03454541015625,7.366463661193848,2.998051643371582,-0.23511207103729248
1715093657420494000,9.044494140625,7.164282321929932,3.142788887023926,-0.6831526160240173
1715093657430473500,9.054473388671875,6.221002578735352,2.606809616088867,-0.3880184292793274
1715093657440452600,9.06445263671875,4.484407901763916,1.4869489669799805,0.906827449798584
1715093657450432000,9.074431884765625,2.203455924987793,-0.04961585998535156,2.546379804611206
1715093657460380700,9.084380615234375,0.40628790855407715,-2.345348358154297,3.276751756668091
1715093657470359800,9.09435986328125,-0.013992071151733398,-5.225319862365723,2.9319403171539307
1715093657480339200,9.104339111328125,1.7267343997955322,-7.009956359863281,1.575993299484253
1715093657490287900,9.114287841796875,3.467423915863037,-5.962273597717285,2.103766918182373
1715093657500267300,9.124267333984376,4.662950038909912,-3.2230844497680664,3.415740966796875
1715093657510246400,9.134246337890625,3.94797420501709,-0.7987833023071289,3.8946518898010254
1715093657520225500,9.1442255859375,2.8751659393310547,1.1158084869384766,3.638044595718384
1715093657530174500,9.154174560546876,2.111053705215454,2.3879032135009766,3.6871867179870605
1715093657540153600,9.164153564453125,0.7047042846679688,3.082752227783203,3.64212703704834
1715093657550133000,9.174133056640626,-0.68022620677948,2.9670515060424805,2.149071216583252
1715093657560081700,9.18408154296875,-0.6150190830230713,1.8791627883911133,-0.8110830783843994
1715093657570060800,9.194060791015625,-0.45628178119659424,0.011540412902832031,-4.326099395751953
1715093657580040200,9.204040283203126,-1.3708808422088623,-1.5687294006347656,-7.022228717803955
1715093657589988900,9.21398876953125,-3.0428969860076904,-2.7434892654418945,-9.026307106018066
1715093657599968000,9.223968017578125,-4.5639872550964355,-4.382638931274414,-11.466320991516113
1715093657609947400,9.233947509765626,-5.20621919631958,-6.8694915771484375,-13.778950691223145
1715093657619896000,9.24389599609375,-5.786091327667236,-8.977590560913086,-13.14367389678955
1715093657629875200,9.253875244140625,-6.322120666503906,-9.965744018554688,-10.08788776397705
1715093657639854600,9.2638544921875,-7.181914806365967,-9.180489540100098,-6.4815192222595215
1715093657649803300,9.27380322265625,-7.4190144538879395,-6.319089889526367,-1.6281195878982544
1715093657659782700,9.28378271484375,-6.9181132316589355,-2.2671213150024414,4.184267520904541
1715093657669761800,9.29376171875,-7.928188800811768,-0.526214599609375,7.53494930267334
1715093657679741000,9.303740966796875,-4.285560607910156,0.8641328811645508,10.560988426208496
1715093657689689900,9.31368994140625,-2.5110068321228027,1.2969398498535156,9.424409866333008
1715093657699669000,9.3236689453125,-2.0701115131378174,2.198690414428711,7.721978664398193
1715093657709648100,9.333648193359375,-3.0288686752319336,3.191793441772461,5.403116226196289
1715093657719627500,9.34362744140625,-3.1058249473571777,4.010650634765625,3.50042462348938
1715093657729576200,9.353576171875,-2.077059030532837,4.052164077758789,1.3326274156570435
1715093657739555600,9.3635556640625,-0.8410582542419434,3.4774599075317383,-0.8190951347351074
1715093657749534700,9.37353466796875,1.0107544660568237,2.6245203018188477,-3.0147430896759033
1715093657759513900,9.383513916015625,2.145235538482666,2.5464839935302734,-4.110434055328369
1715093657769462800,9.393462890625,1.796019196510315,3.3063888549804688,-4.151033878326416
1715093657779442000,9.40344189453125,1.1234636306762695,4.250520706176758,-3.573300838470459
1715093657789421300,9.41342138671875,0.6290652751922607,4.717336654663086,-3.071941375732422
1715093657799370000,9.423369873046875,0.2664802074432373,4.434502601623535,-2.938458204269409
1715093657809349000,9.43334912109375,0.16681110858917236,3.722508430480957,-2.9357519149780273
1715093657819328500,9.44332861328125,0.22184860706329346,3.0371627807617188,-2.7948296070098877
1715093657829277200,9.453277099609375,0.22401022911071777,2.5227909088134766,-2.9342355728149414
1715093657839256300,9.46325634765625,0.5326000452041626,2.318636894226074,-2.949633836746216
1715093657849235700,9.473235595703125,0.7793455123901367,2.100163459777832,-2.4902989864349365
1715093657859184400,9.483184326171875,1.0638256072998047,1.0526752471923828,-1.5769747495651245
1715093657869163500,9.49316357421875,1.2642673254013062,0.13500595092773438,-0.06867939233779907
1715093657879143000,9.503142822265625,1.3431655168533325,-0.2388172149658203,2.045287609100342
1715093657889091600,9.513091552734375,0.9240320920944214,0.1651287078857422,4.825260639190674
1715093657899071000,9.523071044921876,-0.05810701847076416,1.0263252258300781,7.662700653076172
1715093657909050000,9.533050048828125,-0.659408450126648,0.9742403030395508,9.51169490814209
1715093657918998800,9.542998779296875,-0.35253381729125977,0.18921470642089844,9.63929557800293
1715093657928978200,9.552978271484376,0.2992563843727112,-1.4012298583984375,7.529507160186768
1715093657938957300,9.562957275390625,1.076646089553833,-3.2582292556762695,4.497025012969971
1715093657948906000,9.572906005859375,0.9531500339508057,-4.972988128662109,2.004648447036743
1715093657958885400,9.582885498046876,1.2642905712127686,-6.730233192443848,-0.5654232501983643
1715093657968864500,9.592864501953125,3.8743796348571777,-7.603425025939941,-4.874713897705078
1715093657978844000,9.602843994140626,5.618842601776123,-6.25998592376709,-8.131715774536133
1715093657988823000,9.612822998046875,2.1070992946624756,-2.681197166442871,-7.027603626251221
1715093657998771700,9.622771728515625,-2.4341211318969727,-0.6047401428222656,0.045065611600875854
1715093658008751000,9.632751220703126,-3.1373260021209717,-1.7738656997680664,3.9034366607666016
1715093658018730200,9.642730224609375,-6.132566928863525,-3.957876205444336,4.352461338043213
1715093658028709600,9.652709716796876,-4.921845436096191,-9.33029556274414,3.9860284328460693
1715093658038658300,9.662658203125,-6.362523078918457,-14.116666793823242,2.625635862350464
1715093658048637400,9.672637451171875,-10.155596733093262,-13.64288330078125,-0.8267903923988342
1715093658058616800,9.682616943359376,-5.765859603881836,-6.9204511642456055,-5.5347466468811035
1715093658068565500,9.6925654296875,-2.484865188598633,-0.2204875946044922,-5.802021026611328
1715093658078544600,9.702544677734375,-0.8486108779907227,3.8070287704467773,-2.0916080474853516
1715093658088524000,9.71252392578125,1.2619006633758545,5.014267921447754,0.46791917085647583
1715093658098472700,9.72247265625,2.099898338317871,5.35697078704834,1.9206712245941162
1715093658108451800,9.732451904296875,1.6312061548233032,5.815670013427734,1.2421833276748657
1715093658118431200,9.74243115234375,1.5515103340148926,5.998649597167969,0.1355869174003601
1715093658128380000,9.7523798828125,0.995675265789032,5.649144172668457,0.020099103450775146
1715093658138359300,9.762359375,0.7564989924430847,3.6723012924194336,-0.48135900497436523
1715093658148338400,9.77233837890625,0.06499123573303223,0.7970027923583984,-1.6974502801895142
1715093658158287000,9.782287109375,-0.7192341685295105,-1.9321022033691406,-3.4808716773986816
1715093658168266500,9.7922666015625,-1.5731796026229858,-3.585927963256836,-5.316605091094971
1715093658178245600,9.80224560546875,-1.8422383069992065,-4.10861873626709,-6.776489734649658
1715093658188194300,9.8121943359375,-0.5297068357467651,-2.4176979064941406,-6.967331409454346
1715093658198173700,9.822173583984375,1.6093388795852661,0.7721996307373047,-5.3068461418151855
1715093658208152800,9.83215283203125,3.4575977325439453,3.991217613220215,-3.8647284507751465
1715093658218101500,9.8421015625,4.6257524490356445,6.2386274337768555,-3.755533218383789
1715093658228081000,9.852080810546875,4.581167221069336,8.024728775024414,-3.696964740753174
1715093658238060000,9.86206005859375,3.0814599990844727,8.857129096984863,-3.300027847290039
1715093658248039400,9.872039306640625,2.426722526550293,7.654375076293945,-1.119037389755249
1715093658257988000,9.881988037109375,2.0851564407348633,5.317460060119629,0.4690374433994293
1715093658267967200,9.89196728515625,1.9689310789108276,2.8735179901123047,1.4425758123397827
1715093658277946600,9.901946533203125,1.9241783618927002,0.48200225830078125,2.848604679107666
1715093658287925800,9.91192578125,1.4191807508468628,-2.1713552474975586,3.824476718902588
1715093658297905200,9.9219052734375,0.48045969009399414,-4.043882369995117,4.06297492980957
1715093658307853800,9.931853759765625,-0.06422114372253418,-3.7869863510131836,3.3977584838867188
1715093658317833000,9.9418330078125,-1.1112889051437378,-2.4579524993896484,2.7051568031311035
1715093658327812400,9.951812255859375,-1.6726073026657104,-1.0250873565673828,2.084256172180176
1715093658337761000,9.961760986328125,-1.4444525241851807,-0.1716318130493164,1.7782272100448608
1715093658347740400,9.971740478515626,-1.373821496963501,0.03898906707763672,1.6708388328552246
1715093658357719600,9.981719482421875,-0.8734710216522217,0.15749073028564453,1.849640130996704
1715093658367668200,9.991668212890625,-0.06485819816589355,0.09867477416992188,2.1883296966552734
1715093658377647600,10.001647705078126,1.3840177059173584,0.1436004638671875,2.3935775756835938
1715093658387626800,10.011626708984375,3.1691055297851562,0.3719329833984375,2.314354419708252
1715093658397575400,10.021575439453125,6.323033332824707,1.0982046127319336,1.678652048110962
1715093658407554800,10.031554931640626,8.753731727600098,1.778982162475586,1.2264370918273926
1715093658417534000,10.041533935546875,9.35162353515625,2.645814895629883,1.260031819343567
1715093658427513300,10.051513427734376,8.365378379821777,3.6153831481933594,1.6245418787002563
1715093658437462000,10.0614619140625,6.555127143859863,3.6816816329956055,1.776961326599121
1715093658447441200,10.071441162109375,4.8687520027160645,1.9265460968017578,1.7712666988372803
1715093658457420500,10.081420654296876,2.8812496662139893,-1.0345382690429688,2.52274227142334
1715093658467369200,10.091369140625,0.8180239200592041,-4.1179704666137695,2.473538398742676
1715093658477348400,10.101348388671875,-0.3753659725189209,-6.788722991943359,1.072479009628296
1715093658487327700,10.11132763671875,0.4851870536804199,-8.637186050415039,-1.0122658014297485
1715093658497276400,10.1212763671875,2.383380174636841,-8.515786170959473,-1.440453290939331
1715093658507255600,10.131255615234375,2.7627694606781006,-5.385112762451172,0.41562455892562866
1715093658517235000,10.14123486328125,0.7947263717651367,-1.7181177139282227,2.311511278152466
1715093658527183600,10.15118359375,-0.4140017032623291,1.0508651733398438,3.5316946506500244
1715093658537163000,10.1611630859375,-1.2475274801254272,3.089442253112793,4.355367183685303
1715093658547142100,10.17114208984375,-2.613863229751587,4.3581085205078125,4.674473285675049
1715093658557121300,10.181121337890625,-2.113485813140869,4.964147567749023,2.4350457191467285
1715093658567100700,10.1911005859375,-1.0118781328201294,4.169907569885254,-1.1514863967895508
1715093658577049300,10.20104931640625,-0.7301833629608154,2.2338314056396484,-4.717288970947266
1715093658587028700,10.21102880859375,-1.078451156616211,0.29814815521240234,-8.047374725341797
1715093658597008000,10.2210078125,-1.8999814987182617,-2.1717147827148438,-10.65086555480957
1715093658606987000,10.230987060546875,-2.9006974697113037,-5.32051944732666,-12.481420516967773
1715093658616936000,10.24093603515625,-3.4756486415863037,-8.475184440612793,-13.671977996826172
1715093658626915000,10.2509150390625,-5.342770099639893,-10.69025707244873,-12.579106330871582
1715093658636894500,10.26089453125,-6.594721794128418,-10.75313663482666,-8.10566520690918
1715093658646843100,10.270843017578125,-8.243807792663574,-8.90790843963623,-0.8493516445159912
1715093658656822300,10.280822265625,-9.658048629760742,-7.026045799255371,4.145243167877197
1715093658666801700,10.2908017578125,-8.123434066772461,-2.4742183685302734,9.581802368164062
1715093658676750300,10.300750244140625,-9.339273452758789,-0.0037145614624023438,10.558467864990234
1715093658686729500,10.3107294921875,-6.687592029571533,1.9868383407592773,11.564194679260254
1715093658696708900,10.320708984375,-4.3746657371521,3.2604923248291016,8.809471130371094
1715093658706657500,10.330657470703125,-2.5954978466033936,4.757550239562988,6.775306701660156
1715093658716636700,10.34063671875,-1.6904691457748413,4.697946548461914,4.003969669342041
1715093658726616000,10.350615966796875,-1.311804175376892,4.193472862243652,1.7283910512924194
1715093658736564700,10.360564697265625,-0.6341167688369751,3.650113105773926,0.05990034341812134
1715093658746544000,10.370544189453126,0.22581207752227783,2.8625364303588867,-1.5664596557617188
1715093658756523300,10.380523193359375,1.3615825176239014,2.1096134185791016,-2.7596559524536133
1715093658766472000,10.390471923828125,1.6856166124343872,1.6523523330688477,-3.7429819107055664
1715093658776451300,10.400451416015626,1.5994410514831543,2.1331539154052734,-4.033010959625244
1715093658786430500,10.410430419921875,1.3003441095352173,2.959500312805176,-3.5608737468719482
1715093658796379100,10.420379150390625,0.767871618270874,3.3996334075927734,-3.063786506652832
1715093658806358500,10.430358642578126,-0.08807933330535889,3.343226432800293,-2.429959774017334
1715093658816337700,10.440337646484375,-0.8090020418167114,2.9433412551879883,-1.6926307678222656
1715093658826317000,10.450317138671876,-1.2486121654510498,2.288114547729492,-1.3249092102050781
1715093658836265700,10.460265625,-1.6730377674102783,1.955160140991211,-1.3056617975234985
1715093658846244900,10.470244873046875,-1.7398865222930908,1.959024429321289,-1.5866559743881226
1715093658856224300,10.480224365234376,-0.956312894821167,2.186626434326172,-1.9347610473632812
1715093658866203400,10.490203369140625,0.47237420082092285,2.3116512298583984,-2.0485079288482666
1715093658876182800,10.500182861328126,1.4753336906433105,2.0039405822753906,-1.6181879043579102
1715093658886131500,10.51013134765625,1.877178430557251,1.3190498352050781,-0.7446707487106323
1715093658896110600,10.520110595703125,2.1414074897766113,0.825840950012207,0.6433904767036438
1715093658906090000,10.530090087890626,2.344120979309082,1.0933866500854492,3.1676905155181885
1715093658916038700,10.54003857421875,2.0014357566833496,1.593003273010254,5.612363815307617
1715093658926017800,10.550017822265625,1.3185172080993652,1.3824129104614258,7.363620281219482
1715093658935997200,10.5599970703125,0.40764904022216797,-0.057517051696777344,7.938236236572266
1715093658945945900,10.56994580078125,-0.2867814898490906,-2.3415565490722656,6.809009552001953
1715093658955925000,10.579925048828125,-0.6956605315208435,-4.295628547668457,4.903532028198242
1715093658965904400,10.589904296875,-1.3727645874023438,-6.0062665939331055,2.0350377559661865
1715093658975853000,10.59985302734375,-1.3138558864593506,-8.21824836730957,-1.2430566549301147
1715093658985832400,10.60983251953125,1.9792184829711914,-10.45382022857666,-3.721675395965576
1715093658995811600,10.6198115234375,3.179429054260254,-8.52688980102539,-3.192516326904297
1715093659005760300,10.62976025390625,3.2841787338256836,-1.9389820098876953,-2.7808055877685547
1715093659015739600,10.63973974609375,0.8368041515350342,3.0932178497314453,-2.3253462314605713
1715093659025718800,10.64971875,1.3797258138656616,2.3742847442626953,-0.30096420645713806
1715093659035667500,10.65966748046875,-0.2741013169288635,-0.18374252319335938,2.045097827911377
1715093659045646800,10.669646728515625,-3.518057107925415,-2.230637550354004,1.3069336414337158
1715093659055626000,10.6796259765625,-4.432199954986572,-7.520472526550293,-1.3142054080963135
1715093659065574700,10.68957470703125,-7.205630779266357,-13.43267822265625,0.1716526746749878
1715093659075554000,10.699553955078125,-8.332541465759277,-12.571962356567383,-2.335921287536621
1715093659085533200,10.709533203125,-4.003141403198242,-7.101062774658203,-3.531299114227295
1715093659095482000,10.719482177734376,-2.855786085128784,-1.5790681838989258,-2.0721278190612793
1715093659105461200,10.729461181640625,-1.9791730642318726,1.5169124603271484,0.2532792091369629
1715093659115440400,10.7394404296875,0.601954460144043,3.338589668273926,2.122999668121338
1715093659125419800,10.749419677734375,2.3844776153564453,4.663083076477051,2.1539249420166016
1715093659135399000,10.75939892578125,1.9972050189971924,5.754059791564941,0.49366968870162964
1715093659145347800,10.769347900390626,1.305809497833252,6.442239761352539,-1.8192880153656006
1715093659155327000,10.779326904296875,1.3333290815353394,6.407207489013672,-3.1958632469177246
1715093659165306000,10.78930615234375,1.6082385778427124,5.321646690368652,-4.154877185821533
1715093659175285500,10.799285400390625,1.7849133014678955,3.660782814025879,-4.946814060211182
1715093659185234200,10.809234130859375,1.8362711668014526,1.5189933776855469,-5.57396125793457
1715093659195213300,10.81921337890625,0.7921528816223145,-0.6040000915527344,-5.625498294830322
1715093659205192700,10.829192626953125,-0.7070111036300659,-2.5596141815185547,-5.710671901702881
1715093659215141400,10.839141357421875,-1.047858715057373,-2.921816825866699,-6.516506195068359
1715093659225120800,10.849120849609376,0.8059185743331909,-0.47432804107666016,-5.826364040374756
1715093659235100000,10.859099853515625,3.374175548553467,2.197392463684082,-4.098339080810547
1715093659245048600,10.869048583984375,5.0976152420043945,4.1683197021484375,-2.9925243854522705
1715093659255028000,10.879028076171876,5.270456314086914,5.316127777099609,-1.8758165836334229
1715093659265007000,10.889007080078125,3.939815044403076,5.608809471130371,-1.2347687482833862
1715093659274955800,10.898955810546875,2.1587753295898438,5.116263389587402,-0.11299410462379456
1715093659284935200,10.90893505859375,0.8691701889038086,3.997222900390625,1.5701707601547241
1715093659294914300,10.918914306640625,-0.20013344287872314,2.443781852722168,3.4200167655944824
1715093659304863000,10.928863037109375,-0.7966481447219849,0.669062614440918,4.439611434936523
1715093659314842400,10.93884228515625,-1.0729103088378906,-1.0741472244262695,4.467094421386719
1715093659324821500,10.948821533203125,-1.122958779335022,-2.1041526794433594,3.9339537620544434
1715093659334770400,10.9587705078125,-0.7518457174301147,-2.255660057067871,3.035508155822754
1715093659344749600,10.96874951171875,-0.640281081199646,-1.8224496841430664,2.2278716564178467
1715093659354728700,10.978728759765625,-0.9313564300537109,-1.174778938293457,1.8514704704284668
1715093659364677600,10.988677734375,-0.6408810615539551,-0.5882759094238281,1.6617918014526367
1715093659374656800,10.99865673828125,-0.37176036834716797,-0.06274700164794922,1.5626795291900635
1715093659384636200,11.00863623046875,-0.34902310371398926,0.08373069763183594,1.76832914352417
1715093659394615300,11.018615234375,0.36278581619262695,0.1510009765625,2.4043519496917725
1715093659404564000,11.02856396484375,1.1524624824523926,0.37546443939208984,2.7658112049102783
1715093659414543400,11.03854345703125,2.8457443714141846,0.5809364318847656,2.730266571044922
1715093659424522500,11.0485224609375,4.2321672439575195,0.730682373046875,2.615244150161743
1715093659434502000,11.058501953125,6.255653381347656,0.8989362716674805,1.813715934753418
1715093659444481000,11.06848095703125,7.968327522277832,1.4711570739746094,0.8906412720680237
1715093659454429700,11.0784296875,8.270082473754883,2.2807483673095703,0.126614511013031
1715093659464409000,11.0884091796875,6.930887222290039,2.977480888366699,0.30761903524398804
1715093659474388200,11.09838818359375,6.155282974243164,2.6375789642333984,1.5140886306762695
1715093659484367600,11.10836767578125,4.748466491699219,0.8188533782958984,3.1496214866638184
1715093659494316300,11.11831640625,2.1985082626342773,-1.685211181640625,4.514495372772217
1715093659504295400,11.12829541015625,1.1340854167938232,-4.1423540115356445,4.3705010414123535
1715093659514274800,11.13827490234375,2.298201084136963,-5.779339790344238,3.1359691619873047
1715093659524223500,11.148223388671875,3.7331817150115967,-5.5691728591918945,2.4222211837768555
1715093659534202600,11.15820263671875,3.310746192932129,-4.283852577209473,3.7082877159118652
1715093659544182000,11.16818212890625,2.7593703269958496,-1.9793500900268555,4.646181106567383
1715093659554130700,11.178130615234375,2.3837199211120605,-0.3620882034301758,4.751158237457275
1715093659564109800,11.18810986328125,1.4667469263076782,0.7548236846923828,3.9025919437408447
1715093659574089200,11.198089111328125,0.5579535961151123,1.2739677429199219,2.512977123260498
1715093659584038000,11.208037841796875,0.1315227746963501,1.3723230361938477,0.27817457914352417
1715093659594017000,11.21801708984375,-0.23051488399505615,0.730626106262207,-2.9247865676879883
1715093659603996400,11.227996337890625,-0.4852635860443115,-0.1960744857788086,-5.968132019042969
1715093659613945000,11.237945068359375,-1.3184950351715088,-0.6631412506103516,-8.31728744506836
1715093659623924500,11.247924560546876,-3.541656494140625,-0.8930177688598633,-10.82776165008545
1715093659633903600,11.257903564453125,-5.188455581665039,-2.2554397583007812,-13.328359603881836
1715093659643852300,11.267852294921875,-5.678224086761475,-4.718664169311523,-14.671014785766602
1715093659653831700,11.277831787109376,-6.220080375671387,-6.882065773010254,-13.958499908447266
1715093659663810800,11.287810791015625,-5.9516215324401855,-6.9774580001831055,-10.687718391418457
1715093659673759500,11.297759521484375,-5.247588634490967,-5.62001895904541,-6.007360458374023
1715093659683739000,11.30773876953125,-3.2794580459594727,-2.8182058334350586,0.4986611604690552
1715093659693718000,11.317718017578125,-3.6572256088256836,-1.6523265838623047,4.20602560043335
1715093659703697400,11.327697509765626,-5.687808036804199,-2.2690258026123047,7.392366886138916
1715093659713676500,11.337676513671875,-4.360810279846191,-2.273660659790039,11.771379470825195
1715093659723625200,11.347625244140625,-4.819246768951416,-1.79010009765625,12.84846305847168
1715093659733604600,11.3576044921875,-5.282565116882324,-0.33804893493652344,11.27060317993164
1715093659743583700,11.367583740234375,-5.739648818969727,1.6109943389892578,8.952921867370605
1715093659753563100,11.377563232421876,-4.621870994567871,2.731454849243164,6.574038982391357
1715093659763511800,11.38751171875,-2.7126259803771973,2.564791679382324,3.6825480461120605
1715093659773491000,11.397490966796875,-0.21294772624969482,2.047001838684082,0.6678171157836914
1715093659783470300,11.40747021484375,2.043529510498047,1.2766780853271484,-2.3475699424743652
1715093659793419000,11.4174189453125,2.8671655654907227,0.9420070648193359,-4.5332441329956055
1715093659803398100,11.427398193359375,2.7143821716308594,1.3987483978271484,-6.269649505615234
1715093659813377500,11.43737744140625,2.630218029022217,2.5595245361328125,-7.351451873779297
1715093659823326200,11.447326171875,2.3132858276367188,3.8183822631835938,-7.442038536071777
1715093659833305600,11.4573056640625,1.845725178718567,4.351566314697266,-6.643115043640137
1715093659843284700,11.46728466796875,1.9626976251602173,4.859261512756348,-5.48301362991333
1715093659853233400,11.4772333984375,1.2943147420883179,4.50522518157959,-4.212466239929199
1715093659863212800,11.487212890625,0.4886317253112793,4.012224197387695,-3.0719456672668457
1715093659873192000,11.49719189453125,-0.1533796787261963,3.4535207748413086,-2.1649322509765625
1715093659883140600,11.507140625,-0.311887264251709,3.1991214752197266,-1.4596930742263794
1715093659893120000,11.5171201171875,-0.06789720058441162,2.6960315704345703,-1.2578179836273193
1715093659903099100,11.52709912109375,0.4522101879119873,2.4642410278320312,-0.49809861183166504
1715093659913047800,11.5370478515625,0.698969841003418,2.0649633407592773,0.6488875150680542
1715093659923027200,11.547027099609375,1.1055548191070557,1.9799280166625977,2.4805080890655518
1715093659933006300,11.55700634765625,1.4190902709960938,2.302244186401367,5.563699722290039
1715093659942955000,11.566955078125,1.153231143951416,1.7241497039794922,7.904208183288574
1715093659952934400,11.576934326171875,0.8076032400131226,0.0018634796142578125,9.457817077636719
1715093659962913500,11.58691357421875,1.2949503660202026,-2.216538429260254,10.330577850341797
1715093659972893000,11.596892822265625,0.35424602031707764,-5.220864295959473,8.2723388671875
1715093659982841600,11.606841552734375,-1.0803954601287842,-7.2844648361206055,4.218912601470947
1715093659992820700,11.61682080078125,-2.2702343463897705,-8.095844268798828,-2.211482048034668
1715093660002800000,11.626800048828125,0.3864414691925049,-9.754314422607422,-8.848323822021484
1715093660012779300,11.636779296875,3.5108227729797363,-8.370869636535645,-9.14907455444336
1715093660022758700,11.646758544921875,3.160433769226074,-0.5684928894042969,-5.499917984008789
1715093660032707300,11.656707275390625,3.836092472076416,2.4545583724975586,-3.6757774353027344
1715093660042686500,11.6666865234375,2.6143341064453125,2.8850173950195312,-1.232903003692627
1715093660052665900,11.676665771484375,-1.68218994140625,1.9800443649291992,-0.024739086627960205
1715093660062614500,11.686614501953125,-2.7776436805725098,-0.7544622421264648,1.3846304416656494
1715093660072594000,11.696593994140626,-5.460000991821289,-10.116388320922852,3.946420907974243
1715093660082573000,11.706572998046875,-8.18163776397705,-16.316246032714844,4.8241658210754395
1715093660092521700,11.716521728515625,-9.175348281860352,-14.529182434082031,0.6773831844329834
1715093660102501000,11.726501220703126,-5.984329700469971,-8.282800674438477,-3.5395076274871826
1715093660112480300,11.736480224609375,-2.164473056793213,-2.797201156616211,-4.3597307205200195
1715093660122429000,11.746428955078125,1.345815658569336,1.7854623794555664,-2.5923714637756348
1715093660132408300,11.756408203125,4.464989185333252,4.548281669616699,-0.32751524448394775
1715093660142387500,11.766387451171875,4.594010829925537,6.401108741760254,-0.008751988410949707
1715093660152336100,11.776336181640625,3.219059944152832,7.313573837280273,-1.7621055841445923
1715093660162315500,11.7863154296875,2.323192596435547,7.468003273010254,-3.2291669845581055
1715093660172294700,11.796294677734375,1.8855550289154053,6.803285598754883,-3.9907500743865967
1715093660182243600,11.80624365234375,1.542236089706421,4.785300254821777,-5.306047439575195
1715093660192222700,11.81622265625,1.5433329343795776,2.00991153717041,-6.1870245933532715
1715093660202201900,11.826201904296875,1.4856640100479126,-1.0651683807373047,-7.030378818511963
1715093660212150800,11.83615087890625,-0.512320876121521,-3.0206079483032227,-5.60934591293335
1715093660222130000,11.8461298828125,-1.5181773900985718,-3.7311697006225586,-5.100464820861816
1715093660232109300,11.856109375,-0.325414776802063,-2.2126636505126953,-6.659630298614502
1715093660242058000,11.86605810546875,1.5721871852874756,0.8682670593261719,-5.622036933898926
1715093660252037000,11.876037109375,3.1166181564331055,3.4460830688476562,-4.361477851867676
1715093660262016500,11.8860166015625,3.591057777404785,5.090276718139648,-3.9332478046417236
1715093660271995600,11.89599560546875,3.591601848602295,6.22524356842041,-3.423999071121216
1715093660281974800,11.905974853515625,2.240889072418213,6.175177574157715,-2.4294703006744385
1715093660291923700,11.915923828125,1.0721222162246704,5.159902572631836,-0.5476002097129822
1715093660301902800,11.92590283203125,0.6024454832077026,3.7138566970825195,1.6780717372894287
1715093660311882200,11.93588232421875,0.7011806964874268,1.950789451599121,3.1285581588745117
1715093660321861400,11.945861328125,0.7250007390975952,-0.05869865417480469,3.758225917816162
1715093660331810000,11.95581005859375,0.698336124420166,-1.8839178085327148,3.7644293308258057
1715093660341789400,11.96578955078125,0.3800387382507324,-2.876504898071289,3.303260087966919
1715093660351768600,11.9757685546875,-0.0842205286026001,-2.6861705780029297,2.9758589267730713
1715093660361748000,11.985748046875,-0.6393420696258545,-1.9935111999511719,2.2565088272094727
1715093660371696600,11.995696533203125,-0.5575739145278931,-1.259969711303711,1.4919421672821045
1715093660381675800,12.00567578125,-0.7138371467590332,-0.5256061553955078,1.4744901657104492
1715093660391655200,12.0156552734375,-0.5811975002288818,0.029646873474121094,1.9655818939208984
1715093660401603800,12.025603759765625,-0.6870956420898438,0.2581472396850586,2.3859663009643555
1715093660411583000,12.0355830078125,0.37859606742858887,0.4182882308959961,2.5363709926605225
1715093660421562400,12.045562255859375,2.3431036472320557,0.4965486526489258,2.4501540660858154
1715093660431511000,12.055510986328125,5.584238052368164,0.8292007446289062,2.3379902839660645
1715093660441490200,12.065490234375,9.985528945922852,1.5158214569091797,2.0621860027313232
1715093660451469600,12.075469482421875,11.955253601074219,2.449028968811035,1.6786564588546753
1715093660461418200,12.085418212890625,10.00686264038086,3.698352813720703,1.350515365600586
1715093660471397600,12.095397705078126,5.951515197753906,4.221346855163574,0.7675670385360718
1715093660481376800,12.105376708984375,2.8376290798187256,2.6240005493164062,0.9889957308769226
1715093660491325400,12.115325439453125,1.399939775466919,-1.0812206268310547,2.1856048107147217
1715093660501304800,12.125304931640626,0.7403340339660645,-4.950543403625488,2.7701966762542725
1715093660511284000,12.135283935546875,2.230973243713379,-7.334105491638184,2.1596250534057617
1715093660521232600,12.145232666015625,4.102293968200684,-6.780896186828613,2.002336263656616
1715093660531212000,12.1552119140625,4.027109146118164,-4.585945129394531,3.955845594406128
1715093660541191200,12.165191162109375,2.8272247314453125,-2.4240407943725586,5.903125762939453
1715093660551170600,12.175170654296876,2.070976734161377,-0.5611047744750977,6.1657819747924805
1715093660561149700,12.185149658203125,1.3363782167434692,1.400930404663086,5.109261989593506
1715093660571098400,12.195098388671875,-0.14763736724853516,2.597378730773926,3.534390926361084
1715093660581077800,12.205077880859376,-0.8964962959289551,2.719207763671875,1.4973161220550537
1715093660591057000,12.215056884765625,-1.1171133518218994,1.6657733917236328,-1.338804006576538
1715093660601036300,12.225036376953126,-1.0317022800445557,-0.3394317626953125,-5.590304374694824
1715093660610985000,12.23498486328125,-1.405266284942627,-2.068587303161621,-8.44381332397461
1715093660620964000,12.244964111328125,-3.409250259399414,-3.01633358001709,-10.538249969482422
1715093660630943500,12.254943603515626,-4.982422351837158,-4.449039459228516,-13.556673049926758
1715093660640892200,12.26489208984375,-5.2630295753479,-7.376483917236328,-16.653764724731445
1715093660650871300,12.274871337890625,-5.861696720123291,-9.594945907592773,-15.958819389343262
1715093660660850700,12.2848505859375,-6.373054504394531,-8.699525833129883,-11.951563835144043
1715093660670799400,12.29479931640625,-5.709564208984375,-5.658877372741699,-5.735093116760254
1715093660680778500,12.304778564453125,-5.077155113220215,-1.2378511428833008,2.8216962814331055
1715093660690758000,12.3147578125,-5.066703796386719,-0.09845733642578125,6.903711318969727
1715093660700706600,12.32470654296875,-5.754222393035889,-0.7693758010864258,8.519609451293945
1715093660710686000,12.33468603515625,-5.244507312774658,-1.0493993759155273,12.028971672058105
1715093660720665000,12.3446650390625,-4.802474498748779,-1.5011234283447266,13.804788589477539
1715093660730613800,12.35461376953125,-5.444567680358887,-0.6347322463989258,11.906059265136719
1715093660740593200,12.36459326171875,-5.715550422668457,1.9092493057250977,10.013191223144531
1715093660750572300,12.374572265625,-4.767848968505859,2.8721799850463867,6.818869113922119
1715093660760521000,12.38452099609375,-3.362143039703369,2.570680618286133,3.6162500381469727
1715093660770500400,12.394500244140625,-1.410587191581726,2.076878547668457,1.021216869354248
1715093660780479500,12.4044794921875,0.7525068521499634,1.4029598236083984,-1.7093567848205566
1715093660790428200,12.41442822265625,2.078016757965088,1.0289735794067383,-3.6894378662109375
1715093660800407600,12.424407470703125,2.421191692352295,1.3536396026611328,-5.162485122680664
1715093660810386700,12.43438671875,2.7812342643737793,2.28177547454834,-6.2747273445129395
1715093660820335600,12.444335693359376,3.029881477355957,3.1781816482543945,-6.615663528442383
1715093660830314800,12.454314697265625,2.679750442504883,3.8875560760498047,-5.975505352020264
1715093660840294000,12.4642939453125,2.4556260108947754,4.396649360656738,-4.945953845977783
1715093660850273300,12.474273193359375,1.552466869354248,4.368825912475586,-3.8413245677948
1715093660860252400,12.48425244140625,0.49702346324920654,3.8842105865478516,-2.8464107513427734
1715093660870201300,12.494201416015626,-0.6082867383956909,3.1946868896484375,-2.0655007362365723
1715093660880180500,12.504180419921875,-1.3117367029190063,2.748265266418457,-1.1530940532684326
1715093660890159600,12.51415966796875,-1.4015624523162842,2.2217025756835938,-0.5858511328697205
1715093660900139000,12.524138916015625,-0.7542634010314941,1.6382293701171875,0.024382829666137695
1715093660910087700,12.534087646484375,-0.2778353691101074,0.9039602279663086,0.8377548456192017
1715093660920067000,12.544067138671876,-0.04019057750701904,0.3170919418334961,2.257401466369629
1715093660930046200,12.554046142578125,0.5756994485855103,0.5369405746459961,4.417087554931641
1715093660939995000,12.563994873046875,1.0257048606872559,1.1508817672729492,6.9398345947265625
1715093660949974300,12.573974365234376,1.2624624967575073,1.4164495468139648,8.861133575439453
1715093660959953400,12.583953369140625,1.1102406978607178,-0.11504840850830078,8.942190170288086
1715093660969902000,12.593902099609375,0.7562885880470276,-2.7348203659057617,7.640933990478516
1715093660979881500,12.603881591796876,-0.40016812086105347,-5.006017684936523,4.916139602661133
1715093660989860600,12.613860595703125,-0.17533409595489502,-6.501143455505371,0.08548229932785034
1715093660999809300,12.623809326171875,1.180282473564148,-8.23403263092041,-5.619115829467773
1715093661009788700,12.63378857421875,3.702364206314087,-8.095772743225098,-8.543277740478516
1715093661019767800,12.643767822265625,3.66585636138916,-3.70523738861084,-7.389693737030029
1715093661029716700,12.653716796875,1.9612964391708374,1.4963502883911133,-4.395702838897705
1715093661039696000,12.66369580078125,1.020117163658142,2.578274726867676,-1.1142675876617432
1715093661049675000,12.673675048828125,-3.161402940750122,1.3869876861572266,1.3006689548492432
1715093661059624000,12.6836240234375,-2.611243724822998,-2.232733726501465,2.4269967079162598
1715093661069603000,12.69360302734375,-2.660151481628418,-10.652132034301758,4.962340831756592
1715093661079582200,12.703582275390625,-7.4684247970581055,-16.286121368408203,5.068125247955322
1715093661089531100,12.71353125,-9.549888610839844,-13.977198600769043,0.5346706509590149
1715093661099510300,12.72351025390625,-7.026016712188721,-7.280174255371094,-4.483261585235596
1715093661109489700,12.73348974609375,-4.734475612640381,-1.1174650192260742,-5.044162273406982
1715093661119468800,12.74346875,-0.8372994661331177,2.4277801513671875,-1.5962886810302734
1715093661129448000,12.753447998046875,3.273498773574829,3.665189743041992,0.6958762407302856
1715093661139396900,12.76339697265625,3.606900215148926,4.634089469909668,1.0016416311264038
1715093661149376000,12.7733759765625,2.742562770843506,5.833621025085449,-0.5835883617401123
1715093661159355400,12.78335546875,1.9046649932861328,6.645468711853027,-2.650503158569336
1715093661169334500,12.79333447265625,1.6126152276992798,6.476478576660156,-3.1757454872131348
1715093661179283200,12.803283203125,1.7638864517211914,4.354207992553711,-3.7655253410339355
1715093661189262600,12.8132626953125,1.154825210571289,1.2851800918579102,-4.72866153717041
1715093661199241700,12.82324169921875,-0.23003661632537842,-1.582108497619629,-5.483562469482422
