time,seconds_elapsed,z,y,x
1715093648497002500,0.12100244140625,10.540695190429688,3.4263153076171875,-3.0150604248046875
1715093648507012400,0.131012451171875,9.709915161132812,4.8676300048828125,-1.3032073974609375
1715093648517022200,0.141022216796875,8.383529663085938,6.7781982421875,0.7079315185546875
1715093648527001300,0.15100146484375,7.725128173828125,8.506805419921875,1.6536407470703125
1715093648536980700,0.160980712890625,8.254241943359375,8.032760620117188,0.9736785888671875
1715093648546990300,0.170990234375,10.241424560546875,5.5188446044921875,-1.5569915771484375
1715093648556969700,0.1809697265625,10.526336669921875,3.6058807373046875,-3.2113800048828125
1715093648566948900,0.190948974609375,10.705902099609375,4.015289306640625,-4.6119842529296875
1715093648576928300,0.20092822265625,11.050674438476562,4.51806640625,-3.841064453125
1715093648586907400,0.210907470703125,10.61492919921875,4.925079345703125,-2.8737945556640625
1715093648596886500,0.220886474609375,10.3204345703125,5.2818145751953125,-2.42608642578125
1715093648606866000,0.230865966796875,10.411422729492188,5.2913970947265625,-2.600860595703125
1715093648616845000,0.240844970703125,10.92138671875,5.6098175048828125,-3.7548675537109375
1715093648626794000,0.2507939453125,9.499221801757812,4.946624755859375,-2.5984649658203125
1715093648636773000,0.260773193359375,8.326065063476562,4.850860595703125,-3.6806488037109375
1715093648646752300,0.270752197265625,8.3643798828125,5.27703857421875,-4.02301025390625
1715093648656731600,0.280731689453125,7.82568359375,5.4494171142578125,-2.876190185546875
1715093648666710800,0.290710693359375,7.626953125,6.165283203125,-2.823516845703125
1715093648676659700,0.30065966796875,6.1856536865234375,5.5643310546875,-0.8961944580078125
1715093648686638800,0.310638916015625,6.0419921875,5.5499725341796875,-2.009490966796875
1715093648696618000,0.320617919921875,7.0427703857421875,5.15252685546875,-2.6942291259765625
1715093648706567000,0.33056689453125,6.9158782958984375,4.5300445556640625,-2.526641845703125
1715093648716546000,0.340546142578125,7.2438812255859375,4.6641082763671875,-2.0693511962890625
1715093648726525400,0.350525390625,6.9948883056640625,4.7527008056640625,-1.5569915771484375
1715093648736474000,0.36047412109375,5.9438323974609375,4.2642822265625,-1.205047607421875
1715093648746453200,0.370453369140625,5.7163848876953125,3.74713134765625,-0.8219757080078125
1715093648756432600,0.3804326171875,9.288528442382812,4.3097686767578125,-0.472412109375
1715093648766381300,0.39038134765625,8.874343872070312,4.0511932373046875,-0.20904541015625
1715093648776360400,0.4003603515625,7.7227325439453125,3.0264739990234375,0.0806427001953125
1715093648786344000,0.410343994140625,7.181640625,2.356109619140625,1.4908294677734375
1715093648796292600,0.420292724609375,5.2399444580078125,1.987396240234375,1.6392669677734375
1715093648806271700,0.430271728515625,2.6637725830078125,2.315399169921875,1.476470947265625
1715093648816251100,0.440251220703125,-0.747955322265625,4.532440185546875,-0.74774169921875
1715093648826230300,0.450230224609375,5.117828369140625,1.9251556396484375,-0.3096160888671875
1715093648836209700,0.460209716796875,7.694000244140625,1.10394287109375,0.52117919921875
1715093648846158300,0.470158447265625,8.072280883789062,1.1087188720703125,0.4134368896484375
1715093648856137500,0.480137451171875,8.326065063476562,1.0392913818359375,0.114166259765625
1715093648866116900,0.490116943359375,21.020126342773438,2.578765869140625,-6.1323089599609375
1715093648876096000,0.500095947265625,21.10870361328125,2.71044921875,-6.7093048095703125
1715093648886044700,0.510044677734375,15.187850952148438,0.6298828125,-6.6087493896484375
1715093648896024000,0.520024169921875,12.295654296875,-2.1138763427734375,-4.7652130126953125
1715093648906003200,0.530003173828125,8.14410400390625,-3.7371368408203125,-4.90887451171875
1715093648915952000,0.5399521484375,5.3548583984375,-6.20556640625,-4.681427001953125
1715093648925931300,0.54993115234375,3.1952972412109375,-8.348373413085938,-5.8833160400390625
1715093648935910400,0.559910400390625,3.817779541015625,-9.614898681640625,-8.095550537109375
1715093648945859300,0.569859375,7.473724365234375,-10.481597900390625,-11.955001831054688
1715093648955838500,0.57983837890625,11.98919677734375,-13.033828735351562,-12.287796020507812
1715093648965817900,0.58981787109375,14.23974609375,-11.221420288085938,-4.142730712890625
1715093648975766500,0.5997666015625,10.760971069335938,-8.786514282226562,2.2186737060546875
1715093648985745700,0.60974560546875,5.22796630859375,-10.354705810546875,7.38775634765625
1715093648995725000,0.61972509765625,1.5911712646484375,-11.927703857421875,10.88568115234375
1715093649005673700,0.629673828125,0.3054962158203125,-10.658782958984375,12.84173583984375
1715093649015652900,0.63965283203125,-0.3744659423828125,-9.21746826171875,12.499374389648438
1715093649025632300,0.64963232421875,-0.6114959716796875,-6.602996826171875,12.355712890625
1715093649035581000,0.659580810546875,-0.757537841796875,-6.3252716064453125,12.271926879882812
1715093649045560000,0.66956005859375,-0.8078155517578125,-5.800933837890625,13.148193359375
1715093649055539500,0.67953955078125,-2.3760223388671875,0.1893463134765625,21.963653564453125
1715093649065488100,0.689488037109375,-2.3760223388671875,6.488494873046875,30.424758911132812
1715093649075467500,0.699467529296875,-2.39996337890625,7.946563720703125,31.238784790039062
1715093649085446700,0.70944677734375,-5.99365234375,-0.3397674560546875,24.52545166015625
1715093649095425800,0.71942578125,-8.641647338867188,-5.946990966796875,13.98138427734375
1715093649105365200,0.729365234375,-3.1637115478515625,-7.225494384765625,6.2337493896484375
1715093649115344600,0.7393447265625,5.40753173828125,-14.072906494140625,-2.4715728759765625
1715093649125323800,0.74932373046875,20.419174194335938,-12.380203247070312,-3.23052978515625
1715093649135303000,0.759302978515625,21.565994262695312,-11.321975708007812,0.145294189453125
1715093649145282300,0.7692822265625,17.85260009765625,-10.261337280273438,3.6240692138671875
1715093649155231000,0.77923095703125,13.3538818359375,-9.674758911132812,2.249786376953125
1715093649165210400,0.78921044921875,12.542251586914062,-8.2669677734375,0.2554168701171875
1715093649175189500,0.799189453125,15.365020751953125,-8.824813842773438,-0.381439208984375
1715093649185138200,0.80913818359375,16.054550170898438,-7.7139129638671875,-0.6519775390625
1715093649195117600,0.81911767578125,13.7752685546875,-6.1887969970703125,0.83721923828125
1715093649205096700,0.8290966796875,14.476776123046875,-6.9788818359375,-0.359893798828125
1715093649215045400,0.83904541015625,16.96673583984375,-7.2637939453125,-1.042236328125
1715093649225024800,0.849024658203125,20.677749633789062,-6.1864013671875,0.98565673828125
1715093649235004000,0.85900390625,21.460662841796875,-6.77777099609375,0.6983489990234375
1715093649244952600,0.86895263671875,21.585159301757812,-6.9956512451171875,0.0375518798828125
1715093649254932000,0.878931884765625,21.089553833007812,-5.853607177734375,-0.6447906494140625
1715093649264911000,0.8889111328125,19.815841674804688,-4.5559539794921875,1.4477386474609375
1715093649274860000,0.898860107421875,22.061599731445312,-3.981353759765625,0.73187255859375
1715093649284839200,0.908839111328125,18.659439086914062,-3.5886993408203125,1.8451690673828125
1715093649294818300,0.918818359375,15.839065551757812,-4.532012939453125,2.24261474609375
1715093649304767200,0.928767333984375,16.444808959960938,-1.72601318359375,5.9967193603515625
1715093649314746400,0.938746337890625,17.084060668945312,0.92437744140625,8.335845947265625
1715093649324725800,0.948725830078125,16.68182373046875,0.349761962890625,9.02777099609375
1715093649334674400,0.95867431640625,15.135177612304688,-0.2056884765625,9.303115844726562
1715093649344653600,0.968653564453125,11.972442626953125,-0.1386566162109375,9.104385375976562
1715093649354633000,0.978633056640625,8.036361694335938,0.1773834228515625,10.409225463867188
1715093649364581600,0.98858154296875,4.1936798095703125,0.455108642578125,11.110733032226562
1715093649374548200,0.99854833984375,2.7978515625,0.064849853515625,11.917572021484375
1715093649384527600,1.008527587890625,1.4690704345703125,-0.5312957763671875,12.999755859375
1715093649394506800,1.0185068359375,-1.4901580810546875,0.3760986328125,12.983001708984375
1715093649404486100,1.028486083984375,-1.202850341796875,-1.816986083984375,12.346145629882812
1715093649414434800,1.038434814453125,0.657440185546875,-11.47760009765625,13.394805908203125
1715093649424414000,1.0484140625,-1.4039764404296875,-17.82940673828125,7.6319580078125
1715093649434393300,1.058393310546875,0.4802703857421875,-16.965103149414062,0.3607635498046875
1715093649444372500,1.06837255859375,2.8098297119140625,-11.089736938476562,-0.2928466796875
1715093649454321400,1.0783212890625,0.784332275390625,-9.918960571289062,-0.2162322998046875
1715093649464300500,1.088300537109375,-0.2547607421875,-9.3563232421875,1.3974609375
1715093649474279700,1.09827978515625,-0.407989501953125,-6.983673095703125,1.20831298828125
1715093649484228600,1.108228515625,1.6917266845703125,-5.7339019775390625,3.2457733154296875
1715093649494207700,1.118207763671875,0.0948028564453125,-12.859054565429688,4.33514404296875
1715093649504187100,1.128187255859375,1.895233154296875,-20.130233764648438,3.2338104248046875
1715093649514135800,1.1381357421875,4.13861083984375,-22.191650390625,0.0327606201171875
1715093649524115000,1.148114990234375,4.296630859375,-20.096725463867188,0.578643798828125
1715093649534094300,1.15809423828125,2.9582672119140625,-15.162277221679688,3.9568634033203125
1715093649544051000,1.168051025390625,1.3421783447265625,-13.90771484375,4.87384033203125
1715093649554030000,1.178030029296875,0.8394012451171875,-13.21099853515625,3.6982879638671875
1715093649564009500,1.188009521484375,0.3126678466796875,-11.484771728515625,2.61370849609375
1715093649573958100,1.197958251953125,-0.060821533203125,-10.292465209960938,3.9089813232421875
1715093649583937300,1.207937255859375,0.05169677734375,-9.89263916015625,4.6439971923828125
1715093649593916700,1.217916748046875,-0.508544921875,-9.74658203125,4.0837554931640625
1715093649603865300,1.227865234375,-0.4438934326171875,-9.413787841796875,1.9361572265625
1715093649613838800,1.2378388671875,0.5496978759765625,-7.3069000244140625,-0.9752044677734375
1715093649623818000,1.24781787109375,-0.28826904296875,-7.5080108642578125,-3.357421875
1715093649633766700,1.2577666015625,0.51617431640625,-6.7753753662109375,-2.0956878662109375
1715093649643746000,1.26774609375,0.954315185546875,-4.996490478515625,-2.2177886962890625
1715093649653725200,1.27772509765625,1.2990875244140625,-4.6517181396484375,-5.3182830810546875
1715093649663704600,1.28770458984375,2.199310302734375,-5.2119598388671875,-9.73797607421875
1715093649673653200,1.2976533203125,3.32696533203125,-6.708343505859375,-8.694107055664062
1715093649683632400,1.30763232421875,3.9614410400390625,-6.6628570556640625,-0.472412109375
1715093649693611800,1.31761181640625,4.8712310791015625,-6.813690185546875,11.398040771484375
1715093649703591000,1.3275908203125,3.932708740234375,-6.7897491455078125,17.000473022460938
1715093649713570300,1.3375703125,1.646240234375,-6.729888916015625,19.090606689453125
1715093649723519000,1.34751904296875,3.6956787109375,-5.2095794677734375,13.6868896484375
1715093649733498000,1.357498046875,1.87847900390625,-6.5000457763671875,11.601547241210938
1715093649743477500,1.3674775390625,-0.3265838623046875,-6.983673095703125,9.67181396484375
1715093649753426200,1.37742626953125,1.5911712646484375,-4.3452606201171875,5.88897705078125
1715093649763426800,1.3874267578125,-2.206024169921875,-7.6516571044921875,5.661529541015625
1715093649773406000,1.397406005859375,-5.596221923828125,-15.665054321289062,2.3623199462890625
1715093649783354600,1.407354736328125,-3.17327880859375,-16.85736083984375,0.5738525390625
1715093649793334000,1.417333984375,-2.0982818603515625,-15.835037231445312,2.079803466796875
1715093649803313200,1.427313232421875,-0.968231201171875,-17.340988159179688,2.501190185546875
1715093649813261800,1.43726171875,-0.99456787109375,-19.062423706054688,1.07183837890625
1715093649823241200,1.4472412109375,-1.2818603515625,-16.790328979492188,-0.48199462890625
1715093649833220400,1.457220458984375,-1.4781951904296875,-16.237274169921875,-1.6312103271484375
1715093649843169000,1.4671689453125,-0.879638671875,-15.404083251953125,-2.969573974609375
1715093649853148400,1.4771484375,-1.7654876708984375,-12.952423095703125,-3.9871063232421875
1715093649863127600,1.48712744140625,-3.599456787109375,-11.250137329101562,-0.7333831787109375
1715093649873076500,1.497076416015625,-2.1509552001953125,-10.87664794921875,2.7525787353515625
1715093649883055600,1.5070556640625,2.242401123046875,-10.646804809570312,0.844390869140625
1715093649893034800,1.51703466796875,3.372467041015625,-9.849533081054688,-0.4963531494140625
1715093649902983700,1.526983642578125,2.7619476318359375,-9.114517211914062,-1.760498046875
1715093649912962800,1.536962890625,1.428375244140625,-6.62933349609375,-1.3271484375
1715093649922942200,1.546942138671875,1.6151123046875,-4.575103759765625,-0.3311614990234375
1715093649932891000,1.556890869140625,1.4786529541015625,-5.0347900390625,1.6584320068359375
1715093649942870000,1.5668701171875,0.8561553955078125,-5.9757232666015625,0.6552581787109375
1715093649952849400,1.576849365234375,-0.0847625732421875,-7.1536712646484375,0.590606689453125
1715093649962828500,1.58682861328125,-2.3616485595703125,-6.9956512451171875,1.2059173583984375
1715093649972808000,1.596807861328125,0.0900115966796875,-7.342803955078125,0.45892333984375
1715093649982756600,1.606756591796875,0.056488037109375,-8.223876953125,1.260986328125
1715093649992735700,1.61673583984375,-1.116668701171875,-9.60772705078125,0.8707275390625
1715093650002715100,1.626715087890625,-2.692047119140625,-10.388229370117188,0.4182281494140625
1715093650012694300,1.6366943359375,-2.407135009765625,-10.9293212890625,0.03515625
1715093650022643200,1.646643310546875,-1.3560791015625,-11.082550048828125,-0.1875
1715093650032622300,1.656622314453125,-1.9019622802734375,-10.349929809570312,0.188385009765625
1715093650042601700,1.666601806640625,-1.3034210205078125,-7.891082763671875,-0.745361328125
1715093650052550400,1.67655029296875,-0.4750213623046875,-6.61737060546875,-1.4037628173828125
1715093650062529500,1.686529541015625,-0.28826904296875,-4.22076416015625,-1.164337158203125
1715093650072509000,1.696509033203125,-1.5787506103515625,-4.0579681396484375,-0.3215789794921875
1715093650082457600,1.70645751953125,-1.87322998046875,-4.4721527099609375,-0.52508544921875
1715093650092437000,1.71643701171875,-1.4853668212890625,-4.4410400390625,-1.1715240478515625
1715093650102416100,1.726416015625,-0.1685638427734375,-3.423492431640625,-1.3630523681640625
1715093650112364800,1.73636474609375,0.6382904052734375,-0.758758544921875,-1.4683990478515625
1715093650122344200,1.74634423828125,1.4475250244140625,-4.0388031005859375,1.5458984375
1715093650132323300,1.7563232421875,1.873687744140625,-9.93572998046875,2.4006195068359375
1715093650142272000,1.76627197265625,2.074798583984375,-11.508712768554688,3.0638275146484375
1715093650152251400,1.77625146484375,1.2583770751953125,-11.84869384765625,4.1483917236328125
1715093650162230500,1.78623046875,0.109161376953125,-14.982711791992188,4.624847412109375
1715093650172179200,1.79617919921875,1.794677734375,-16.005035400390625,4.553009033203125
1715093650182158600,1.80615869140625,1.440338134765625,-16.735260009765625,2.0774078369140625
1715093650192137700,1.8161376953125,-1.995330810546875,-20.350509643554688,-6.16583251953125
1715093650202086700,1.826086669921875,-3.0152740478515625,-21.487747192382812,-17.160003662109375
1715093650212065800,1.836065673828125,-1.4422760009765625,-16.215713500976562,-4.535369873046875
1715093650222045000,1.846044921875,-2.3975677490234375,-20.91314697265625,2.3072509765625
1715093650231993900,1.855993896484375,-2.5723419189453125,-16.723297119140625,-0.740570068359375
1715093650241973000,1.865972900390625,-2.225189208984375,-15.234100341796875,-1.37982177734375
1715093650251952400,1.875952392578125,-1.3513031005859375,-14.793563842773438,-0.161163330078125
1715093650261931500,1.885931640625,-0.1589813232421875,-12.921295166015625,1.1221160888671875
1715093650271910700,1.89591064453125,1.3852691650390625,-10.414566040039062,1.4692840576171875
1715093650281859600,1.905859619140625,2.00537109375,-6.9286041259765625,1.603363037109375
1715093650291838700,1.915838623046875,3.2814788818359375,-5.52081298828125,0.4709014892578125
1715093650301817900,1.92581787109375,1.1075439453125,-6.212738037109375,-1.0877227783203125
1715093650311797200,1.93579736328125,-1.391998291015625,-6.2510528564453125,-1.607269287109375
1715093650321746000,1.945745849609375,-1.0615997314453125,-6.804107666015625,-0.6184539794921875
1715093650331725300,1.955725341796875,-0.283477783203125,-8.085006713867188,0.3440093994140625
1715093650341704400,1.965704345703125,0.7819366455078125,-9.29168701171875,0.959320068359375
1715093650351653000,1.975653076171875,-0.6713409423828125,-10.282882690429688,1.4429473876953125
1715093650361632500,1.985632568359375,0.0110015869140625,-12.248519897460938,1.5219573974609375
1715093650371611600,1.995611572265625,4.449859619140625,-8.736236572265625,0.612152099609375
1715093650381560300,2.005560302734375,0.7364501953125,-7.268585205078125,0.832427978515625
1715093650391539700,2.015539794921875,1.4259796142578125,-7.85516357421875,0.7079315185546875
1715093650401518800,2.025518798828125,0.372528076171875,-7.85516357421875,0.7222900390625
1715093650411467500,2.035467529296875,-0.070404052734375,-8.142471313476562,1.023956298828125
1715093650421447000,2.045447021484375,0.7460174560546875,-8.38189697265625,0.324859619140625
1715093650431426000,2.055426025390625,0.3868865966796875,-7.299713134765625,-1.10687255859375
1715093650441375000,2.065375,0.3916778564453125,-7.448150634765625,-0.5370635986328125
1715093650451354000,2.07535400390625,0.889678955078125,-7.5870208740234375,-0.6232452392578125
1715093650461333200,2.085333251953125,0.350982666015625,-7.66363525390625,-0.67352294921875
1715093650471282200,2.0952822265625,-0.6067047119140625,-7.9269866943359375,-2.399749755859375
1715093650481261300,2.10526123046875,-2.048004150390625,-8.74102783203125,-4.7484588623046875
1715093650491240700,2.11524072265625,-3.3432769775390625,-11.733779907226562,-3.1946258544921875
1715093650501189400,2.125189453125,-3.4174957275390625,-14.7001953125,-3.7668304443359375
1715093650511168500,2.13516845703125,-2.8165435791015625,-15.81109619140625,-2.64874267578125
1715093650521148000,2.14514794921875,-2.534027099609375,-16.227691650390625,-1.545013427734375
1715093650531127000,2.155126953125,-2.617828369140625,-14.645126342773438,-1.3247528076171875
1715093650541106400,2.1651064453125,-2.29461669921875,-11.884613037109375,-0.3383331298828125
1715093650551055000,2.17505517578125,-1.8397216796875,-9.880661010742188,0.37274169921875
1715093650561034200,2.1850341796875,-1.0448455810546875,-8.666793823242188,0.197967529296875
1715093650571013600,2.195013671875,-0.161376953125,-7.9461517333984375,0.09979248046875
1715093650580962300,2.20496240234375,0.4323883056640625,-7.1153564453125,-0.1898956298828125
1715093650590941400,2.21494140625,0.4970245361328125,-5.6812286376953125,-1.24334716796875
1715093650600920800,2.2249208984375,0.14508056640625,-6.27978515625,-1.2816619873046875
1715093650610900000,2.23489990234375,-0.249969482421875,-7.294921875,-0.836334228515625
1715093650620848600,2.2448486328125,-0.8173980712890625,-8.290908813476562,-1.375030517578125
1715093650630828000,2.254828125,-1.5739593505859375,-8.611740112304688,-2.4979095458984375
1715093650640807200,2.26480712890625,-2.237152099609375,-9.167190551757812,-2.971954345703125
1715093650650756000,2.274756103515625,-2.7423248291015625,-9.382659912109375,-3.0533599853515625
1715093650660735200,2.2847353515625,-2.5890960693359375,-9.090576171875,-2.7876129150390625
1715093650670714400,2.29471435546875,-2.1389923095703125,-8.855941772460938,-2.5194549560546875
1715093650680663300,2.304663330078125,-1.7152099609375,-8.851150512695312,-2.464385986328125
1715093650690642400,2.314642333984375,-1.5260772705078125,-8.791305541992188,-2.14117431640625
1715093650700621600,2.32462158203125,-1.4781951904296875,-8.621307373046875,-1.7724609375
1715093650710570500,2.334570556640625,-1.497344970703125,-8.851150512695312,-1.7844390869140625
1715093650720549600,2.344549560546875,-1.7774658203125,-8.88946533203125,-1.829925537109375
1715093650730529000,2.354529052734375,-1.8373260498046875,-8.673980712890625,-2.15313720703125
1715093650740477700,2.364477783203125,-1.65057373046875,-8.755386352539062,-2.3805999755859375
1715093650750456800,2.374456787109375,-1.348907470703125,-9.054656982421875,-2.5218505859375
1715093650760436200,2.384436279296875,-1.128631591796875,-9.883056640625,-2.0334320068359375
1715093650770385000,2.394385009765625,-0.9921722412109375,-11.037063598632812,-1.111663818359375
1715093650780364000,2.404364013671875,-1.063995361328125,-12.181488037109375,-0.7429656982421875
1715093650790343400,2.414343505859375,-1.1717376708984375,-13.725753784179688,-0.783660888671875
1715093650800292000,2.4242919921875,-1.169342041015625,-14.70257568359375,-0.6543731689453125
1715093650810271200,2.434271240234375,-1.0185089111328125,-15.763214111328125,-1.1882781982421875
1715093650820250600,2.444250732421875,-0.800628662109375,-15.054534912109375,-2.220184326171875
1715093650830229800,2.454229736328125,-0.3720703125,-13.9627685546875,-2.2297515869140625
1715093650840178700,2.4641787109375,-0.714447021484375,-12.456817626953125,-1.5737457275390625
1715093650850157800,2.47415771484375,-0.86767578125,-10.764114379882812,-1.5043182373046875
1715093650860137000,2.484136962890625,-0.8724517822265625,-9.411392211914062,-2.2824249267578125
1715093650870116400,2.494116455078125,-0.6067047119140625,-7.55828857421875,-3.836273193359375
1715093650880065000,2.50406494140625,-0.2978515625,-6.01641845703125,-4.5114288330078125
1715093650890044400,2.51404443359375,-0.0895538330078125,-4.3811798095703125,-4.48748779296875
1715093650900023600,2.5240234375,-0.2379913330078125,-3.284637451171875,-3.6543121337890625
1715093650910002700,2.534002685546875,-0.271514892578125,-2.8345184326171875,-2.718170166015625
1715093650919951600,2.54395166015625,-1.18609619140625,-3.655731201171875,-1.4947357177734375
1715093650929930800,2.5539306640625,-0.7192230224609375,-4.3332977294921875,-0.7238006591796875
1715093650939910100,2.56391015625,-0.9993438720703125,-5.4873046875,-1.0925140380859375
1715093650949858800,2.57385888671875,-1.31298828125,-5.8272705078125,-1.7006378173828125
1715093650959838000,2.583837890625,-1.7439422607421875,-5.915863037109375,-2.1387786865234375
1715093650969817300,2.5938173828125,-2.057586669921875,-5.7602386474609375,-2.6559295654296875
1715093650979766000,2.60376611328125,-2.2084197998046875,-5.7650299072265625,-3.0102691650390625
1715093650989745200,2.6137451171875,-1.9690093994140625,-6.7849578857421875,-2.272857666015625
1715093650999724500,2.623724609375,-1.7894439697265625,-7.2278900146484375,-2.2560882568359375
1715093651009673200,2.633673095703125,-1.2315826416015625,-8.654830932617188,-1.78204345703125
1715093651019652400,2.64365234375,-0.087158203125,-11.11846923828125,-1.2936248779296875
1715093651029631700,2.6536318359375,0.3270416259765625,-19.73040771484375,0.80609130859375
1715093651039580400,2.663580322265625,-0.673736572265625,-22.950607299804688,-4.01104736328125
1715093651049559600,2.6735595703125,-2.184478759765625,-20.74554443359375,-3.3430633544921875
1715093651059539000,2.6835390625,-2.7471160888671875,-14.604415893554688,-0.37664794921875
1715093651069487600,2.693487548828125,-2.8787994384765625,-10.63482666015625,0.2386627197265625
1715093651079467000,2.703467041015625,-2.6034698486328125,-8.439346313476562,0.6935577392578125
1715093651089446100,2.713446044921875,-2.1557464599609375,-7.278167724609375,0.9138336181640625
1715093651099425300,2.72342529296875,-1.6122589111328125,-7.045928955078125,0.9784698486328125
1715093651109374200,2.733374267578125,-0.874847412109375,-7.627716064453125,0.916229248046875
1715093651119353300,2.743353271484375,-0.161376953125,-8.472869873046875,0.67919921875
1715093651129332700,2.753332763671875,0.456329345703125,-9.011566162109375,0.4278106689453125
1715093651139311900,2.763311767578125,0.9662933349609375,-9.090576171875,0.0638885498046875
1715093651149260500,2.773260498046875,1.29669189453125,-8.951705932617188,-0.043853759765625
1715093651159240000,2.783239990234375,1.682159423828125,-8.38427734375,0.047119140625
1715093651169219000,2.793218994140625,1.8018646240234375,-7.8671417236328125,0.494842529296875
1715093651179167700,2.803167724609375,2.0077667236328125,-7.618133544921875,1.4692840576171875
1715093651189147100,2.813147216796875,1.6486358642578125,-7.0818328857421875,1.9457244873046875
1715093651199126300,2.823126220703125,1.1626129150390625,-6.856781005859375,2.3814697265625
1715093651209105700,2.833105712890625,0.29351806640625,-7.4194183349609375,2.850738525390625
1715093651219054300,2.843054443359375,-0.25714111328125,-8.662017822265625,2.924957275390625
1715093651229033500,2.853033447265625,-0.235595703125,-10.246978759765625,2.438934326171875
1715093651239012900,2.863012939453125,0.3437957763671875,-11.963623046875,1.5770263671875
1715093651248961500,2.87296142578125,1.4571075439453125,-13.584487915039062,0.468505859375
1715093651258940700,2.882940673828125,2.7379913330078125,-14.843841552734375,-0.2952423095703125
1715093651268920000,2.892920166015625,3.3126068115234375,-15.559707641601562,-0.4412841796875
1715093651278868700,2.90286865234375,2.6805419921875,-15.37774658203125,-0.1252593994140625
1715093651288848100,2.91284814453125,1.8712921142578125,-14.209381103515625,0.4182281494140625
1715093651298827300,2.9228271484375,1.406829833984375,-12.775253295898438,1.1221160888671875
1715093651308776000,2.93277587890625,0.9471282958984375,-11.6787109375,1.5770263671875
1715093651318755300,2.94275537109375,0.0948028564453125,-10.407379150390625,2.058258056640625
1715093651328734500,2.952734375,-1.0879364013671875,-8.705108642578125,2.268951416015625
1715093651338683100,2.96268310546875,-2.167724609375,-7.0267791748046875,1.509979248046875
1715093651348662500,2.97266259765625,-2.7303619384765625,-5.7075653076171875,-0.1372222900390625
1715093651358641700,2.9826416015625,-2.967376708984375,-4.9031219482421875,-2.3925628662109375
1715093651368590300,2.99259033203125,-3.568328857421875,-5.113800048828125,-5.8952789306640625
1715093651378569700,3.00256982421875,-4.0184326171875,-6.40667724609375,-8.440322875976562
1715093651388548900,3.012548828125,-3.896331787109375,-7.9150238037109375,-9.228012084960938
1715093651398528300,3.0225283203125,-3.63775634765625,-8.8798828125,-9.225616455078125
1715093651408507400,3.03250732421875,-4.899505615234375,-10.6324462890625,-10.1497802734375
1715093651418456000,3.0424560546875,-5.5243988037109375,-12.677093505859375,-11.167312622070312
1715093651428435500,3.052435546875,-4.370391845703125,-14.654693603515625,-9.788253784179688
1715093651438414600,3.06241455078125,-4.3775634765625,-16.577239990234375,-7.164215087890625
1715093651448394000,3.07239404296875,-3.41510009765625,-17.781524658203125,-3.5489654541015625
1715093651458342700,3.0823427734375,-4.3320770263671875,-17.803070068359375,-0.9033660888671875
1715093651468321800,3.09232177734375,-3.3744049072265625,-14.704971313476562,5.491546630859375
1715093651478301200,3.10230126953125,-5.560302734375,-13.383377075195312,7.2440948486328125
1715093651488249900,3.112249755859375,-7.1692047119140625,-12.940444946289062,7.088470458984375
1715093651498229000,3.12222900390625,-6.673614501953125,-10.577377319335938,6.5042877197265625
1715093651508208400,3.13220849609375,-4.751068115234375,-8.132888793945312,4.76849365234375
1715093651518157000,3.142156982421875,-2.1222381591796875,-6.993255615234375,2.9656524658203125
1715093651528136400,3.152136474609375,-0.451080322265625,-7.2542266845703125,1.043121337890625
1715093651538115600,3.162115478515625,0.942352294921875,-8.4776611328125,-0.0103302001953125
1715093651548064300,3.172064208984375,0.9998016357421875,-9.51434326171875,-1.164337158203125
1715093651558043600,3.182043701171875,1.509765625,-9.444915771484375,-1.8658447265625
1715093651568022800,3.192022705078125,2.512939453125,-8.448928833007812,-2.3877716064453125
1715093651577971500,3.201971435546875,2.4937896728515625,-7.321258544921875,-2.272857666015625
1715093651587950800,3.211950927734375,2.4937896728515625,-6.4904632568359375,-2.79718017578125
1715093651597930000,3.221929931640625,-1.7056427001953125,-4.125,-2.959991455078125
1715093651607878700,3.231878662109375,-0.4965667724609375,-4.2638702392578125,-4.2456817626953125
1715093651617858000,3.241858154296875,-0.582763671875,-4.785797119140625,-5.37335205078125
1715093651627837200,3.251837158203125,0.3031005859375,-5.767425537109375,-5.01422119140625
1715093651637786000,3.2617861328125,2.9438934326171875,-7.9269866943359375,-2.083709716796875
1715093651647765200,3.27176513671875,4.0955047607421875,-9.183944702148438,-2.1172332763671875
1715093651657744400,3.281744384765625,1.0668487548828125,-8.439346313476562,1.0814208984375
1715093651667723800,3.291723876953125,1.397247314453125,-8.274154663085938,0.6815948486328125
1715093651677672400,3.30167236328125,1.5313262939453125,-8.90142822265625,0.2171173095703125
1715093651687651800,3.31165185546875,1.48822021484375,-9.394638061523438,0.6887664794921875
1715093651697631000,3.321630859375,1.734832763671875,-9.816024780273438,0.717498779296875
1715093651707610000,3.331610107421875,1.7970733642578125,-9.981216430664062,0.442169189453125
1715093651717589500,3.341589599609375,1.746795654296875,-9.739395141601562,0.0590972900390625
1715093651727538200,3.3515380859375,1.9072113037109375,-9.148040771484375,-0.0079345703125
1715093651737517600,3.361517578125,2.2591552734375,-8.5638427734375,0.2865447998046875
1715093651747496700,3.37149658203125,2.6685638427734375,-8.099380493164062,0.8994598388671875
1715093651757445400,3.3814453125,2.7906646728515625,-8.073043823242188,2.0917816162109375
1715093651767424800,3.3914248046875,3.2958526611328125,-7.9748687744140625,4.059814453125
1715093651777404000,3.40140380859375,3.25274658203125,-7.8000946044921875,5.7812347412109375
1715093651787352600,3.4113525390625,2.8289794921875,-8.492019653320312,6.856231689453125
1715093651797332000,3.42133203125,2.474639892578125,-9.160003662109375,7.526611328125
1715093651807311000,3.43131103515625,1.5289306640625,-11.788833618164062,6.7461090087890625
1715093651817259800,3.441259765625,0.4922332763671875,-13.392959594726562,5.1180419921875
1715093651827239200,3.4512392578125,-0.2787017822265625,-14.956375122070312,2.2521820068359375
1715093651837218300,3.46121826171875,1.7587738037109375,-16.277969360351562,-0.8219757080078125
1715093651847167000,3.4711669921875,6.0395965576171875,-17.2572021484375,-3.8769683837890625
1715093651857146400,3.481146484375,6.1760711669921875,-15.353805541992188,-4.7915496826171875
1715093651867125500,3.49112548828125,2.960662841796875,-11.570968627929688,-2.7612762451171875
1715093651877074400,3.501074462890625,-0.5324859619140625,-11.530258178710938,0.7510223388671875
1715093651887053600,3.511053466796875,-0.0584259033203125,-13.771240234375,4.3327484130859375
1715093651897032700,3.52103271484375,-2.045623779296875,-13.641952514648438,3.1978912353515625
1715093651906981600,3.530981689453125,-8.035903930664062,-15.341827392578125,-1.576141357421875
1715093651916960800,3.540960693359375,-6.4078521728515625,-20.041656494140625,-3.9990692138671875
1715093651926940200,3.550940185546875,-6.54193115234375,-21.310577392578125,-5.167449951171875
1715093651936888800,3.560888916015625,-3.3815765380859375,-15.717727661132812,-6.4339752197265625
1715093651946868000,3.570867919921875,-1.940277099609375,-9.883056640625,-4.566497802734375
1715093651956847400,3.580847412109375,-1.772674560546875,-7.785736083984375,-0.6543731689453125
1715093651966826500,3.590826416015625,-0.7120513916015625,-6.138519287109375,2.067840576171875
1715093651976806000,3.600805908203125,0.6813812255859375,-4.754669189453125,3.221832275390625
1715093651986754600,3.610754638671875,-0.0009613037109375,-4.2064056396484375,2.2617645263671875
1715093651996733700,3.620733642578125,-0.7647247314453125,-3.7108001708984375,1.064666748046875
1715093652006713000,3.630713134765625,-0.60430908203125,-4.362030029296875,-0.07977294921875
1715093652016692200,3.640692138671875,0.1067657470703125,-6.064300537109375,-0.4700164794921875
1715093652026641000,3.650640869140625,0.097198486328125,-8.556671142578125,-2.6295928955078125
1715093652036620300,3.660620361328125,-0.388824462890625,-11.096908569335938,-5.485870361328125
1715093652046599400,3.670599365234375,-1.1789093017578125,-13.007492065429688,-7.947113037109375
1715093652056548000,3.680548095703125,-2.3137664794921875,-13.641952514648438,-9.922332763671875
1715093652066527500,3.690527587890625,-3.113433837890625,-11.963623046875,-10.7938232421875
1715093652076506600,3.700506591796875,-1.4949493408203125,-8.743408203125,-8.904800415039062
1715093652086455600,3.71045556640625,1.33978271484375,-5.7099609375,-6.0221710205078125
1715093652096434700,3.7204345703125,3.066009521484375,-3.68206787109375,-5.1243438720703125
1715093652106413800,3.730413818359375,4.25592041015625,-2.429901123046875,-4.068511962890625
1715093652116362800,3.74036279296875,3.6884918212890625,-2.3724365234375,-3.0270233154296875
1715093652126342000,3.750341796875,2.0771942138671875,-3.3923797607421875,-2.2656707763671875
1715093652136321300,3.7603212890625,0.1474761962890625,-5.16168212890625,-0.972808837890625
1715093652146270000,3.77027001953125,-0.4965667724609375,-7.5511016845703125,0.906646728515625
1715093652156249000,3.7802490234375,-0.805419921875,-9.933334350585938,2.3527374267578125
1715093652166228500,3.790228515625,-1.1238555908203125,-12.186279296875,3.056640625
1715093652176177200,3.80017724609375,-1.597900390625,-13.414505004882812,3.40618896484375
1715093652186156300,3.81015625,-1.8157806396484375,-12.993118286132812,3.590545654296875
1715093652196135700,3.8201357421875,-1.8277435302734375,-11.671524047851562,2.862701416015625
1715093652206084400,3.83008447265625,-1.8756256103515625,-10.2421875,2.185150146484375
1715093652216063500,3.8400634765625,-1.6840972900390625,-9.124099731445312,2.302459716796875
1715093652226043000,3.85004296875,-1.7894439697265625,-8.429779052734375,2.4628753662109375
1715093652235991600,3.859991455078125,-1.803802490234375,-8.1927490234375,2.53948974609375
1715093652245970700,3.869970703125,-1.720001220703125,-8.23583984375,2.810028076171875
1715093652255950000,3.8799501953125,-1.58831787109375,-8.408233642578125,2.893829345703125
1715093652265929200,3.88992919921875,-1.68170166015625,-8.599761962890625,3.1739501953125
1715093652275908600,3.89990869140625,-2.1437835693359375,-9.104934692382812,3.169158935546875
1715093652285857300,3.909857177734375,-1.39678955078125,-9.416183471679688,2.8866424560546875
1715093652295836400,3.91983642578125,0.408447265625,-9.574203491210938,1.888275146484375
1715093652305815800,3.92981591796875,1.1817626953125,-9.483230590820312,0.5930023193359375
1715093652315795000,3.939794921875,4.3684539794921875,-9.385055541992188,-0.9225311279296875
1715093652325743900,3.949743896484375,4.3756256103515625,-8.4345703125,-1.9113311767578125
1715093652335723000,3.959722900390625,4.0931243896484375,-7.1392974853515625,-1.427703857421875
1715093652345702100,3.9697021484375,4.1410064697265625,-6.84002685546875,-0.3838348388671875
1715093652355651000,3.979651123046875,3.3245849609375,-7.0483245849609375,0.2961273193359375
1715093652365630200,3.989630126953125,1.2847137451171875,-8.357955932617188,0.5451202392578125
1715093652375609600,3.999609619140625,0.916015625,-10.618072509765625,0.1165618896484375
1715093652385558300,4.009558349609375,0.56884765625,-13.07452392578125,-0.7333831787109375
1715093652395537400,4.019537353515625,0.3150634765625,-14.812713623046875,-1.4612274169921875
1715093652405516800,4.029516845703125,0.1594390869140625,-15.902084350585938,-2.2010345458984375
1715093652415465500,4.039465576171875,2.295074462890625,-15.882919311523438,-2.2920074462890625
1715093652425444600,4.049444580078125,2.5727996826171875,-13.83587646484375,-0.5801544189453125
1715093652435424000,4.059424072265625,-0.7599334716796875,-11.369857788085938,1.3639373779296875
1715093652445372700,4.06937255859375,-1.2818603515625,-8.913406372070312,2.3072509765625
1715093652455351800,4.079351806640625,-1.7966156005859375,-6.9118499755859375,2.63525390625
1715093652465331200,4.089331298828125,-2.4215087890625,-5.6764373779296875,2.75018310546875
1715093652475280000,4.09927978515625,-2.1868743896484375,-5.144927978515625,1.6943359375
1715093652485259300,4.10925927734375,-2.1222381591796875,-5.4322357177734375,-0.3431243896484375
1715093652495238400,4.11923828125,-2.605865478515625,-6.339630126953125,-2.823516845703125
1715093652505187000,4.12918701171875,-3.04638671875,-7.31646728515625,-5.6893768310546875
1715093652515166500,4.13916650390625,-3.9561920166015625,-8.865524291992188,-8.198501586914062
1715093652525145600,4.1491455078125,-5.3184967041015625,-11.032272338867188,-9.658966064453125
1715093652535125000,4.159125,-5.988861083984375,-13.673080444335938,-11.504898071289062
1715093652545104100,4.169104248046875,-6.22589111328125,-17.1829833984375,-14.169647216796875
1715093652555052800,4.179052734375,-6.199554443359375,-21.533233642578125,-14.1744384765625
1715093652565032200,4.1890322265625,-5.289764404296875,-23.64013671875,-8.971832275390625
1715093652575011300,4.19901123046875,-4.763031005859375,-21.930679321289062,-1.5617828369140625
1715093652584990500,4.208990478515625,-5.162872314453125,-16.689773559570312,5.513092041015625
1715093652594939400,4.218939453125,-5.6201629638671875,-13.735321044921875,6.78680419921875
1715093652604918500,4.22891845703125,-5.2251129150390625,-10.953262329101562,9.698150634765625
1715093652614898000,4.23889794921875,-3.209197998046875,-7.728271484375,10.418807983398438
1715093652624846600,4.2488466796875,-2.4286956787109375,-5.994873046875,6.9543914794921875
1715093652634825700,4.25882568359375,-1.7798614501953125,-5.1521148681640625,5.2162017822265625
1715093652644805000,4.26880517578125,-2.0168914794921875,-5.408294677734375,4.160369873046875
1715093652654753800,4.27875390625,-0.9347076416015625,-6.217529296875,2.0654449462890625
1715093652664733000,4.28873291015625,0.990234375,-6.8280487060546875,0.2290802001953125
1715093652674712300,4.29871240234375,2.4411163330078125,-7.373931884765625,-1.501922607421875
1715093652684643000,4.30864306640625,2.934326171875,-7.7593994140625,-2.404541015625
1715093652694622500,4.31862255859375,2.2447967529296875,-7.553497314453125,-3.1204071044921875
1715093652704601600,4.3286015625,1.287109375,-6.677215576171875,-3.23052978515625
1715093652714550500,4.338550537109375,0.9591064453125,-5.6956024169921875,-2.938446044921875
1715093652724529700,4.34852978515625,0.7244720458984375,-5.5184173583984375,-2.536224365234375
1715093652734508800,4.3585087890625,1.0261383056640625,-5.7554473876953125,-2.57452392578125
1715093652744457700,4.368457763671875,1.0979766845703125,-6.296539306640625,-2.6200103759765625
1715093652754436900,4.378436767578125,1.2464141845703125,-6.7849578857421875,-2.8211212158203125
1715093652764416300,4.388416259765625,1.641448974609375,-6.9070587158203125,-2.9456329345703125
1715093652774365000,4.398364990234375,1.895233154296875,-6.9597320556640625,-2.737335205078125
1715093652784344000,4.408343994140625,2.4195709228515625,-6.8903045654296875,-2.4141082763671875
1715093652794323500,4.418323486328125,2.560821533203125,-7.1776123046875,-1.7006378173828125
1715093652804272000,4.428272216796875,2.4698486328125,-7.5463104248046875,-1.0733642578125
1715093652814251300,4.438251220703125,2.55364990234375,-7.88629150390625,-0.56817626953125
1715093652824230700,4.448230712890625,2.6901092529296875,-8.190353393554688,0.262603759765625
1715093652834209800,4.458209716796875,2.9055938720703125,-8.190353393554688,2.0103759765625
1715093652844189200,4.468189208984375,3.753143310546875,-8.01318359375,4.1962738037109375
1715093652854137900,4.478137939453125,4.038055419921875,-8.312454223632812,6.2816314697265625
1715093652864117000,4.488116943359375,3.3604888916015625,-9.44012451171875,7.4188690185546875
1715093652874096400,4.498096435546875,2.74517822265625,-11.005935668945312,8.314300537109375
1715093652884075500,4.508075439453125,2.1131134033203125,-12.801589965820312,8.417251586914062
1715093652894024200,4.518024169921875,-0.228424072265625,-14.7744140625,6.379791259765625
1715093652904003600,4.528003662109375,-2.90753173828125,-16.27557373046875,2.355133056640625
1715093652913982700,4.537982666015625,-2.206024169921875,-17.484649658203125,-1.8059844970703125
1715093652923931600,4.547931640625,2.1969146728515625,-18.269943237304688,-4.8250732421875
1715093652933910800,4.557910888671875,6.1976165771484375,-16.05291748046875,-4.4635467529296875
1715093652943890000,4.567889892578125,3.7722930908203125,-11.221420288085938,-1.5426177978515625
1715093652953838800,4.5778388671875,3.331756591796875,-9.241409301757812,0.5714569091796875
1715093652963818000,4.58781787109375,1.2200775146484375,-10.005157470703125,0.6600494384765625
1715093652973797400,4.59779736328125,-0.3002471923828125,-10.56060791015625,1.0311431884765625
1715093652983746000,4.60774609375,-4.3416595458984375,-15.504638671875,-0.13482666015625
1715093652993725200,4.61772509765625,-7.3487701416015625,-21.121444702148438,0.399078369140625
1715093653003704600,4.62770458984375,-8.48602294921875,-22.270660400390625,-3.5753021240234375
1715093653013653200,4.6376533203125,-5.512420654296875,-19.04327392578125,-8.476226806640625
1715093653023632400,4.64763232421875,-2.8093719482421875,-12.432876586914062,-6.4220123291015625
1715093653033611800,4.65761181640625,-2.0863189697265625,-8.496810913085938,-2.0166778564453125
1715093653043560400,4.667560546875,0.2288818359375,-7.7785491943359375,1.1724090576171875
1715093653053539600,4.67753955078125,2.845733642578125,-6.899871826171875,3.427734375
1715093653063519000,4.68751904296875,2.7356109619140625,-5.36041259765625,3.475616455078125
1715093653073467600,4.697467529296875,0.8034820556640625,-4.2662506103515625,1.0000152587890625
1715093653083446800,4.70744677734375,-0.25714111328125,-4.268646240234375,-0.7501373291015625
1715093653093426200,4.71742626953125,0.0301513671875,-5.6788330078125,-1.8466796875
1715093653103405300,4.7274052734375,0.1594390869140625,-7.3236541748046875,-3.520233154296875
1715093653113354200,4.737354248046875,-0.1853179931640625,-10.16796875,-6.012603759765625
1715093653123333400,4.74733349609375,-1.22918701171875,-11.34112548828125,-7.4108123779296875
1715093653133312500,4.7573125,-2.0863189697265625,-11.973190307617188,-7.6071319580078125
1715093653143292000,4.7672919921875,-1.6960601806640625,-11.276473999023438,-7.576019287109375
1715093653153271000,4.77727099609375,-0.2858734130859375,-8.946914672851562,-7.2575836181640625
1715093653163220000,4.787219970703125,1.3733062744140625,-6.3252716064453125,-5.188995361328125
1715093653173199000,4.79719921875,2.644622802734375,-4.383575439453125,-4.3103179931640625
1715093653183178200,4.80717822265625,2.8888397216796875,-3.1673126220703125,-3.7764129638671875
1715093653193127200,4.817127197265625,1.8234100341796875,-3.021270751953125,-3.244903564453125
1715093653203106300,4.827106201171875,0.9662933349609375,-3.63897705078125,-1.080535888671875
1715093653213085700,4.837085693359375,0.4012603759765625,-5.578277587890625,0.7510223388671875
1715093653223034400,4.847034423828125,-0.2978515625,-8.08740234375,2.2402191162109375
1715093653233013500,4.857013427734375,-0.7192230224609375,-10.134445190429688,3.822784423828125
1715093653242993000,4.866992919921875,-0.7240142822265625,-11.913345336914062,4.3878173828125
1715093653252941600,4.876941650390625,-0.92034912109375,-12.830322265625,4.5434417724609375
1715093653262920700,4.886920654296875,-1.5380401611328125,-12.253311157226562,4.3878173828125
1715093653272900000,4.896900146484375,-1.58831787109375,-10.847915649414062,3.3223876953125
1715093653282848800,4.906848876953125,-2.2922210693359375,-9.617294311523438,2.49639892578125
1715093653292828000,4.916827880859375,-2.9745635986328125,-8.9852294921875,1.9912261962890625
1715093653302807300,4.926807373046875,-2.986541748046875,-8.714691162109375,1.3376007080078125
1715093653312756000,4.936755859375,-2.5196685791015625,-8.803268432617188,1.0095977783203125
1715093653322735400,4.9467353515625,-1.794219970703125,-8.997207641601562,1.1412811279296875
1715093653332714500,4.956714599609375,-1.79901123046875,-9.071426391601562,1.5650482177734375
1715093653342663200,4.9666630859375,0.995025634765625,-9.092971801757812,1.8762969970703125
1715093653352642600,4.976642578125,3.0851593017578125,-8.812850952148438,2.26416015625
1715093653362621700,4.98662158203125,5.1657257080078125,-8.17120361328125,1.8236236572265625
1715093653372570400,4.9965703125,5.3141632080078125,-6.665252685546875,1.49322509765625
1715093653382549800,5.0065498046875,3.975799560546875,-5.3268890380859375,1.4070281982421875
1715093653392529000,5.01652880859375,2.1609954833984375,-4.76904296875,0.9305877685546875
1715093653402508300,5.02650830078125,-0.0009613037109375,-5.618988037109375,0.250640869140625
1715093653412487400,5.0364873046875,-1.1717376708984375,-7.8455963134765625,0.4924468994140625
1715093653422436000,5.04643603515625,-1.686492919921875,-10.804824829101562,0.9353790283203125
1715093653432415500,5.05641552734375,-0.1278533935546875,-13.345077514648438,0.9257965087890625
1715093653442394600,5.06639453125,1.1674041748046875,-14.693008422851562,0.315277099609375
1715093653452374000,5.0763740234375,2.7236328125,-14.57568359375,0.253021240234375
1715093653462322700,5.08632275390625,4.8616485595703125,-13.127197265625,1.296905517578125
1715093653472301800,5.0963017578125,3.8034210205078125,-10.943679809570312,2.41259765625
1715093653482281200,5.10628125,1.04290771484375,-9.327606201171875,2.407806396484375
1715093653492230000,5.11622998046875,-0.410369873046875,-8.17120361328125,1.7853240966796875
1715093653502209000,5.126208984375,-2.69683837890625,-7.5989837646484375,1.2897186279296875
1715093653512188400,5.1361884765625,-3.4965057373046875,-7.8958740234375,-0.4436798095703125
1715093653522137000,5.14613720703125,-3.7335357666015625,-9.088180541992188,-3.077301025390625
1715093653532116200,5.1561162109375,-3.252288818359375,-10.924530029296875,-5.7827606201171875
1715093653542095600,5.166095703125,-3.230743408203125,-12.657928466796875,-7.6550140380859375
1715093653552044300,5.176044189453125,-4.911468505859375,-13.553359985351562,-9.34771728515625
1715093653562023700,5.186023681640625,-6.1373138427734375,-14.621185302734375,-11.315750122070312
1715093653572002800,5.1960029296875,-6.4078521728515625,-16.838211059570312,-14.150497436523438
1715093653581951500,5.205951416015625,-6.7981109619140625,-19.505355834960938,-14.64129638671875
1715093653591931000,5.215930908203125,-6.6041717529296875,-21.152557373046875,-10.271881103515625
1715093653601910000,5.225909912109375,-5.4573516845703125,-20.221221923828125,-4.7364959716796875
1715093653611858700,5.235858642578125,-5.4836883544921875,-16.467117309570312,2.027130126953125
1715093653621838000,5.245838134765625,-3.9466094970703125,-12.375411987304688,9.789138793945312
1715093653631817200,5.255817138671875,-4.1357574462890625,-11.544631958007812,11.493804931640625
1715093653641766000,5.265765869140625,-3.558746337890625,-10.134445190429688,13.679718017578125
1715093653651745300,5.275745361328125,-3.0655517578125,-7.776153564453125,11.881668090820312
1715093653661724400,5.285724365234375,-2.5771331787109375,-4.934234619140625,9.430007934570312
1715093653671703800,5.295703857421875,-2.538818359375,-4.0435943603515625,7.2848052978515625
1715093653681652500,5.305652587890625,-1.5955047607421875,-4.6038360595703125,4.5171051025390625
1715093653691631600,5.315631591796875,0.5185699462890625,-5.3699798583984375,2.067840576171875
1715093653701611000,5.325611083984375,2.6829376220703125,-6.1768341064453125,-0.3742523193359375
1715093653711590100,5.335590087890625,4.01171875,-7.05072021484375,-2.263275146484375
1715093653721569500,5.345569580078125,3.870452880859375,-7.670806884765625,-3.6183929443359375
1715093653731518200,5.355518310546875,3.0588226318359375,-7.5032196044921875,-4.734100341796875
1715093653741497300,5.365497314453125,2.2184600830078125,-7.12493896484375,-4.829864501953125
1715093653751476700,5.375476806640625,2.1346588134765625,-6.770599365234375,-4.5712890625
1715093653761425400,5.38542529296875,1.8114471435546875,-6.6939849853515625,-4.6048126220703125
1715093653771404800,5.39540478515625,1.5313262939453125,-6.571868896484375,-4.0613250732421875
1715093653781384000,5.405384033203125,0.7986907958984375,-7.4984283447265625,-2.67987060546875
1715093653791332600,5.41533251953125,0.257598876953125,-7.5128021240234375,-2.0813140869140625
1715093653801312000,5.42531201171875,-0.235595703125,-7.1800079345703125,-1.64556884765625
1715093653811291100,5.435291015625,0.1905670166015625,-7.1608428955078125,-1.5904998779296875
1715093653821239800,5.44523974609375,1.0261383056640625,-7.6779937744140625,-1.0973052978515625
1715093653831219200,5.45521923828125,1.8162384033203125,-8.252609252929688,-0.4700164794921875
1715093653841198300,5.4651982421875,2.9462890625,-8.417800903320312,0.801300048828125
1715093653851147000,5.47514697265625,3.63104248046875,-8.451324462890625,2.7837066650390625
1715093653861126400,5.48512646484375,3.9087677001953125,-7.49603271484375,6.32232666015625
1715093653871105500,5.49510546875,3.7196197509765625,-6.3300628662109375,8.872161865234375
1715093653881054200,5.50505419921875,3.56878662109375,-6.887908935546875,8.850601196289062
1715093653891033600,5.51503369140625,3.647796630859375,-8.798477172851562,8.017425537109375
1715093653901012700,5.5250126953125,3.2240142822265625,-10.835952758789062,5.5585784912109375
1715093653910961700,5.534961669921875,2.3621063232421875,-12.720184326171875,2.5801849365234375
1715093653920940800,5.54494091796875,1.0883941650390625,-14.858200073242188,-0.8914031982421875
1715093653930920000,5.554919921875,2.644622802734375,-16.819061279296875,-5.2129364013671875
1715093653940868900,5.564868896484375,5.51287841796875,-17.070449829101562,-7.5113677978515625
1715093653950848000,5.574847900390625,2.453094482421875,-13.067337036132812,-6.129913330078125
1715093653960827400,5.584827392578125,-3.108642578125,-9.061843872070312,-2.27764892578125
1715093653970806500,5.594806640625,-5.24188232421875,-11.649978637695312,-0.539459228515625
1715093653980785700,5.60478564453125,-2.8835906982421875,-19.110305786132812,1.6656036376953125
1715093653990734600,5.614734619140625,-3.611419677734375,-25.244247436523438,4.51470947265625
1715093654000713700,5.624713623046875,-4.6505126953125,-24.140533447265625,1.2011260986328125
1715093654010693000,5.634693115234375,-5.141326904296875,-20.41754150390625,-3.9200592041015625
1715093654020672300,5.64467236328125,-6.379119873046875,-14.5325927734375,-7.566436767578125
1715093654030621000,5.654620849609375,-4.4110870361328125,-9.461669921875,-7.0037994384765625
1715093654040600300,5.664600341796875,-0.451080322265625,-7.1871795654296875,-2.0765228271484375
1715093654050579500,5.674579345703125,1.873687744140625,-6.3731536865234375,1.826019287109375
1715093654060528000,5.684528076171875,2.6949005126953125,-6.1409149169921875,3.959259033203125
1715093654070507500,5.694507568359375,2.2663421630859375,-5.8296661376953125,3.2457733154296875
1715093654080486700,5.704486572265625,1.1793670654296875,-5.1784515380859375,0.430206298828125
1715093654090435300,5.714435302734375,0.5257568359375,-5.472930908203125,-1.068572998046875
1715093654100414700,5.724414794921875,0.6598358154296875,-6.971710205078125,-2.8354949951171875
1715093654110393900,5.734393798828125,0.68377685546875,-8.685958862304688,-4.7436676025390625
1715093654120342800,5.7443427734375,0.11395263671875,-10.208663940429688,-6.3070831298828125
1715093654130322000,5.754322021484375,-0.0105438232421875,-11.163955688476562,-6.8505706787109375
1715093654140301000,5.764301025390625,-1.1837005615234375,-11.558990478515625,-6.0628814697265625
1715093654150250000,5.77425,-1.782257080078125,-10.414566040039062,-5.7995147705078125
1715093654160229000,5.78422900390625,-0.8868255615234375,-8.31964111328125,-5.4834747314453125
1715093654170208300,5.794208251953125,0.604766845703125,-6.55511474609375,-4.6311492919921875
1715093654180157200,5.8041572265625,1.6031494140625,-5.630950927734375,-4.8178863525390625
1715093654190136300,5.81413623046875,1.8282012939453125,-4.9150848388671875,-4.6311492919921875
1715093654200115700,5.82411572265625,0.923187255859375,-4.7522735595703125,-3.7404937744140625
1715093654210064400,5.834064453125,-0.20208740234375,-5.2957611083984375,-2.8067626953125
1715093654220043500,5.84404345703125,-0.831756591796875,-6.3779449462890625,-1.1834869384765625
1715093654230023000,5.85402294921875,-0.6282501220703125,-7.563079833984375,0.03515625
1715093654239971600,5.8639716796875,-0.6186676025390625,-8.997207641601562,1.6320953369140625
1715093654249950700,5.87395068359375,-0.695281982421875,-10.594131469726562,2.5921630859375
1715093654259930000,5.88393017578125,-0.503753662109375,-11.602096557617188,3.4085845947265625
1715093654269909200,5.8939091796875,-0.1063079833984375,-11.6787109375,3.7772979736328125
1715093654279888600,5.903888671875,0.1115570068359375,-11.05621337890625,3.564208984375
1715093654289837300,5.91383740234375,-0.556427001953125,-10.065017700195312,2.89862060546875
1715093654299816400,5.92381640625,-1.2627105712890625,-9.157608032226562,2.194732666015625
1715093654309795800,5.9337958984375,-1.8061981201171875,-8.53033447265625,1.888275146484375
1715093654319775000,5.94377490234375,-1.6314239501953125,-8.28851318359375,1.7254638671875
1715093654329723600,5.9537236328125,-1.202850341796875,-8.073043823242188,1.9600982666015625
1715093654339703000,5.963703125,0.0684661865234375,-7.8408050537109375,2.4102020263671875
1715093654349682200,5.97368212890625,0.90643310546875,-7.3715362548828125,3.2649383544921875
1715093654359631000,5.983631103515625,4.864044189453125,-6.7322845458984375,3.40618896484375
1715093654369610200,5.9936103515625,5.3787994384765625,-5.79376220703125,3.178741455078125
1715093654379589400,6.00358935546875,3.21923828125,-4.7259368896484375,2.4892120361328125
1715093654389568800,6.01356884765625,-0.1302490234375,-4.5655364990234375,1.584197998046875
1715093654399517400,6.023517333984375,-2.5579681396484375,-6.2725982666015625,1.550689697265625
1715093654409496800,6.033496826171875,-1.9282989501953125,-9.655609130859375,1.31365966796875
1715093654419476000,6.04347607421875,0.192962646484375,-12.590896606445312,1.5794219970703125
1715093654429424600,6.053424560546875,1.629486083984375,-14.376968383789062,0.4373779296875
1715093654439404000,6.063404052734375,3.542449951171875,-14.434432983398438,-1.5186767578125
1715093654449383200,6.073383056640625,5.80975341796875,-13.828704833984375,-1.6000823974609375
1715093654459331800,6.083331787109375,5.1561431884765625,-12.0809326171875,-0.249755859375
1715093654469311200,6.093311279296875,0.8465728759765625,-9.990798950195312,1.1556396484375
1715093654479290400,6.103290283203125,-1.3632659912109375,-8.602157592773438,1.6871490478515625
1715093654489239000,6.113239013671875,-2.8620452880859375,-8.01318359375,2.4149932861328125
1715093654499218400,6.123218505859375,-3.209197998046875,-7.311676025390625,2.982421875
1715093654509197600,6.133197509765625,-4.655303955078125,-7.2494354248046875,2.2952880859375
1715093654519146500,6.143146484375,-5.258636474609375,-7.6971435546875,-0.043853759765625
1715093654529125600,6.153125732421875,-4.171661376953125,-8.305282592773438,-3.4436187744140625
1715093654539104800,6.163104736328125,-4.8013458251953125,-9.710678100585938,-6.2903289794921875
1715093654549084200,6.173084228515625,-6.094207763671875,-12.195846557617188,-8.739593505859375
1715093654559063300,6.183063232421875,-6.199554443359375,-15.861373901367188,-11.47137451171875
1715093654569012000,6.193011962890625,-5.5938262939453125,-19.462249755859375,-14.66046142578125
1715093654578991400,6.202991455078125,-4.7965545654296875,-23.980117797851562,-16.386672973632812
1715093654588970500,6.212970458984375,-4.0423736572265625,-26.786117553710938,-14.095428466796875
1715093654598950000,6.222949951171875,-5.47650146484375,-24.849212646484375,-8.296661376953125
1715093654608898600,6.232898681640625,-7.858734130859375,-19.062423706054688,-0.4053802490234375
1715093654618877700,6.242877685546875,-7.4110260009765625,-11.5111083984375,8.785964965820312
1715093654628857000,6.252857177734375,-7.6719970703125,-9.320419311523438,9.887298583984375
1715093654638805800,6.2628056640625,-5.2825775146484375,-8.085006713867188,10.79229736328125
1715093654648785200,6.27278515625,-3.1541290283203125,-7.0171966552734375,9.032562255859375
1715093654658764300,6.282764404296875,-1.6385955810546875,-5.757843017578125,7.5577392578125
1715093654668713000,6.292712890625,-2.2730712890625,-6.064300537109375,6.3343048095703125
1715093654678692400,6.3026923828125,-1.31298828125,-6.4593505859375,4.986358642578125
1715093654688671500,6.31267138671875,1.11712646484375,-7.0554962158203125,2.49639892578125
1715093654698620200,6.3226201171875,3.087554931640625,-7.3547821044921875,0.3009185791015625
1715093654708599600,6.332599609375,4.217620849609375,-7.637298583984375,-1.31756591796875
1715093654718578700,6.34257861328125,3.8153839111328125,-6.9477691650390625,-2.1339874267578125
1715093654728527400,6.35252734375,2.654205322265625,-5.937408447265625,-2.8618316650390625
1715093654738506800,6.3625068359375,1.7755279541015625,-5.0850677490234375,-3.0533599853515625
1715093654748486000,6.37248583984375,1.090789794921875,-5.006072998046875,-3.0054779052734375
1715093654758434800,6.382434814453125,0.731658935546875,-4.9198760986328125,-2.7828216552734375
1715093654768414000,6.3924140625,0.5760345458984375,-5.3173065185546875,-3.022247314453125
1715093654778393000,6.40239306640625,0.2264862060546875,-6.0188140869140625,-2.97674560546875
1715093654788353000,6.41235302734375,0.3390045166015625,-6.3204803466796875,-2.8785858154296875
1715093654798332400,6.42233251953125,0.520965576171875,-6.04754638671875,-2.6080474853515625
1715093654808311600,6.4323115234375,1.2368316650390625,-5.8967132568359375,-2.6559295654296875
1715093654818291000,6.442291015625,2.1873321533203125,-6.107391357421875,-2.4141082763671875
1715093654828239600,6.452239501953125,2.4267578125,-6.5742645263671875,-1.5569915771484375
1715093654838218800,6.46221875,2.7954559326171875,-7.4816741943359375,-0.6400146484375
1715093654848198100,6.4721982421875,2.960662841796875,-8.338790893554688,1.095794677734375
1715093654858177300,6.48217724609375,3.53765869140625,-7.8312225341796875,5.0869140625
1715093654868126000,6.4921259765625,3.5927276611328125,-7.7354583740234375,7.1531219482421875
1715093654878105300,6.502105224609375,2.92474365234375,-9.832778930664062,6.8538360595703125
1715093654888084500,6.51208447265625,2.400421142578125,-12.909332275390625,6.5210418701171875
1715093654898033200,6.522033203125,2.326202392578125,-14.958755493164062,4.3016204833984375
1715093654908012500,6.532012451171875,2.8217926025390625,-16.311492919921875,-0.594512939453125
1715093654917991700,6.54199169921875,1.7851104736328125,-17.503799438476562,-4.7364959716796875
1715093654927971000,6.55197119140625,3.362884521484375,-17.630691528320312,-5.24884033203125
1715093654937919700,6.561919677734375,4.5504150390625,-14.417678833007812,-3.419677734375
1715093654947899000,6.57189892578125,2.759552001953125,-10.01953125,-1.89697265625
1715093654957878300,6.581878173828125,-2.9626007080078125,-9.473648071289062,0.0231781005859375
1715093654967827000,6.591826904296875,-5.5507354736328125,-14.295562744140625,-0.106109619140625
1715093654977806300,6.601806396484375,-4.8588104248046875,-24.044754028320312,1.6488494873046875
1715093654987785500,6.611785400390625,-8.284912109375,-31.8067626953125,1.7853240966796875
1715093654997734100,6.621734130859375,-6.65924072265625,-27.466079711914062,-0.3670654296875
1715093655007713500,6.631713623046875,-5.1916046142578125,-16.457534790039062,-5.11956787109375
1715093655017692700,6.641692626953125,-5.756622314453125,-9.435333251953125,-6.752410888671875
1715093655027641300,6.651641357421875,-2.6034698486328125,-5.990081787109375,-2.8307037353515625
1715093655037620700,6.661620849609375,2.12030029296875,-5.101837158203125,1.129302978515625
1715093655047599900,6.671599853515625,3.0013580322265625,-4.3189239501953125,2.237823486328125
1715093655057548500,6.681548583984375,2.9271392822265625,-2.87762451171875,2.42218017578125
1715093655067528000,6.69152783203125,1.988616943359375,-2.829742431640625,0.3488006591796875
1715093655077507000,6.701507080078125,0.6741943359375,-3.495330810546875,-1.7269744873046875
1715093655087455700,6.711455810546875,-0.3744659423828125,-5.0204315185546875,-3.00787353515625
1715093655097435100,6.72143505859375,-1.1334228515625,-7.0411376953125,-4.0086517333984375
1715093655107414300,6.731414306640625,-1.2770843505859375,-9.734619140625,-6.27117919921875
1715093655117393700,6.7413935546875,-1.042449951171875,-12.1431884765625,-7.4946136474609375
1715093655127342300,6.75134228515625,-0.78387451171875,-13.546188354492188,-6.7500152587890625
1715093655137321500,6.761321533203125,-0.9921722412109375,-12.760879516601562,-5.8354339599609375
1715093655147300900,6.77130078125,-0.0057525634765625,-9.1336669921875,-6.046112060546875
1715093655157280000,6.781280029296875,1.5432891845703125,-5.884735107421875,-4.872955322265625
1715093655167229000,6.79122900390625,2.8888397216796875,-4.036407470703125,-4.8801422119140625
1715093655177208000,6.8012080078125,2.9798126220703125,-3.0978851318359375,-4.8849334716796875
1715093655187187200,6.811187255859375,1.4307708740234375,-3.344482421875,-4.080474853515625
1715093655197136100,6.82113623046875,0.4874420166015625,-4.4865264892578125,-2.177093505859375
1715093655207115300,6.831115234375,0.784332275390625,-5.800933837890625,0.336822509765625
1715093655217094700,6.8410947265625,0.5592803955078125,-7.7522125244140625,2.9321441650390625
1715093655227073800,6.85107373046875,1.0333251953125,-9.737014770507812,4.3279571533203125
1715093655237022500,6.8610224609375,1.1674041748046875,-11.080154418945312,5.2736663818359375
1715093655247001900,6.871001953125,0.0540924072265625,-12.183883666992188,5.0629730224609375
1715093655256981000,6.88098095703125,-1.3105926513671875,-12.243743896484375,4.5171051025390625
1715093655266929700,6.8909296875,-2.512481689453125,-11.123245239257812,3.76531982421875
1715093655276909000,6.900908935546875,-3.144561767578125,-9.981216430664062,2.5370941162109375
1715093655286888200,6.91088818359375,-3.7215576171875,-9.294082641601562,1.581817626953125
1715093655296836900,6.9208369140625,-3.1277923583984375,-8.70989990234375,1.27056884765625
1715093655306816300,6.930816162109375,-3.156524658203125,-8.64764404296875,1.19635009765625
1715093655316795400,6.94079541015625,-2.754302978515625,-8.666793823242188,1.3950653076171875
1715093655326744300,6.950744384765625,-1.9857635498046875,-9.090576171875,1.5530853271484375
1715093655336723500,6.960723388671875,-0.0799713134765625,-9.521530151367188,1.7015228271484375
1715093655346702600,6.97070263671875,2.0867767333984375,-9.691513061523438,1.756591796875
1715093655356651500,6.980651611328125,5.3572540283203125,-9.274932861328125,1.160430908203125
1715093655366630700,6.990630615234375,6.7458953857421875,-8.458511352539062,0.5020294189453125
1715093655376610000,7.000610107421875,5.6732940673828125,-7.517578125,0.16204833984375
1715093655386589200,7.010589111328125,3.1952972412109375,-7.0411376953125,-0.5226898193359375
1715093655396537900,7.020537841796875,0.4922332763671875,-7.84320068359375,-1.0446319580078125
1715093655406517200,7.030517333984375,-1.22918701171875,-9.847137451171875,-0.69268798828125
1715093655416496400,7.040496337890625,-2.0647735595703125,-12.042617797851562,0.22430419921875
1715093655426475500,7.0504755859375,-1.614654541015625,-13.82391357421875,0.5115966796875
1715093655436455000,7.060454833984375,-0.60430908203125,-14.420074462890625,0.62652587890625
1715093655446403600,7.070403564453125,0.5329437255859375,-13.6036376953125,1.9241790771484375
1715093655456383000,7.080383056640625,1.6486358642578125,-12.07135009765625,3.7988433837890625
1715093655466362000,7.090362060546875,2.9774169921875,-9.887847900390625,4.208251953125
1715093655476310800,7.100310791015625,2.7092742919921875,-7.5295562744140625,3.7892608642578125
1715093655486290200,7.110290283203125,1.5289306640625,-5.5854644775390625,3.3822479248046875
1715093655496269300,7.120269287109375,0.499420166015625,-4.9510040283203125,2.829193115234375
1715093655506218000,7.130218017578125,0.841796875,-4.754669189453125,1.2154998779296875
1715093655516197400,7.140197265625,-0.309814453125,-5.3651885986328125,-0.477203369140625
1715093655526176500,7.150176513671875,-2.05279541015625,-6.919036865234375,-2.5505828857421875
1715093655536125200,7.160125244140625,-2.56036376953125,-8.628494262695312,-4.7795867919921875
1715093655546104600,7.1701044921875,-3.197235107421875,-9.942916870117188,-6.4818572998046875
1715093655556083700,7.180083740234375,-5.0192108154296875,-11.570968627929688,-7.3701171875
1715093655566032600,7.19003271484375,-6.37432861328125,-13.73052978515625,-9.144210815429688
1715093655576011800,7.20001171875,-7.1380767822265625,-17.443939208984375,-12.371597290039062
1715093655585991000,7.209990966796875,-7.79888916015625,-21.274673461914062,-12.642135620117188
1715093655595939800,7.21993994140625,-8.071823120117188,-23.838851928710938,-9.754730224609375
1715093655605919000,7.2299189453125,-7.8826751708984375,-24.054336547851562,-7.1666107177734375
1715093655615898400,7.2398984375,-7.071044921875,-20.08953857421875,-2.2345428466796875
1715093655625847000,7.249846923828125,-5.9481658935546875,-14.336273193359375,5.757293701171875
1715093655635826200,7.259826171875,-4.3488311767578125,-10.797637939453125,9.616744995117188
1715093655645805600,7.2698056640625,-1.3584747314453125,-9.210281372070312,10.160232543945312
1715093655655754200,7.279754150390625,-0.3074188232421875,-8.166412353515625,7.0645294189453125
1715093655665733400,7.2897333984375,-0.503753662109375,-7.1153564453125,4.63201904296875
1715093655675712800,7.299712646484375,-2.2850341796875,-6.6939849853515625,2.4006195068359375
1715093655685692000,7.30969189453125,-2.8572540283203125,-6.411468505859375,0.727081298828125
1715093655695671300,7.31967138671875,-1.40875244140625,-6.6269378662109375,-1.8419036865234375
1715093655705620000,7.329619873046875,1.112335205078125,-6.92620849609375,-3.7381134033203125
1715093655715599000,7.33959912109375,2.876861572265625,-6.98846435546875,-4.1810302734375
1715093655725578500,7.34957861328125,2.939117431640625,-6.591033935546875,-3.8290863037109375
1715093655735557600,7.3595576171875,2.199310302734375,-5.28619384765625,-2.0956878662109375
1715093655745506300,7.36950634765625,1.2775421142578125,-4.1321868896484375,-0.371856689453125
1715093655755485700,7.379485595703125,0.3964691162109375,-3.9382476806640625,0.5187835693359375
1715093655765464800,7.38946484375,0.109161376953125,-4.4027252197265625,1.0263519287109375
1715093655775413800,7.399413818359375,0.350982666015625,-5.3819580078125,1.095794677734375
1715093655785393000,7.409392822265625,0.767578125,-6.2893524169921875,0.8779144287109375
1715093655795372000,7.4193720703125,1.2368316650390625,-6.7442626953125,0.7342681884765625
1715093655805321000,7.429321044921875,1.713287353515625,-7.2063446044921875,0.1476898193359375
1715093655815300000,7.439300048828125,2.378875732421875,-7.27337646484375,-0.3574981689453125
1715093655825279200,7.449279296875,2.8888397216796875,-7.4409637451171875,-0.07977294921875
1715093655835228200,7.459228271484375,3.298248291015625,-7.5032196044921875,1.557861328125
1715093655845207300,7.469207275390625,3.1761322021484375,-7.457733154296875,3.6312408447265625
1715093655855186700,7.479186767578125,2.8265838623046875,-7.9269866943359375,4.9767913818359375
1715093655865135400,7.48913525390625,2.845733642578125,-8.49920654296875,5.7333526611328125
1715093655875114500,7.499114501953125,2.558441162109375,-9.782501220703125,6.126007080078125
1715093655885094000,7.509093994140625,2.1562042236328125,-11.800811767578125,5.1204376220703125
1715093655895042600,7.51904248046875,1.6773681640625,-13.998687744140625,2.83636474609375
1715093655905021700,7.529021728515625,0.29351806640625,-15.993057250976562,0.5666656494140625
1715093655915001000,7.5390009765625,-1.6433868408203125,-17.661819458007812,-1.3726348876953125
1715093655924949800,7.54894970703125,-1.3153839111328125,-19.186920166015625,-4.33905029296875
1715093655934929000,7.558928955078125,2.0029754638671875,-17.96588134765625,-5.8402099609375
1715093655944908300,7.568908203125,4.155364990234375,-12.47119140625,-4.195404052734375
1715093655954857000,7.57885693359375,3.3748626708984375,-7.5941925048828125,-1.2026519775390625
1715093655964836400,7.58883642578125,2.4722442626953125,-7.151275634765625,0.1596527099609375
1715093655974815500,7.5988154296875,0.8513641357421875,-10.551040649414062,1.4214019775390625
1715093655984794600,7.608794677734375,0.995025634765625,-14.980316162109375,1.826019287109375
1715093655994774000,7.61877392578125,-1.423126220703125,-19.115097045898438,1.2202911376953125
1715093656004722700,7.62872265625,-5.53875732421875,-20.76708984375,0.9928436279296875
1715093656014702000,7.6387021484375,-9.096542358398438,-19.115097045898438,-2.93365478515625
1715093656024681200,7.64868115234375,-6.8795166015625,-15.8948974609375,-3.122802734375
1715093656034660400,7.658660400390625,-3.2115936279296875,-11.269302368164062,-1.755706787109375
1715093656044609300,7.668609375,-0.8987884521484375,-8.863128662109375,0.7558135986328125
1715093656054588400,7.67858837890625,0.5808258056640625,-7.8886871337890625,2.5993499755859375
1715093656064567800,7.68856787109375,1.7707366943359375,-6.413848876953125,3.209869384765625
1715093656074516500,7.6985166015625,0.8513641357421875,-4.922271728515625,2.2617645263671875
1715093656084495600,7.70849560546875,-0.051239013671875,-4.558349609375,-0.3694610595703125
1715093656094475000,7.71847509765625,0.6119537353515625,-4.9581756591796875,-1.4420623779296875
1715093656104423700,7.728423583984375,1.3254241943359375,-5.6548919677734375,-4.02301025390625
1715093656114402800,7.73840283203125,1.56243896484375,-6.9070587158203125,-5.8833160400390625
1715093656124382200,7.74838232421875,1.200927734375,-8.470474243164062,-7.0612640380859375
1715093656134331000,7.758330810546875,0.07086181640625,-9.971633911132812,-6.7093048095703125
1715093656144310000,7.76831005859375,-2.237152099609375,-11.001144409179688,-4.1570892333984375
1715093656154289400,7.778289306640625,-3.664093017578125,-10.797637939453125,-4.4731292724609375
1715093656164238000,7.788238037109375,-3.2858123779296875,-8.791305541992188,-5.727691650390625
1715093656174217200,7.79821728515625,-1.0520172119140625,-7.1776123046875,-4.734100341796875
1715093656184196600,7.808196533203125,1.40203857421875,-6.3156890869140625,-4.7005767822265625
1715093656194145300,7.818145263671875,2.9175567626953125,-6.069091796875,-4.4970703125
1715093656204124700,7.828124755859375,2.8744659423828125,-6.1672515869140625,-3.953582763671875
1715093656214103800,7.838103759765625,1.5001983642578125,-6.7203216552734375,-3.2377166748046875
1715093656224083000,7.8480830078125,-0.0584259033203125,-7.1823883056640625,-1.4516448974609375
1715093656234031900,7.858031982421875,-0.79583740234375,-7.8623504638671875,0.55230712890625
1715093656244011000,7.868010986328125,-0.953857421875,-8.779327392578125,2.04388427734375
1715093656253990400,7.877990478515625,-1.0304718017578125,-9.909393310546875,2.819610595703125
1715093656263969500,7.887969482421875,-1.24835205078125,-10.543853759765625,2.908203125
1715093656273948700,7.89794873046875,-1.0256805419921875,-10.223037719726562,2.70709228515625
1715093656283897600,7.907897705078125,-1.1094818115234375,-9.586166381835938,2.798065185546875
1715093656293876700,7.917876708984375,-1.624237060546875,-8.944534301757812,2.7262420654296875
1715093656303856000,7.927856201171875,-1.9594268798828125,-8.439346313476562,2.376678466796875
1715093656313835300,7.937835205078125,-2.2036285400390625,-8.365127563476562,1.7541961669921875
1715093656323784000,7.947783935546875,-2.4885406494140625,-8.673980712890625,1.0095977783203125
1715093656333763300,7.957763427734375,-3.462982177734375,-9.294082641601562,0.6480712890625
1715093656343742500,7.967742431640625,-1.8373260498046875,-9.605331420898438,0.5810394287109375
1715093656353691100,7.977691162109375,-0.6665496826171875,-10.00994873046875,0.9042510986328125
1715093656363670500,7.98767041015625,0.4275970458984375,-10.15838623046875,1.5650482177734375
1715093656373649700,7.997649658203125,2.9223480224609375,-9.7777099609375,1.4956207275390625
1715093656383598300,8.007598388671875,4.7084197998046875,-8.973251342773438,0.8611602783203125
1715093656393577700,8.01757763671875,5.03643798828125,-7.649261474609375,0.616943359375
1715093656403556900,8.027556884765625,4.3373260498046875,-6.3372344970703125,0.92340087890625
1715093656413505800,8.037505859375,2.88165283203125,-5.7602386474609375,1.4214019775390625
1715093656423485000,8.04748486328125,0.784332275390625,-6.571868896484375,2.0654449462890625
1715093656433464000,8.057464111328125,-0.1733551025390625,-8.46807861328125,2.7429962158203125
1715093656443413000,8.0674130859375,0.034942626953125,-10.883834838867188,3.00396728515625
1715093656453392100,8.07739208984375,0.3031005859375,-13.292404174804688,1.6871490478515625
1715093656463371500,8.08737158203125,1.514556884765625,-13.991500854492188,-0.175537109375
1715093656473320200,8.0973203125,1.4738616943359375,-13.574920654296875,0.0016326904296875
1715093656483299300,8.10729931640625,2.273529052734375,-12.717788696289062,0.9138336181640625
1715093656493278700,8.11727880859375,1.5384979248046875,-11.523086547851562,1.878692626953125
1715093656503227400,8.127227294921875,0.7508087158203125,-9.7034912109375,1.483642578125
1715093656513206500,8.13720654296875,-0.3217926025390625,-7.6109619140625,1.2585906982421875
1715093656523186000,8.14718603515625,-1.667327880859375,-6.3300628662109375,1.1532440185546875
1715093656533165000,8.1571650390625,-2.648956298828125,-6.318084716796875,-0.2473602294921875
1715093656543113700,8.16711376953125,-2.998504638671875,-7.40985107421875,-2.54339599609375
1715093656553093000,8.177093017578125,-3.26666259765625,-8.764968872070312,-5.3517913818359375
1715093656563072300,8.187072265625,-3.345672607421875,-9.569412231445312,-7.429962158203125
1715093656573051600,8.1970517578125,-4.0040740966796875,-10.244583129882812,-8.488204956054688
1715093656583030800,8.20703076171875,-4.8540191650390625,-12.088119506835938,-9.891204833984375
1715093656592979500,8.2169794921875,-4.8396453857421875,-15.104812622070312,-12.024444580078125
1715093656602958800,8.226958740234375,-5.016815185546875,-18.614715576171875,-13.659683227539062
1715093656612938000,8.23693798828125,-5.3304595947265625,-22.074325561523438,-12.661300659179688
1715093656622886700,8.24688671875,-5.2203216552734375,-23.190032958984375,-8.464263916015625
1715093656632866000,8.256865966796875,-6.1732177734375,-19.814208984375,-3.1419525146484375
1715093656642845200,8.26684521484375,-8.397430419921875,-14.25726318359375,1.7757415771484375
1715093656652794000,8.276794189453126,-7.626495361328125,-11.10888671875,6.094879150390625
1715093656662773200,8.286773193359375,-3.8077545166015625,-8.855941772460938,9.255233764648438
1715093656672752400,8.29675244140625,-2.3089752197265625,-7.986846923828125,8.386138916015625
1715093656682701300,8.306701416015626,-1.028076171875,-7.1608428955078125,7.184234619140625
1715093656692680400,8.316680419921875,-1.79901123046875,-6.5096282958984375,5.704620361328125
1715093656702659800,8.326659912109376,-1.9019622802734375,-6.401885986328125,4.3279571533203125
1715093656712608500,8.3366083984375,-0.17095947265625,-6.7107391357421875,2.4413299560546875
1715093656722587600,8.346587646484375,1.5744171142578125,-7.0483245849609375,0.557098388671875
1715093656732567000,8.356567138671876,3.1162872314453125,-7.531951904296875,-0.879425048828125
1715093656742515700,8.366515625,3.118682861328125,-7.9317779541015625,-1.7700653076171875
1715093656752494800,8.376494873046875,2.1609954833984375,-7.369140625,-1.6958465576171875
1715093656762474200,8.38647412109375,1.3325958251953125,-6.5623016357421875,-1.217010498046875
1715093656772423000,8.3964228515625,0.9567108154296875,-6.365966796875,-1.331939697265625
1715093656782402000,8.406402099609375,1.1195220947265625,-6.5359649658203125,-1.7724609375
1715093656792381400,8.41638134765625,1.5576629638671875,-6.7418670654296875,-2.45721435546875
1715093656802330000,8.426330078125,2.141845703125,-6.602996826171875,-3.30474853515625
1715093656812309500,8.4363095703125,2.6063232421875,-6.1504974365234375,-3.841064453125
1715093656822288600,8.44628857421875,2.7308197021484375,-5.573486328125,-4.0996246337890625
1715093656832267800,8.456267822265625,3.1258544921875,-5.671661376953125,-3.6758575439453125
1715093656842247200,8.4662470703125,2.8696746826171875,-5.990081787109375,-2.8618316650390625
1715093656852195800,8.47619580078125,2.613494873046875,-6.4425811767578125,-2.0861053466796875
1715093656862175200,8.48617529296875,2.56561279296875,-6.646087646484375,-0.66156005859375
1715093656872154400,8.496154296875,2.486602783203125,-6.5431365966796875,1.6440582275390625
1715093656882133500,8.506133544921875,2.65899658203125,-6.792144775390625,3.54266357421875
1715093656892082400,8.51608251953125,2.8960113525390625,-7.9796600341796875,5.57293701171875
1715093656902061600,8.5260615234375,2.8313751220703125,-10.105712890625,7.3542327880859375
1715093656912040700,8.536040771484375,2.3956298828125,-12.871017456054688,8.97271728515625
1715093656921989600,8.54598974609375,2.0388946533203125,-15.593231201171875,9.317474365234375
1715093656931968800,8.55596875,-0.7192230224609375,-18.126296997070312,6.8251190185546875
1715093656941948200,8.5659482421875,-3.992095947265625,-19.153411865234375,2.60174560546875
1715093656951896800,8.575896728515625,-3.95379638671875,-18.976226806640625,-2.0765228271484375
1715093656961876000,8.5858759765625,-0.93231201171875,-17.745620727539062,-4.7652130126953125
1715093656971855400,8.59585546875,4.0835418701171875,-12.67230224609375,-3.5920562744140625
1715093656981804000,8.605803955078125,4.3684539794921875,-7.7593994140625,-1.3247528076171875
1715093656991783200,8.615783203125,4.58392333984375,-8.017974853515625,0.3535919189453125
1715093657001762600,8.625762451171875,2.80743408203125,-11.429702758789062,1.34478759765625
1715093657011711200,8.635711181640625,-0.3960113525390625,-12.483154296875,-0.1827239990234375
1715093657021690400,8.6456904296875,-2.553192138671875,-16.311492919921875,-2.4763641357421875
1715093657031669800,8.655669677734375,-5.428619384765625,-22.565139770507812,-0.175537109375
1715093657041618400,8.665618408203125,-9.630447387695312,-24.346420288085938,-1.7892303466796875
1715093657051597800,8.675597900390626,-7.4062347412109375,-17.285934448242188,-5.761199951171875
1715093657061577000,8.685576904296875,-3.3600311279296875,-10.5079345703125,-4.6646575927734375
1715093657071525600,8.695525634765625,0.192962646484375,-8.88946533203125,1.064666748046875
1715093657081505000,8.705505126953126,1.7444000244140625,-7.1129608154296875,2.027130126953125
1715093657091484200,8.715484130859375,2.96783447265625,-4.8576202392578125,3.2649383544921875
1715093657101432800,8.725432861328125,2.864898681640625,-2.8129730224609375,2.3790740966796875
1715093657111412200,8.735412109375,1.2847137451171875,-1.8888092041015625,-0.0055389404296875
1715093657121391400,8.745391357421875,0.350982666015625,-2.27667236328125,-1.427703857421875
1715093657131370800,8.755370849609376,-0.3960113525390625,-3.9478302001953125,-3.244903564453125
1715093657141350000,8.765349853515625,-1.1406097412109375,-5.946990966796875,-5.5433349609375
1715093657151298600,8.775298583984375,-1.18609619140625,-8.322036743164062,-7.5281219482421875
1715093657161278000,8.78527783203125,-1.2052459716796875,-10.998748779296875,-8.318222045898438
1715093657171257000,8.795257080078125,-1.444671630859375,-13.122406005859375,-7.1905517578125
1715093657181236500,8.805236572265626,-1.2363739013671875,-13.076919555664062,-6.37890625
1715093657191185200,8.81518505859375,0.384490966796875,-9.950088500976562,-5.8043060302734375
1715093657201164300,8.825164306640625,1.9503021240234375,-7.0554962158203125,-4.14752197265625
1715093657211143700,8.835143798828126,2.8744659423828125,-5.302947998046875,-2.96478271484375
1715093657221092400,8.84509228515625,2.6925048828125,-4.5511627197265625,-1.798797607421875
1715093657231071500,8.855071533203125,1.935943603515625,-4.649322509765625,-0.2832794189453125
1715093657241051000,8.86505078125,1.2559814453125,-5.4322357177734375,1.8858795166015625
1715093657250999600,8.87499951171875,0.858551025390625,-6.6820068359375,3.971221923828125
1715093657260979000,8.88497900390625,0.434783935546875,-8.269363403320312,5.0605926513671875
1715093657270958000,8.8949580078125,-0.35052490234375,-9.86151123046875,5.2257843017578125
1715093657280906800,8.90490673828125,-1.226806640625,-11.233383178710938,4.62005615234375
1715093657290886100,8.91488623046875,-2.026458740234375,-11.843902587890625,3.791656494140625
1715093657300865300,8.924865234375,-2.3879852294921875,-11.760116577148438,2.9704437255859375
1715093657310814000,8.93481396484375,-2.65374755859375,-11.38421630859375,1.9553070068359375
1715093657320793300,8.94479345703125,-2.1174468994140625,-10.754547119140625,1.318450927734375
1715093657330772500,8.9547724609375,-1.5643768310546875,-10.086563110351562,0.97607421875
1715093657340721200,8.96472119140625,-1.2722930908203125,-9.521530151367188,1.107757568359375
1715093657350700500,8.974700439453125,-1.33453369140625,-9.210281372070312,1.4597015380859375
1715093657360679700,8.9846796875,-1.255523681640625,-9.011566162109375,1.7996826171875
1715093657370628400,8.99462841796875,-1.001739501953125,-8.808059692382812,1.8020782470703125
1715093657380607700,9.004607666015625,0.50421142578125,-8.36273193359375,1.7374267578125
1715093657390587000,9.0145869140625,2.019744873046875,-7.7665863037109375,1.0694580078125
1715093657400566300,9.024566162109375,3.8776397705078125,-7.089019775390625,-0.022308349609375
1715093657410545400,9.03454541015625,4.990936279296875,-6.40667724609375,-0.8243560791015625
1715093657420494000,9.044494140625,4.8065948486328125,-6.25823974609375,-1.2026519775390625
1715093657430473500,9.054473388671875,3.901580810546875,-6.79693603515625,-0.8387298583984375
1715093657440452600,9.06445263671875,2.201690673828125,-7.922210693359375,0.5235748291015625
1715093657450432000,9.074431884765625,-0.060821533203125,-9.464065551757812,2.22344970703125
1715093657460380700,9.084380615234375,-1.8636627197265625,-11.764892578125,2.987213134765625
1715093657470359800,9.09435986328125,-2.3041839599609375,-14.652297973632812,2.6256866455078125
1715093657480339200,9.104339111328125,-0.57318115234375,-16.447952270507812,1.1891632080078125
1715093657490287900,9.114287841796875,1.1841583251953125,-15.411270141601562,1.59857177734375
1715093657500267300,9.124267333984376,2.4267578125,-12.681869506835938,2.8052520751953125
1715093657510246400,9.134246337890625,1.78271484375,-10.268524169921875,3.2170562744140625
1715093657520225500,9.1442255859375,0.805877685546875,-8.367523193359375,2.9225616455078125
1715093657530174500,9.154174560546876,0.1690216064453125,-7.1129608154296875,2.9512939453125
1715093657540153600,9.164153564453125,-1.073577880859375,-6.440185546875,2.8914337158203125
1715093657550133000,9.174133056640626,-2.2610931396484375,-6.581451416015625,1.3782958984375
1715093657560081700,9.18408154296875,-1.9690093994140625,-7.6971435546875,-1.6144561767578125
1715093657570060800,9.194060791015625,-1.561981201171875,-9.593353271484375,-5.179412841796875
1715093657580040200,9.204040283203126,-2.22039794921875,-11.199859619140625,-7.937530517578125
1715093657589988900,9.21398876953125,-3.63775634765625,-12.39697265625,-10.006134033203125
1715093657599968000,9.223968017578125,-4.904296875,-14.05615234375,-12.510467529296875
1715093657609947400,9.233947509765626,-5.2921600341796875,-16.562881469726562,-14.885513305664062
1715093657619896000,9.24389599609375,-5.627349853515625,-18.691329956054688,-14.291748046875
1715093657629875200,9.253875244140625,-5.9314117431640625,-19.69927978515625,-11.243927001953125
1715093657639854600,9.2638544921875,-6.575439453125,-18.9283447265625,-7.6239013671875
1715093657649803300,9.27380322265625,-6.6185455322265625,-16.072067260742188,-2.7325439453125
1715093657659782700,9.28378271484375,-5.94097900390625,-12.016281127929688,3.166778564453125
1715093657669761800,9.29376171875,-6.8196563720703125,-10.270919799804688,6.643157958984375
1715093657679741000,9.303740966796875,-3.0655517578125,-8.875091552734375,9.829833984375
1715093657689689900,9.31368994140625,-1.1932830810546875,-8.4345703125,8.850601196289062
1715093657699669000,9.3236689453125,-0.6761322021484375,-7.522369384765625,7.289581298828125
1715093657709648100,9.333648193359375,-1.597900390625,-6.519195556640625,5.0988922119140625
1715093657719627500,9.34362744140625,-1.68170166015625,-5.693206787109375,3.327178955078125
1715093657729576200,9.353576171875,-0.69049072265625,-5.647705078125,1.2993011474609375
1715093657739555600,9.3635556640625,0.49462890625,-6.2199249267578125,-0.7070465087890625
1715093657749534700,9.37353466796875,2.3022613525390625,-7.0698699951171875,-2.7660675048828125
1715093657759513900,9.383513916015625,3.4083709716796875,-7.141693115234375,-3.7404937744140625
1715093657769462800,9.393462890625,3.044464111328125,-6.370758056640625,-3.6734619140625
1715093657779442000,9.40344189453125,2.369293212890625,-5.4106903076171875,-2.99591064453125
1715093657789421300,9.41342138671875,1.883270263671875,-4.9246673583984375,-2.4021453857421875
1715093657799370000,9.423369873046875,1.536102294921875,-5.188018798828125,-2.189056396484375
1715093657809349000,9.43334912109375,1.4571075439453125,-5.8823394775390625,-2.124420166015625
1715093657819328500,9.44332861328125,1.536102294921875,-6.5527191162109375,-1.9424591064453125
1715093657829277200,9.453277099609375,1.56243896484375,-7.0554962158203125,-2.06695556640625
1715093657839256300,9.46325634765625,1.8904571533203125,-7.2518310546875,-2.0956878662109375
1715093657849235700,9.473235595703125,2.1442413330078125,-7.4673004150390625,-1.67669677734375
1715093657859184400,9.483184326171875,2.421966552734375,-8.518356323242188,-0.826751708984375
1715093657869163500,9.49316357421875,2.601531982421875,-9.444915771484375,0.6025848388671875
1715093657879143000,9.503142822265625,2.644622802734375,-9.83038330078125,2.63525390625
1715093657889091600,9.513091552734375,2.1729736328125,-9.437728881835938,5.35028076171875
1715093657899071000,9.523071044921876,1.121917724609375,-8.585403442382812,8.153900146484375
1715093657909050000,9.533050048828125,0.4443511962890625,-8.645248413085938,9.99981689453125
1715093657918998800,9.542998779296875,0.68377685546875,-9.437728881835938,10.141082763671875
1715093657928978200,9.552978271484376,1.2895050048828125,-11.037063598632812,8.041366577148438
1715093657938957300,9.562957275390625,2.0556488037109375,-12.904541015625,5.0031280517578125
1715093657948906000,9.572906005859375,1.9598846435546875,-14.630752563476562,2.4844207763671875
1715093657958885400,9.582885498046876,2.3357696533203125,-16.400070190429688,-0.1252593994140625
1715093657968864500,9.592864501953125,5.0460052490234375,-17.283538818359375,-4.4850921630859375
1715093657978844000,9.602843994140626,6.8991241455078125,-15.945175170898438,-7.7962799072265625
1715093657988823000,9.612822998046875,3.4347076416015625,-12.368240356445312,-6.733245849609375
1715093657998771700,9.622771728515625,-1.159759521484375,-10.299652099609375,0.3392181396484375
1715093658008751000,9.632751220703126,-1.9857635498046875,-11.487167358398438,4.2226104736328125
1715093658018730200,9.642730224609375,-5.1508941650390625,-13.697021484375,4.7158203125
1715093658028709600,9.652709716796876,-4.09027099609375,-19.103118896484375,4.4237213134765625
1715093658038658300,9.662658203125,-5.64410400390625,-23.927444458007812,3.1739501953125
1715093658048637400,9.672637451171875,-9.57537841796875,-23.486907958984375,-0.1444091796875
1715093658058616800,9.682616943359376,-5.3567962646484375,-16.780746459960938,-4.746063232421875
1715093658068565500,9.6925654296875,-2.2874298095703125,-10.081771850585938,-4.956756591796875
1715093658078544600,9.702544677734375,-0.8820343017578125,-6.042755126953125,-1.207427978515625
1715093658088524000,9.71252392578125,1.016571044921875,-4.816925048828125,1.3854827880859375
1715093658098472700,9.72247265625,1.6845550537109375,-4.4530029296875,2.862701416015625
1715093658108451800,9.732451904296875,1.0883941650390625,-3.9741668701171875,2.1779632568359375
1715093658118431200,9.74243115234375,0.923187255859375,-3.77545166015625,1.0215606689453125
1715093658128380000,9.7523798828125,0.3078765869140625,-4.1130218505859375,0.832427978515625
1715093658138359300,9.762359375,0.0205841064453125,-6.0834503173828125,0.2482452392578125
1715093658148338400,9.77233837890625,-0.72161865234375,-8.958892822265625,-1.058990478515625
1715093658158287000,9.782287109375,-1.571563720703125,-11.693069458007812,-2.9432373046875
1715093658168266500,9.7922666015625,-2.5196685791015625,-13.352249145507812,-4.8849334716796875
1715093658178245600,9.80224560546875,-2.912322998046875,-13.8765869140625,-6.453125
1715093658188194300,9.8121943359375,-1.7319793701171875,-12.179092407226562,-6.752410888671875
1715093658198173700,9.822173583984375,0.2911224365234375,-8.973251342773438,-5.1913909912109375
1715093658208152800,9.83215283203125,2.053253173828125,-5.73150634765625,-3.826690673828125
1715093658218101500,9.8421015625,3.171356201171875,-3.45941162109375,-3.783599853515625
1715093658228081000,9.852080810546875,3.099517822265625,-1.647003173828125,-3.78839111328125
1715093658238060000,9.86206005859375,1.58160400390625,-0.7874755859375,-3.4699554443359375
1715093658248039400,9.872039306640625,0.923187255859375,-1.9678192138671875,-1.3702392578125
1715093658257988000,9.881988037109375,0.5927886962890625,-4.2902069091796875,0.1476898193359375
1715093658267967200,9.89196728515625,0.5018157958984375,-6.7274932861328125,1.055084228515625
1715093658277946600,9.901946533203125,0.4922332763671875,-9.119308471679688,2.3982391357421875
1715093658287925800,9.91192578125,0.022979736328125,-11.779266357421875,3.3128204345703125
1715093658297905200,9.9219052734375,-0.894012451171875,-13.661102294921875,3.494781494140625
1715093658307853800,9.931853759765625,-1.43988037109375,-13.409713745117188,2.776519775390625
1715093658317833000,9.9418330078125,-2.5196685791015625,-12.078536987304688,2.03192138671875
1715093658327812400,9.951812255859375,-3.146942138671875,-10.63482666015625,1.3591461181640625
1715093658337761000,9.961760986328125,-3.01287841796875,-9.763351440429688,1.0048065185546875
1715093658347740400,9.971740478515626,-3.0631561279296875,-9.528717041015625,0.853973388671875
1715093658357719600,9.981719482421875,-2.7064208984375,-9.380279541015625,0.99761962890625
1715093658367668200,9.991668212890625,-2.057586669921875,-9.404220581054688,1.31365966796875
1715093658377647600,10.001647705078126,-0.7766876220703125,-9.320419311523438,1.5147705078125
1715093658387626800,10.011626708984375,0.8465728759765625,-9.052261352539062,1.457305908203125
1715093658397575400,10.021575439453125,3.8728485107421875,-8.290908813476562,0.8731231689453125
1715093658407554800,10.031554931640626,6.2335357666015625,-7.5870208740234375,0.494842529296875
1715093658417534000,10.041533935546875,6.822509765625,-6.7107391357421875,0.612152099609375
1715093658427513300,10.051513427734376,5.87200927734375,-5.7410888671875,1.0574798583984375
1715093658437462000,10.0614619140625,4.1146697998046875,-5.6788330078125,1.277740478515625
1715093658447441200,10.071441162109375,2.4770355224609375,-7.4409637451171875,1.3232421875
1715093658457420500,10.081420654296876,0.520965576171875,-10.41217041015625,2.110931396484375
1715093658467369200,10.091369140625,-1.53326416015625,-13.50787353515625,2.0726165771484375
1715093658477348400,10.101348388671875,-2.7375335693359375,-16.1917724609375,0.643280029296875
1715093658487327700,10.11132763671875,-1.8899993896484375,-18.054458618164062,-1.5210723876953125
1715093658497276400,10.1212763671875,0.022979736328125,-17.949127197265625,-2.0765228271484375
1715093658507255600,10.131255615234375,0.4587249755859375,-14.834259033203125,-0.3527069091796875
1715093658517235000,10.14123486328125,-1.42791748046875,-11.180709838867188,1.435760498046875
1715093658527183600,10.15118359375,-2.5292510986328125,-8.42498779296875,2.5730133056640625
1715093658537163000,10.1611630859375,-3.2211761474609375,-6.401885986328125,3.33197021484375
1715093658547142100,10.17114208984375,-4.4110870361328125,-5.1521148681640625,3.6049041748046875
1715093658557121300,10.181121337890625,-3.7024078369140625,-4.56793212890625,1.339996337890625
1715093658567100700,10.1911005859375,-2.3712310791015625,-5.386749267578125,-2.2560882568359375
1715093658577049300,10.20104931640625,-1.8492889404296875,-7.3499908447265625,-5.8210601806640625
1715093658587028700,10.21102880859375,-1.9546356201171875,-9.313232421875,-9.1466064453125
1715093658597008000,10.2210078125,-2.538818359375,-11.810394287109375,-11.751495361328125
1715093658606987000,10.230987060546875,-3.3073577880859375,-14.98748779296875,-13.59503173828125
1715093658616936000,10.24093603515625,-3.6497344970703125,-18.171783447265625,-14.80889892578125
1715093658626915000,10.2509150390625,-5.28497314453125,-20.415145874023438,-13.745864868164062
1715093658636894500,10.26089453125,-6.2977142333984375,-20.498947143554688,-9.302230834960938
1715093658646843100,10.270843017578125,-7.7079010009765625,-18.664993286132812,-2.04541015625
1715093658656822300,10.280822265625,-8.902603149414062,-16.787933349609375,2.989593505859375
1715093658666801700,10.2908017578125,-7.1644134521484375,-12.231765747070312,8.532180786132812
1715093658676750300,10.300750244140625,-8.225051879882812,-9.753768920898438,9.6502685546875
1715093658686729500,10.3107294921875,-5.46453857421875,-7.754608154296875,10.818634033203125
1715093658696708900,10.320708984375,-3.082305908203125,-6.4713134765625,8.2137451171875
1715093658706657500,10.330657470703125,-1.265106201171875,-4.9629669189453125,6.317535400390625
1715093658716636700,10.34063671875,-0.345733642578125,-5.01324462890625,3.67913818359375
1715093658726616000,10.350615966796875,0.0253753662109375,-5.5112457275390625,1.53631591796875
1715093658736564700,10.360564697265625,0.6813812255859375,-6.0499420166015625,0.0040283203125
1715093658746544000,10.370544189453126,1.5217437744140625,-6.8328399658203125,-1.48516845703125
1715093658756523300,10.380523193359375,2.6494140625,-7.579833984375,-2.5457916259765625
1715093658766472000,10.390471923828125,2.972625732421875,-8.029937744140625,-3.41009521484375
1715093658776451300,10.400451416015626,2.8912200927734375,-7.53912353515625,-3.5968475341796875
1715093658786430500,10.410430419921875,2.6063232421875,-6.698760986328125,-3.0318145751953125
1715093658796379100,10.420379150390625,2.0987396240234375,-6.2414703369140625,-2.4500274658203125
1715093658806358500,10.430358642578126,1.2727508544921875,-6.27978515625,-1.7413482666015625
1715093658816337700,10.440337646484375,0.5808258056640625,-6.6628570556640625,-0.941680908203125
1715093658826317000,10.450317138671876,0.1642303466796875,-7.30450439453125,-0.5274810791015625
1715093658836265700,10.460265625,-0.249969482421875,-7.627716064453125,-0.4795989990234375
1715093658846244900,10.470244873046875,-0.324188232421875,-7.618133544921875,-0.7501373291015625
1715093658856224300,10.480224365234376,0.437164306640625,-7.3882904052734375,-1.10687255859375
1715093658866203400,10.490203369140625,1.8377838134765625,-7.2637939453125,-1.2505340576171875
1715093658876182800,10.500182861328126,2.8098297119140625,-7.575042724609375,-0.8698577880859375
1715093658886131500,10.51013134765625,3.173736572265625,-8.2669677734375,-0.0582122802734375
1715093658896110600,10.520110595703125,3.38922119140625,-8.769744873046875,1.265777587890625
1715093658906090000,10.530090087890626,3.532867431640625,-8.511184692382812,3.7413787841796875
1715093658916038700,10.54003857421875,3.1258544921875,-8.017974853515625,6.164306640625
1715093658926017800,10.550017822265625,2.378875732421875,-8.233444213867188,7.921661376953125
1715093658935997200,10.5599970703125,1.409210205078125,-9.679550170898438,8.522598266601562
1715093658945945900,10.56994580078125,0.669403076171875,-11.973190307617188,7.4236602783203125
1715093658955925000,10.579925048828125,0.2432403564453125,-13.938827514648438,5.5418243408203125
1715093658965904400,10.589904296875,-0.4151611328125,-15.66265869140625,2.6735687255859375
1715093658975853000,10.59985302734375,-0.302642822265625,-17.89166259765625,-0.6424102783203125
1715093658985832400,10.60983251953125,3.087554931640625,-20.147003173828125,-3.192230224609375
1715093658995811600,10.6198115234375,4.3828125,-18.234024047851562,-2.727752685546875
1715093659005760300,10.62976025390625,4.514495849609375,-11.649978637695312,-2.35186767578125
1715093659015739600,10.63973974609375,1.99578857421875,-6.6197509765625,-1.91851806640625
1715093659025718800,10.64971875,2.421966552734375,-7.34759521484375,0.073455810546875
1715093659035667500,10.65966748046875,0.6287078857421875,-9.921356201171875,2.386260986328125
1715093659045646800,10.669646728515625,-2.7782440185546875,-11.987564086914062,1.6320953369140625
1715093659055626000,10.6796259765625,-3.83648681640625,-17.305084228515625,-0.9823760986328125
1715093659065574700,10.68957470703125,-6.73345947265625,-23.254669189453125,0.5618743896484375
1715093659075554000,10.699553955078125,-7.9832305908203125,-22.426284790039062,-1.870635986328125
1715093659085533200,10.709533203125,-3.790985107421875,-16.9722900390625,-2.986328125
1715093659095482000,10.719482177734376,-2.840484619140625,-11.451263427734375,-1.4444580078125
1715093659105461200,10.729461181640625,-2.2132110595703125,-8.343582153320312,0.959320068359375
1715093659115440400,10.7394404296875,0.1283111572265625,-6.5000457763671875,2.89862060546875
1715093659125419800,10.749419677734375,1.7108917236328125,-5.1473236083984375,2.989593505859375
1715093659135399000,10.75939892578125,1.165008544921875,-4.0268402099609375,1.3591461181640625
1715093659145347800,10.769347900390626,0.3581695556640625,-3.3133697509765625,-0.9775848388671875
1715093659155327000,10.779326904296875,0.3126678466796875,-3.3301239013671875,-2.4284820556640625
1715093659165306000,10.78930615234375,0.5496978759765625,-4.405120849609375,-3.4962921142578125
1715093659175285500,10.799285400390625,0.710113525390625,-6.0619049072265625,-4.4204559326171875
1715093659185234200,10.809234130859375,0.753204345703125,-8.2047119140625,-5.19378662109375
1715093659195213300,10.81921337890625,-0.3122100830078125,-10.330764770507812,-5.3877105712890625
1715093659205192700,10.829192626953125,-1.86126708984375,-12.289230346679688,-5.5936126708984375
1715093659215141400,10.839141357421875,-2.2754669189453125,-12.6507568359375,-6.5010223388671875
1715093659225120800,10.849120849609376,-0.4965667724609375,-10.194305419921875,-5.8952789306640625
1715093659235100000,10.859099853515625,2.0173492431640625,-7.5080108642578125,-4.2241363525390625
1715093659245048600,10.869048583984375,3.7148284912109375,-5.52081298828125,-3.149139404296875
1715093659255028000,10.879028076171876,3.88482666015625,-4.35723876953125,-2.04541015625
1715093659265007000,10.889007080078125,2.5680084228515625,-4.05078125,-1.42291259765625
1715093659274955800,10.898955810546875,0.8082733154296875,-4.532012939453125,-0.3359527587890625
1715093659284935200,10.90893505859375,-0.45587158203125,-5.6429290771484375,1.2993011474609375
1715093659294914300,10.918914306640625,-1.4997406005859375,-7.1919708251953125,3.0997314453125
1715093659304863000,10.928863037109375,-2.0743408203125,-8.966079711914062,4.07177734375
1715093659314842400,10.93884228515625,-2.33770751953125,-10.711441040039062,4.0478363037109375
1715093659324821500,10.948821533203125,-2.3927764892578125,-11.74334716796875,3.4588623046875
1715093659334770400,10.9587705078125,-2.045623779296875,-11.894180297851562,2.503570556640625
1715093659344749600,10.96874951171875,-1.97857666015625,-11.456039428710938,1.6392669677734375
1715093659354728700,10.978728759765625,-2.3401031494140625,-10.797637939453125,1.2059173583984375
1715093659364677600,10.988677734375,-2.1437835693359375,-10.194305419921875,0.959320068359375
1715093659374656800,10.99865673828125,-1.9881591796875,-9.646026611328125,0.8036956787109375
1715093659384636200,11.00863623046875,-2.0982818603515625,-9.47125244140625,0.95452880859375
1715093659394615300,11.018615234375,-1.53326416015625,-9.370697021484375,1.5435028076171875
1715093659404564000,11.02856396484375,-0.894012451171875,-9.109725952148438,1.8715057373046875
1715093659414543400,11.03854345703125,0.6598358154296875,-8.867919921875,1.82122802734375
1715093659424522500,11.0485224609375,1.926361083984375,-8.685958862304688,1.720672607421875
1715093659434502000,11.058501953125,3.86566162109375,-8.494415283203125,0.9665069580078125
1715093659444481000,11.06848095703125,5.5416107177734375,-7.9102325439453125,0.11895751953125
1715093659454429700,11.0784296875,5.8504638671875,-7.098602294921875,-0.551422119140625
1715093659464409000,11.0884091796875,4.54083251953125,-6.4042816162109375,-0.2689056396484375
1715093659474388200,11.09838818359375,3.8034210205078125,-6.7490386962890625,1.043121337890625
1715093659484367600,11.10836767578125,2.4315338134765625,-8.575820922851562,2.7837066650390625
1715093659494316300,11.11831640625,-0.101531982421875,-11.089736938476562,4.2417755126953125
1715093659504295400,11.12829541015625,-1.16455078125,-13.558151245117188,4.15557861328125
1715093659514274800,11.13827490234375,0.00860595703125,-15.210159301757812,2.9177703857421875
1715093659524223500,11.148223388671875,1.481048583984375,-15.01861572265625,2.132476806640625
1715093659534202600,11.15820263671875,1.1195220947265625,-13.752090454101562,3.3104248046875
1715093659544182000,11.16818212890625,0.6454620361328125,-11.463226318359375,4.1483917236328125
1715093659554130700,11.178130615234375,0.3653411865234375,-9.86151123046875,4.1795196533203125
1715093659564109800,11.18810986328125,-0.4319305419921875,-8.7625732421875,3.2769012451171875
1715093659574089200,11.198089111328125,-1.1932830810546875,-8.264572143554688,1.8403778076171875
1715093659584038000,11.208037841796875,-1.43988037109375,-8.190353393554688,-0.4436798095703125
1715093659594017000,11.21801708984375,-1.593109130859375,-8.85833740234375,-3.70458984375
1715093659603996400,11.227996337890625,-1.61944580078125,-9.811233520507812,-6.812255859375
1715093659613945000,11.237945068359375,-2.2084197998046875,-10.302047729492188,-9.225616455078125
1715093659623924500,11.247924560546876,-4.1788482666015625,-10.551040649414062,-11.801773071289062
1715093659633903600,11.257903564453125,-5.5674896240234375,-11.930099487304688,-14.365966796875
1715093659643852300,11.267852294921875,-5.797332763671875,-14.410491943359375,-15.7593994140625
1715093659653831700,11.277831787109376,-6.0918121337890625,-16.59161376953125,-15.07464599609375
1715093659663810800,11.287810791015625,-5.60101318359375,-16.701736450195312,-11.801773071289062
1715093659673759500,11.297759521484375,-4.7055816650390625,-15.353805541992188,-7.092376708984375
1715093659683739000,11.30773876953125,-2.56036376953125,-12.554977416992188,-0.5107269287109375
1715093659693718000,11.317718017578125,-2.766265869140625,-11.389007568359375,3.3176116943359375
1715093659703697400,11.327697509765626,-4.655303955078125,-12.0067138671875,6.65032958984375
1715093659713676500,11.337676513671875,-3.20440673828125,-12.011505126953125,11.199325561523438
1715093659723625200,11.347625244140625,-3.56353759765625,-11.525482177734375,12.441909790039062
1715093659733604600,11.3576044921875,-3.958587646484375,-10.067413330078125,11.00299072265625
1715093659743583700,11.367583740234375,-4.391937255859375,-8.111343383789062,8.809906005859375
1715093659753563100,11.377563232421876,-3.292999267578125,-6.9860687255859375,6.568939208984375
1715093659763511800,11.38751171875,-1.435089111328125,-7.151275634765625,3.832366943359375
1715093659773491000,11.397490966796875,0.9998016357421875,-7.6684112548828125,0.9784698486328125
1715093659783470300,11.40747021484375,3.19769287109375,-8.43695068359375,-1.8849945068359375
1715093659793419000,11.4174189453125,3.9734039306640625,-8.767349243164062,-3.932037353515625
1715093659803398100,11.427398193359375,3.77947998046875,-8.302886962890625,-5.5457305908203125
1715093659813377500,11.43737744140625,3.66455078125,-7.129730224609375,-6.5225677490234375
1715093659823326200,11.447326171875,3.3341522216796875,-5.853607177734375,-6.52496337890625
1715093659833305600,11.4573056640625,2.8720703125,-5.3005523681640625,-5.653472900390625
1715093659843284700,11.46728466796875,3.0157318115234375,-4.7714385986328125,-4.4420013427734375
1715093659853233400,11.4772333984375,2.38604736328125,-5.10662841796875,-3.149139404296875
1715093659863212800,11.487212890625,1.6175079345703125,-5.5854644775390625,-2.0166778564453125
1715093659873192000,11.49719189453125,0.9974212646484375,-6.1361236572265625,-1.1451873779296875
1715093659883140600,11.507140625,0.841796875,-6.3875274658203125,-0.4963531494140625
1715093659893120000,11.5171201171875,1.0716400146484375,-6.8927001953125,-0.371856689453125
1715093659903099100,11.52709912109375,1.5648345947265625,-7.129730224609375,0.293731689453125
1715093659913047800,11.5370478515625,1.7707366943359375,-7.5367431640625,1.3376007080078125
1715093659923027200,11.547027099609375,2.1226959228515625,-7.6301116943359375,3.068603515625
1715093659933006300,11.55700634765625,2.3716888427734375,-7.3140716552734375,6.0757293701171875
1715093659942955000,11.566955078125,2.031707763671875,-7.89825439453125,8.374160766601562
1715093659952934400,11.576934326171875,1.6055450439453125,-9.6292724609375,9.918426513671875
1715093659962913500,11.58691357421875,2.031707763671875,-11.8582763671875,10.818634033203125
1715093659972893000,11.596892822265625,1.076416015625,-14.874969482421875,8.817092895507812
1715093659982841600,11.606841552734375,-0.2954559326171875,-16.948348999023438,4.83074951171875
1715093659992820700,11.61682080078125,-1.3560791015625,-17.7647705078125,-1.554595947265625
1715093660002800000,11.626800048828125,1.449920654296875,-19.431137084960938,-8.193710327148438
1715093660012779300,11.636779296875,4.6653289794921875,-18.059249877929688,-8.516937255859375
1715093660022758700,11.646758544921875,4.2894439697265625,-10.261337280273438,-4.8681640625
1715093660032707300,11.656707275390625,4.8616485595703125,-7.2446441650390625,-3.0533599853515625
1715093660042686500,11.6666865234375,3.50653076171875,-6.8232574462890625,-0.6543731689453125
1715093660052665900,11.676665771484375,-0.9562530517578125,-7.7402496337890625,0.4924468994140625
1715093660062614500,11.686614501953125,-2.2108154296875,-10.488784790039062,1.8667144775390625
1715093660072594000,11.696593994140626,-5.0216064453125,-19.881240844726562,4.4548492431640625
1715093660082573000,11.706572998046875,-7.837188720703125,-26.120529174804688,5.42449951171875
1715093660092521700,11.716521728515625,-8.955276489257812,-24.363189697265625,1.4214019775390625
1715093660102501000,11.726501220703126,-5.9649200439453125,-18.126296997070312,-2.6415557861328125
1715093660112480300,11.736480224609375,-2.39996337890625,-12.631591796875,-3.33587646484375
1715093660122429000,11.746428955078125,0.8513641357421875,-8.025161743164062,-1.4875640869140625
1715093660132408300,11.756408203125,3.753143310546875,-5.2311248779296875,0.8252410888671875
1715093660142387500,11.766387451171875,3.7148284912109375,-3.344482421875,1.170013427734375
1715093660152336100,11.776336181640625,2.2136688232421875,-2.4011688232421875,-0.592132568359375
1715093660162315500,11.7863154296875,1.2320404052734375,-2.2239990234375,-2.1172332763671875
1715093660172294700,11.796294677734375,0.7460174560546875,-2.8752288818359375,-2.97674560546875
1715093660182243600,11.80624365234375,0.372528076171875,-4.8887481689453125,-4.4228515625
1715093660192222700,11.81622265625,0.35577392578125,-7.6684112548828125,-5.4619293212890625
1715093660202201900,11.826201904296875,0.283935546875,-10.754547119140625,-6.4818572998046875
1715093660212150800,11.83615087890625,-1.751129150390625,-12.720184326171875,-5.220123291015625
1715093660222130000,11.8461298828125,-2.8213348388671875,-13.436050415039062,-4.8370513916015625
1715093660232109300,11.856109375,-1.698455810546875,-11.915725708007812,-6.510589599609375
1715093660242058000,11.86605810546875,0.1426849365234375,-8.824813842773438,-5.5720672607421875
1715093660252037000,11.876037109375,1.651031494140625,-6.231903076171875,-4.386932373046875
1715093660262016500,11.8860166015625,2.105926513671875,-4.5703277587890625,-4.0182342529296875
1715093660271995600,11.89599560546875,2.0963592529296875,-3.41632080078125,-3.5609283447265625
1715093660281974800,11.905974853515625,0.7340545654296875,-3.4474334716796875,-2.6200103759765625
1715093660291923700,11.915923828125,-0.4486846923828125,-4.4458160400390625,-0.7980194091796875
1715093660301902800,11.92590283203125,-0.937103271484375,-5.8775482177734375,1.371124267578125
1715093660311882200,11.93588232421875,-0.8604888916015625,-7.6301116943359375,2.7789154052734375
1715093660321861400,11.945861328125,-0.8604888916015625,-9.634063720703125,3.379852294921875
1715093660331810000,11.95581005859375,-0.9107666015625,-11.45843505859375,3.36309814453125
1715093660341789400,11.96578955078125,-1.255523681640625,-12.4520263671875,2.8746795654296875
1715093660351768600,11.9757685546875,-1.75592041015625,-12.260498046875,2.5179443359375
1715093660361748000,11.985748046875,-2.3664398193359375,-11.561386108398438,1.7661590576171875
1715093660371696600,11.995696533203125,-2.364044189453125,-10.81439208984375,0.964111328125
1715093660381675800,12.00567578125,-2.6298065185546875,-10.057830810546875,0.906646728515625
1715093660391655200,12.0156552734375,-2.6369781494140625,-9.47125244140625,1.3639373779296875
1715093660401603800,12.025603759765625,-2.9099273681640625,-9.203094482421875,1.763763427734375
1715093660411583000,12.0355830078125,-2.0240631103515625,-8.997207641601562,1.9145965576171875
1715093660421562400,12.045562255859375,-0.228424072265625,-8.872695922851562,1.8547515869140625
1715093660431511000,12.055510986328125,2.886444091796875,-8.501602172851562,1.8020782470703125
1715093660441490200,12.065490234375,7.241485595703125,-7.7953033447265625,1.6273040771484375
1715093660451469600,12.075469482421875,9.259811401367188,-6.866363525390625,1.371124267578125
1715093660461418200,12.085418212890625,7.4234466552734375,-5.6357421875,1.170013427734375
1715093660471397600,12.095397705078126,3.4825897216796875,-5.1305694580078125,0.691162109375
1715093660481376800,12.105376708984375,0.4443511962890625,-6.739471435546875,0.9832611083984375
1715093660491325400,12.115325439453125,-0.958648681640625,-10.455276489257812,2.2186737060546875
1715093660501304800,12.125304931640626,-1.6098785400390625,-14.338668823242188,2.8028564453125
1715093660511284000,12.135283935546875,-0.1063079833984375,-16.742446899414062,2.132476806640625
1715093660521232600,12.145232666015625,1.809051513671875,-16.21331787109375,1.85235595703125
1715093660531212000,12.1552119140625,1.8114471435546875,-14.041778564453125,3.6456146240234375
1715093660541191200,12.165191162109375,0.71728515625,-11.9013671875,5.4364776611328125
1715093660551170600,12.175170654296876,0.0995941162109375,-10.060226440429688,5.5681610107421875
1715093660561149700,12.185149658203125,-0.4582672119140625,-8.120925903320312,4.4069671630859375
1715093660571098400,12.195098388671875,-1.7319793701171875,-6.9477691650390625,2.745391845703125
1715093660581077800,12.205077880859376,-2.2395477294921875,-6.8495941162109375,0.6337127685546875
1715093660591057000,12.215056884765625,-2.1916656494140625,-7.9269866943359375,-2.2704620361328125
1715093660601036300,12.225036376953126,-1.820556640625,-9.954879760742188,-6.5967864990234375
1715093660610985000,12.23498486328125,-1.9019622802734375,-11.702651977539062,-9.529678344726562
1715093660620964000,12.244964111328125,-3.6233978271484375,-12.6627197265625,-11.701217651367188
1715093660630943500,12.254943603515626,-4.9330291748046875,-14.104034423828125,-14.792129516601562
1715093660640892200,12.26489208984375,-4.9665374755859375,-17.041717529296875,-17.957275390625
1715093660650871300,12.274871337890625,-5.3352508544921875,-19.273117065429688,-17.306045532226562
1715093660660850700,12.2848505859375,-5.629730224609375,-18.387252807617188,-13.305343627929688
1715093660670799400,12.29479931640625,-4.75823974609375,-15.34661865234375,-7.06365966796875
1715093660680778500,12.304778564453125,-3.937042236328125,-10.917343139648438,1.5794219970703125
1715093660690758000,12.3147578125,-3.7598724365234375,-9.770523071289062,5.80279541015625
1715093660700706600,12.32470654296875,-4.3105316162109375,-10.436111450195312,7.574493408203125
1715093660710686000,12.33468603515625,-3.6880340576171875,-10.711441040039062,11.249603271484375
1715093660720665000,12.3446650390625,-3.1541290283203125,-11.159164428710938,13.18890380859375
1715093660730613800,12.35461376953125,-3.7359161376953125,-10.287673950195312,11.426773071289062
1715093660740593200,12.36459326171875,-3.989715576171875,-7.73785400390625,9.662246704101562
1715093660750572300,12.374572265625,-3.0631561279296875,-6.772979736328125,6.6048431396484375
1715093660760521000,12.38452099609375,-1.7056427001953125,-7.077056884765625,3.5498504638671875
1715093660770500400,12.394500244140625,0.1857757568359375,-7.575042724609375,1.1101531982421875
1715093660780479500,12.4044794921875,2.290283203125,-8.252609252929688,-1.470794677734375
1715093660790428200,12.41442822265625,3.5615997314453125,-8.628494262695312,-3.3119354248046875
1715093660800407600,12.424407470703125,3.8513031005859375,-8.302886962890625,-4.6574859619140625
1715093660810386700,12.43438671875,4.164947509765625,-7.369140625,-5.6558685302734375
1715093660820335600,12.444335693359376,4.3852081298828125,-6.4617462158203125,-5.897674560546875
1715093660830314800,12.454314697265625,4.028472900390625,-5.736297607421875,-5.1698455810546875
1715093660840294000,12.4642939453125,3.8201751708984375,-5.207183837890625,-4.0661163330078125
1715093660850273300,12.474273193359375,2.9462890625,-5.21435546875,-2.907318115234375
1715093660860252400,12.48425244140625,1.92156982421875,-5.6812286376953125,-1.882598876953125
1715093660870201300,12.494201416015626,0.8346099853515625,-6.358795166015625,-1.0973052978515625
1715093660880180500,12.504180419921875,0.130706787109375,-6.79931640625,-0.201873779296875
1715093660890159600,12.51415966796875,0.022979736328125,-7.3260498046875,0.3272552490234375
1715093660900139000,12.524138916015625,0.6406707763671875,-7.9150238037109375,0.8779144287109375
1715093660910087700,12.534087646484375,1.076416015625,-8.659622192382812,1.6129302978515625
1715093660920067000,12.544067138671876,1.2583770751953125,-9.26055908203125,2.9441070556640625
1715093660930046200,12.554046142578125,1.8066558837890625,-9.054656982421875,5.02227783203125
1715093660939995000,12.563994873046875,2.1849365234375,-8.451324462890625,7.4907073974609375
1715093660949974300,12.573974365234376,2.3525390625,-8.1927490234375,9.396484375
1715093660959953400,12.583953369140625,2.137054443359375,-9.732223510742188,9.49224853515625
1715093660969902000,12.593902099609375,1.734832763671875,-12.363449096679688,8.220932006835938
1715093660979881500,12.603881591796876,0.564056396484375,-14.64752197265625,5.525054931640625
1715093660989860600,12.613860595703125,0.8394012451171875,-16.153472900390625,0.6983489990234375
1715093660999809300,12.623809326171875,2.3046417236328125,-17.896453857421875,-5.040557861328125
1715093661009788700,12.63378857421875,4.9454498291015625,-17.767166137695312,-8.021331787109375
1715093661019767800,12.643767822265625,4.964599609375,-13.3809814453125,-6.9080352783203125
1715093661029716700,12.653716796875,3.2288055419921875,-8.180770874023438,-3.932037353515625
1715093661039696000,12.66369580078125,2.1921234130859375,-7.10577392578125,-0.6759185791015625
1715093661049675000,12.673675048828125,-2.153350830078125,-8.312454223632812,1.7134857177734375
1715093661059624000,12.6836240234375,-1.7774658203125,-11.95404052734375,2.8387603759765625
1715093661069603000,12.69360302734375,-1.95703125,-20.407958984375,5.4316864013671875
1715093661079582200,12.703582275390625,-6.855560302734375,-26.082229614257812,5.651947021484375
1715093661089531100,12.71353125,-9.039077758789062,-23.802947998046875,1.2681732177734375
1715093661099510300,12.72351025390625,-6.6783905029296875,-17.118331909179688,-3.6112060546875
1715093661109489700,12.73348974609375,-4.6217803955078125,-10.953262329101562,-4.0732879638671875
1715093661119468800,12.74346875,-0.9777984619140625,-7.3930816650390625,-0.546630859375
1715093661129448000,12.753447998046875,2.919952392578125,-6.13372802734375,1.8116607666015625
1715093661139396900,12.76339697265625,3.0851593017578125,-5.14013671875,2.163604736328125
1715093661149376000,12.7733759765625,2.0915679931640625,-3.9167022705078125,0.5858154296875
1715093661159355400,12.78335546875,1.16021728515625,-3.0859222412109375,-1.52825927734375
1715093661169334500,12.79333447265625,0.8034820556640625,-3.2415313720703125,-2.136383056640625
1715093661179283200,12.803283203125,0.911224365234375,-5.3580169677734375,-2.8259124755859375
1715093661189262600,12.8132626953125,0.2647857666015625,-8.429779052734375,-3.90570068359375
1715093661199241700,12.82324169921875,-1.17413330078125,-11.305206298828125,-4.7915496826171875
1715093661209221000,12.83322119140625,-2.84527587890625,-13.175079345703125,-5.1171722412109375
1715093661219169800,12.843169677734375,-3.0224456787109375,-13.6036376953125,-5.004638671875
1715093661229149000,12.85314892578125,-1.1358184814453125,-11.894180297851562,-5.500244140625
1715093661239128300,12.86312841796875,0.8226318359375,-8.664413452148438,-4.2672271728515625
1715093661249077000,12.873076904296875,1.9072113037109375,-5.846435546875,-4.1690673828125
1715093661259056000,12.88305615234375,2.0388946533203125,-3.854461669921875,-4.449188232421875
1715093661269035500,12.893035400390625,1.83538818359375,-2.7746734619140625,-4.2193450927734375
1715093661278984200,12.902984130859375,1.4954071044921875,-2.7866363525390625,-3.0892791748046875
1715093661288963300,12.91296337890625,0.8968505859375,-4.0076904296875,-1.49713134765625
1715093661298942700,12.922942626953125,0.96868896484375,-5.71954345703125,0.3535919189453125
1715093661308891400,12.932891357421875,0.6909637451171875,-7.8479766845703125,1.8858795166015625
