time,seconds_elapsed,z,y,x
1713358417494846000,0.157845947265625,-2.9417266845703125,-0.7564921379089355,-0.5784332752227783
1713358417504825000,0.1678251953125,-2.0476226806640625,0.005196571350097656,-0.17194461822509766
1713358417514804500,0.177804443359375,-1.8795661926269531,0.004506587982177734,-0.18189191818237305
1713358417524783600,0.18778369140625,-1.8935022354125977,-0.05961799621582031,-0.1007535457611084
1713358417534763000,0.197762939453125,-1.830850601196289,-0.0718379020690918,-0.29057765007019043
1713358417544742100,0.2077421875,-1.727574348449707,0.0026040077209472656,-0.241868257522583
1713358417554721500,0.217721435546875,-1.5848798751831055,-0.13007736206054688,-0.5053081512451172
1713358417564700700,0.22770068359375,-1.8203239440917969,-0.4300556182861328,-0.7194349765777588
1713358417574679800,0.2376796875,-0.923792839050293,0.33620262145996094,-0.4735078811645508
1713358417584659200,0.2476591796875,-0.3897714614868164,0.4372386932373047,-0.6036617755889893
1713358417594638300,0.257638427734375,-1.0785017013549805,-0.16679811477661133,-0.3320040702819824
1713358417604617700,0.26761767578125,-1.6348600387573242,-0.0041751861572265625,0.06675314903259277
1713358417614566400,0.27756640625,-1.5059833526611328,0.37531375885009766,-0.368180513381958
1713358417624545500,0.287545654296875,-1.6599884033203125,-0.0632472038269043,1.1740846633911133
1713358417634525000,0.29752490234375,-2.4440689086914062,-0.6796503067016602,0.450930118560791
1713358417644473600,0.3074736328125,-1.4876623153686523,0.5172638893127441,-0.8609251976013184
1713358417654452700,0.31745263671875,-0.611968994140625,1.6674976348876953,-1.0525588989257812
1713358417664432000,0.32743212890625,-0.2960700988769531,1.294238567352295,0.21173405647277832
1713358417674380800,0.337380859375,-1.0293159484863281,-0.17783451080322266,0.6581816673278809
1713358417684360200,0.347360107421875,-1.3996829986572266,-0.12932300567626953,-0.257138729095459
1713358417694339300,0.35733935546875,-1.642289161682129,-0.8616266250610352,-0.6510469913482666
1713358417704288000,0.3672880859375,-0.7792301177978516,-0.6450071334838867,0.0406491756439209
1713358417714267400,0.377267333984375,0.4682321548461914,-0.35500001907348633,0.39412617683410645
1713358417724246500,0.38724658203125,1.0531005859375,-0.6548957824707031,0.533724308013916
1713358417734195200,0.3971953125,1.0672760009765625,-0.6722583770751953,0.7773258686065674
1713358417744174600,0.407174560546875,1.1310091018676758,-0.21303558349609375,1.4272499084472656
1713358417754153700,0.41715380859375,0.9747781753540039,-0.33966636657714844,1.2636938095092773
1713358417764102400,0.427102294921875,0.24009418487548828,-0.4507598876953125,1.1954896450042725
1713358417774081800,0.437081787109375,-0.5882549285888672,-0.4922761917114258,1.1839728355407715
1713358417784061000,0.44706103515625,-1.4276866912841797,-0.5532498359680176,1.0063767433166504
1713358417794009900,0.457009765625,-1.9739723205566406,-0.6754584312438965,0.9533419609069824
1713358417803989000,0.466989013671875,-2.1603355407714844,-0.5143828392028809,1.4245822429656982
1713358417813968100,0.476968017578125,-2.2395362854003906,-0.5412716865539551,1.2155284881591797
1713358417823958300,0.486958251953125,-1.4064340591430664,-0.32054901123046875,1.3838844299316406
1713358417833907200,0.4969072265625,-0.4097270965576172,-0.9431595802307129,1.0988035202026367
1713358417843886300,0.50688623046875,1.4737615585327148,-0.5981149673461914,0.7568328380584717
1713358417853865700,0.51686572265625,2.9468679428100586,-0.46483802795410156,1.028921365737915
1713358417863844900,0.526844970703125,2.4778175354003906,-0.45374155044555664,1.8424272537231445
1713358417873793500,0.53679345703125,1.2096748352050781,-0.4679841995239258,2.2881202697753906
1713358417883773000,0.54677294921875,-1.4831428527832031,-2.5264945030212402,4.844507217407227
1713358417893752000,0.556751953125,-3.0674123764038086,-4.307016849517822,4.785453796386719
1713358417903700700,0.56670068359375,-4.49125862121582,-4.174333095550537,3.254369020462036
1713358417913680100,0.57668017578125,-5.1887922286987305,-3.8318257331848145,2.092353343963623
1713358417923659300,0.5866591796875,-4.767867088317871,-3.1394262313842773,1.8041062355041504
1713358417933612800,0.59661279296875,-4.391770362854004,-1.9929938316345215,2.3814098834991455
1713358417943592000,0.606592041015625,-2.7527999877929688,-0.7364630699157715,0.9359729290008545
1713358417953540900,0.616540771484375,-1.5214147567749023,-0.5419149398803711,0.06049609184265137
1713358417963520000,0.62652001953125,-1.9226350784301758,-0.8295783996582031,0.12557590007781982
1713358417973499400,0.63649951171875,-0.737335205078125,-0.5259237289428711,0.7864688038825989
1713358417983448000,0.646447998046875,0.5746498107910156,0.23525476455688477,2.595029592514038
1713358417993427200,0.65642724609375,3.4196043014526367,1.6350696086883545,4.580000400543213
1713358418003406600,0.666406494140625,7.436847686767578,2.313957929611206,4.55390739440918
1713358418013355300,0.676355224609375,4.411067008972168,0.28241729736328125,0.9212968945503235
1713358418023334400,0.68633447265625,3.3700246810913086,-1.5779328346252441,-1.872902750968933
1713358418033313800,0.696313720703125,2.708359718322754,-3.078439950942993,-4.108705043792725
1713358418043262500,0.706262451171875,2.576493263244629,-4.566068649291992,-5.971770286560059
1713358418053241600,0.71624169921875,3.6054859161376953,-5.7290520668029785,-6.7513556480407715
1713358418063221000,0.726220947265625,4.8297119140625,-7.0588226318359375,-6.310614109039307
1713358418073169700,0.736169677734375,5.429492950439453,-8.773819923400879,-5.5846266746521
1713358418083148800,0.746148681640625,5.209670066833496,-10.349246978759766,-5.957220554351807
1713358418093128200,0.756128173828125,6.499004364013672,-11.794488906860352,-6.918240070343018
1713358418103076900,0.766076904296875,8.509142875671387,-12.829254150390625,-6.182319641113281
1713358418113056300,0.77605615234375,10.371990203857422,-12.858121871948242,-3.5277652740478516
1713358418123035400,0.786035400390625,6.236023902893066,-14.449981689453125,0.8169886469841003
1713358418133014500,0.7960146484375,2.0393428802490234,-15.944254875183105,3.0275683403015137
1713358418142963500,0.80596337890625,-0.3355827331542969,-14.693073272705078,2.903723955154419
1713358418152942600,0.815942626953125,-1.9957571029663086,-13.73431396484375,-0.040659721940755844
1713358418162922000,0.825921875,-3.4983882904052734,-13.500160217285156,-1.1020909547805786
1713358418172870700,0.83587060546875,-7.538323402404785,-12.462020874023438,-0.31069809198379517
1713358418182849800,0.845849853515625,-9.75930118560791,-13.869077682495117,-0.07111036777496338
1713358418192829200,0.8558291015625,-10.308969497680664,-10.641942977905273,2.3715147972106934
1713358418202777900,0.86577783203125,-12.377241134643555,-7.190937519073486,8.085322380065918
1713358418212757000,0.875757080078125,-13.022348403930664,-5.281394958496094,11.24901008605957
1713358418222736400,0.885736328125,-14.69999885559082,-0.24656438827514648,21.44098663330078
1713358418232685000,0.89568505859375,-16.477785110473633,5.528005599975586,34.15656661987305
1713358418242664200,0.905664306640625,-19.8485107421875,8.542414665222168,33.47218322753906
1713358418252643600,0.9156435546875,-12.938726425170898,2.2152369022369385,19.738740921020508
1713358418262592300,0.92559228515625,-6.536535263061523,-7.668715476989746,-1.9656462669372559
1713358418272551400,0.935551513671875,-0.6216626167297363,-9.177151679992676,-6.564997673034668
1713358418282530600,0.945530517578125,3.8691396713256836,-6.864583969116211,-6.446734428405762
1713358418292479500,0.9554794921875,10.021358489990234,-3.5586860179901123,-5.454352378845215
1713358418302458600,0.965458740234375,10.822317123413086,-1.6621559858322144,0.04054689407348633
1713358418312438000,0.97543798828125,8.075968742370605,1.315662145614624,7.154123783111572
1713358418322386700,0.98538671875,14.010457992553711,4.100296497344971,3.0277862548828125
1713358418332365800,0.99536572265625,9.937337875366211,1.0107150077819824,1.081505298614502
1713358418342345200,1.00534521484375,7.647204875946045,1.747551679611206,3.929722785949707
1713358418352294000,1.0152939453125,3.0919747352600098,-0.4937512278556824,2.068912982940674
1713358418362273000,1.02527294921875,2.1415281295776367,-0.8071521520614624,-3.1897950172424316
1713358418372252400,1.03525244140625,6.815954685211182,1.4043105840682983,-2.9060230255126953
1713358418382201000,1.045201171875,0.2585105895996094,0.8135948181152344,1.5989079475402832
1713358418392180200,1.05518017578125,-3.432913303375244,1.740281581878662,5.220143795013428
1713358418402159600,1.06515966796875,-3.2057723999023438,2.3242249488830566,5.303634166717529
1713358418412138800,1.075138671875,-6.61021089553833,4.1960601806640625,10.851051330566406
1713358418422087700,1.085087646484375,-7.290666580200195,2.7417402267456055,9.462702751159668
1713358418432066800,1.09506689453125,-7.294859886169434,-3.9008982181549072,-15.156867980957031
1713358418442046000,1.1050458984375,-6.51546573638916,0.8437271118164062,-10.55211067199707
1713358418451995000,1.114994873046875,-3.0927681922912598,2.6759862899780273,0.20259475708007812
1713358418461974000,1.12497412109375,0.9228878021240234,8.535554885864258,12.434171676635742
1713358418471953400,1.134953369140625,-5.8997650146484375,5.80644416809082,1.3036410808563232
1713358418481902000,1.144902099609375,-8.224194526672363,2.907209873199463,-6.900463104248047
1713358418491881200,1.154881103515625,-1.038797378540039,7.463992595672607,3.6822471618652344
1713358418501860600,1.164860595703125,3.78348445892334,6.391322135925293,8.37775707244873
1713358418511809300,1.174809326171875,5.396891117095947,6.512638568878174,7.997155666351318
1713358418521788400,1.184788330078125,2.9878830909729004,6.618999004364014,7.857752323150635
1713358418531767800,1.194767822265625,-0.8772711753845215,8.247173309326172,6.416567802429199
1713358418541716500,1.204716552734375,-1.6456031799316406,8.165587425231934,5.537233352661133
1713358418551695600,1.214695556640625,-2.4069955348968506,10.963294982910156,9.269021034240723
1713358418561675000,1.224675048828125,-4.464594841003418,12.089265823364258,9.807740211486816
1713358418571623700,1.234623779296875,-8.093226432800293,10.881389617919922,8.324508666992188
1713358418581603000,1.24460302734375,-7.377760887145996,7.279444694519043,8.984570503234863
1713358418591582200,1.254582275390625,-1.5660086870193481,0.4016399383544922,4.815389633178711
1713358418601531000,1.26453076171875,3.533442258834839,2.0647010803222656,10.189075469970703
1713358418611510300,1.27451025390625,2.488314151763916,3.628049850463867,13.945027351379395
1713358418621489400,1.284489501953125,6.773513317108154,-0.6264810562133789,7.354491710662842
1713358418631438000,1.29443798828125,1.9183852672576904,6.149593830108643,9.353551864624023
1713358418641417500,1.30441748046875,-2.4867331981658936,7.540364742279053,12.977141380310059
1713358418651396600,1.314396728515625,-4.011993885040283,-0.48853111267089844,11.463774681091309
1713358418661345300,1.32434521484375,-1.4944689273834229,-10.17312240600586,10.365724563598633
1713358418671324700,1.33432470703125,6.575815200805664,-11.78809928894043,3.0155749320983887
1713358418681303800,1.3443037109375,12.178600311279297,-9.727331161499023,-2.3152194023132324
1713358418691252700,1.354252685546875,15.78516960144043,-9.369336128234863,-2.0714964866638184
1713358418701237500,1.364237548828125,10.200925827026367,-5.335671901702881,-3.3369393348693848
1713358418711216600,1.374216552734375,-4.899722099304199,-2.7925071716308594,-4.116495132446289
1713358418721196000,1.384196044921875,-12.746042251586914,-7.951115131378174,-5.018899440765381
1713358418731144700,1.394144775390625,-13.345270156860352,-15.523859024047852,-10.170492172241211
1713358418741123800,1.404123779296875,-7.776274681091309,-21.77327537536621,-14.582040786743164
1713358418751103200,1.414103271484375,-4.6102471351623535,-25.80581283569336,-16.23391342163086
1713358418761052000,1.424052001953125,4.303411483764648,-20.637325286865234,-6.096365928649902
1713358418771031300,1.43403125,6.0104146003723145,-18.57782745361328,8.07992172241211
1713358418781010400,1.444010498046875,1.0052871704101562,-16.00432014465332,16.2076416015625
1713358418790974500,1.453974365234375,-3.764995813369751,-12.110687255859375,17.51578140258789
1713358418800953900,1.463953857421875,-5.759955406188965,-11.182989120483398,12.491798400878906
1713358418810933000,1.47393310546875,-4.942756652832031,-13.751753807067871,3.5548958778381348
1713358418820881700,1.483881591796875,2.3223586082458496,-15.354351043701172,-4.561396598815918
1713358418830861000,1.493861083984375,7.198355674743652,-13.80907917022705,-6.732547283172607
1713358418840840200,1.503840087890625,8.9569730758667,-13.098613739013672,-8.01146125793457
1713358418850788900,1.513788818359375,8.245525360107422,-14.100865364074707,-4.230791091918945
1713358418860768300,1.523768310546875,6.292823791503906,-9.521809577941895,3.507863998413086
1713358418870747400,1.533747314453125,-2.645723819732666,-0.23134136199951172,13.002256393432617
1713358418880696000,1.543696044921875,2.558603525161743,-5.118269920349121,4.966162204742432
1713358418890675500,1.553675537109375,12.98886775970459,-7.359930992126465,5.35748815536499
1713358418900654600,1.563654541015625,13.115755081176758,-9.054752349853516,3.5647788047790527
1713358418910603500,1.573603515625,5.996121883392334,-11.783573150634766,6.265355110168457
1713358418920582700,1.583582763671875,-3.628445863723755,-4.141744613647461,10.18386459350586
1713358418930531300,1.59353125,11.930418014526367,-3.3208513259887695,3.561619281768799
1713358418940510700,1.6035107421875,0.028458833694458008,-2.071688652038574,12.703573226928711
1713358418950489900,1.61348974609375,-1.698745846748352,2.728257179260254,16.350204467773438
1713358418960438500,1.6234384765625,-5.56829309463501,2.865450859069824,13.903155326843262
1713358418970418000,1.63341796875,-10.310586929321289,1.2130584716796875,8.838651657104492
1713358418980397000,1.64339697265625,7.558362007141113,-2.9598779678344727,-1.055052399635315
1713358418990376400,1.65337646484375,12.84128189086914,-4.850003242492676,3.8554697036743164
1713358419000325000,1.6633251953125,2.018437147140503,-2.8953304290771484,7.169395446777344
1713358419010288000,1.6732880859375,3.5198400020599365,-1.7136363983154297,8.88647747039795
1713358419020267300,1.683267333984375,6.233945369720459,-0.31798744201660156,14.343694686889648
1713358419030246700,1.69324658203125,-8.56552505493164,2.1662940979003906,13.766674995422363
1713358419040195300,1.7031953125,-6.053553581237793,5.451834678649902,10.198619842529297
1713358419050174500,1.713174560546875,-5.750304222106934,3.2414493560791016,3.2511768341064453
1713358419060153900,1.72315380859375,-12.505904197692871,5.387826919555664,4.325616836547852
1713358419070102500,1.7331025390625,-12.46809196472168,8.749500274658203,7.009272575378418
1713358419080081700,1.74308154296875,-5.315608978271484,6.672167778015137,4.091274261474609
1713358419090067000,1.75306689453125,-0.2317643165588379,2.81557559967041,1.8920764923095703
1713358419100015600,1.763015625,2.293496608734131,0.49797821044921875,0.9215207099914551
1713358419109994800,1.772994873046875,6.509012699127197,1.2040605545043945,1.7135417461395264
1713358419119943700,1.782943603515625,0.38626623153686523,3.347299098968506,2.338623046875
1713358419129922800,1.7929228515625,0.2278590202331543,7.04647970199585,3.9727237224578857
1713358419139902200,1.802902099609375,-5.698115825653076,6.507613658905029,3.02455472946167
1713358419149851000,1.812850830078125,-13.82852554321289,7.7636871337890625,4.4661545753479
1713358419159830000,1.822830078125,-9.340646743774414,7.970305442810059,5.0939483642578125
1713358419169809400,1.832809326171875,-7.792368412017822,5.778064727783203,5.810905456542969
1713358419179758000,1.842758056640625,-6.17010498046875,5.214052677154541,4.126368999481201
1713358419189737200,1.8527373046875,-7.013617038726807,6.01254940032959,3.5473527908325195
1713358419199716600,1.862716552734375,-8.875967979431152,5.888825416564941,3.1680917739868164
1713358419209665300,1.872665283203125,-7.202656269073486,4.242781639099121,2.037917375564575
1713358419219644400,1.88264453125,-3.504558563232422,5.027637481689453,1.7168893814086914
1713358419229623800,1.892623779296875,-2.5681052207946777,3.2728395462036133,0.9850936532020569
1713358419239572500,1.902572509765625,-1.3657598495483398,2.237873077392578,1.545648455619812
1713358419249551600,1.912551513671875,-2.0204548835754395,1.2199621200561523,2.960076093673706
1713358419259531000,1.922531005859375,0.420940637588501,1.4856929779052734,5.335527420043945
1713358419269510100,1.93251025390625,2.442939043045044,0.9910993576049805,5.958569526672363
1713358419279459000,1.942458984375,2.8939707279205322,0.6414213180541992,4.919661521911621
1713358419289438200,1.952438232421875,3.4021897315979004,0.30396366119384766,2.361652374267578
1713358419299417300,1.962417236328125,2.297438144683838,-1.2696609497070312,-0.43932604789733887
1713358419309366300,1.9723662109375,2.4659810066223145,-0.10233116149902344,-0.5203945636749268
1713358419319345400,1.982345458984375,0.5921905040740967,0.09969139099121094,1.2934401035308838
1713358419329324800,1.99232470703125,-1.515735387802124,-0.9332084655761719,1.753201961517334
1713358419339273500,2.0022734375,-0.2812833786010742,-2.15277099609375,-0.61470627784729
1713358419349252600,2.012252685546875,0.08210086822509766,-0.9226608276367188,-0.22827911376953125
1713358419359232000,2.02223193359375,0.14425809681415558,-1.1036396026611328,-2.240180253982544
1713358419369180700,2.0321806640625,2.4846320152282715,-4.626804351806641,-3.2643837928771973
1713358419379159800,2.042159912109375,2.7851531505584717,-4.4452362060546875,-7.371943473815918
1713358419389139200,2.05213916015625,1.9502085447311401,-2.9369916915893555,-7.8218674659729
1713358419399087900,2.062087890625,-2.0015177726745605,-2.4103002548217773,-8.320902824401855
1713358419409067000,2.07206689453125,-2.565078020095825,-8.656318664550781,-3.09934401512146
1713358419419046400,2.08204638671875,-0.1890665888786316,-8.05020809173584,-1.4483120441436768
1713358419428995000,2.0919951171875,0.055886805057525635,-4.985359191894531,-1.6777985095977783
1713358419438974500,2.101974365234375,0.9002382755279541,-2.0053300857543945,-3.6745240688323975
1713358419448953600,2.11195361328125,1.704181432723999,0.09185028076171875,-3.467634916305542
1713358419458902300,2.12190234375,2.1403450965881348,0.5953140258789062,3.5849053859710693
1713358419468881700,2.131881591796875,2.02779221534729,0.7825231552124023,8.507190704345703
1713358419478860800,2.14186083984375,1.9434493780136108,0.6535577774047852,11.901276588439941
1713358419488809500,2.1518095703125,0.10876917839050293,-0.12784194946289062,12.06113052368164
1713358419498788900,2.161788818359375,-0.7925403714179993,-1.8090009689331055,7.862083911895752
1713358419508768000,2.17176806640625,-0.6011170744895935,-3.0344886779785156,3.7175488471984863
1713358419518716700,2.181716552734375,0.26847636699676514,-3.318589210510254,0.7889564037322998
1713358419528696000,2.191696044921875,-0.16569256782531738,-4.1687211990356445,-0.4833170175552368
1713358419538675200,2.20167529296875,0.09361803531646729,-3.8933401107788086,-1.5040903091430664
1713358419548624100,2.2116240234375,0.7539527416229248,-1.5771284103393555,-1.8939934968948364
1713358419558603300,2.221603271484375,-1.2987176179885864,-2.5379419326782227,-1.245308756828308
1713358419568582400,2.23158251953125,-3.375077962875366,-3.134251594543457,-0.23994934558868408
1713358419578561800,2.241561767578125,-3.696892261505127,-2.8610572814941406,0.10443508625030518
1713358419588510500,2.251510498046875,-2.3002495765686035,-0.9479026794433594,-3.589661121368408
1713358419598489900,2.26148974609375,-0.415549635887146,-0.07323551177978516,-1.9522873163223267
1713358419608469000,2.271468994140625,1.3832727670669556,-0.3413982391357422,-1.9850378036499023
1713358419618417700,2.281417724609375,1.9571077823638916,1.3289108276367188,-1.3250371217727661
1713358419628397000,2.29139697265625,0.5294140577316284,2.626173973083496,-0.2431037425994873
1713358419638376200,2.301376220703125,-0.5626623630523682,4.712702751159668,1.8794056177139282
1713358419648324900,2.311324951171875,-0.5161819458007812,4.913227081298828,0.9023290276527405
1713358419658304300,2.32130419921875,0.9265483617782593,3.7979955673217773,-0.19562532007694244
1713358419668283400,2.331283447265625,1.6041282415390015,2.9039926528930664,-0.24993988871574402
1713358419678232000,2.341232177734375,0.3190881013870239,3.041830062866211,-1.0684943199157715
1713358419688211500,2.35121142578125,-0.4234580993652344,3.2175235748291016,-1.7401145696640015
1713358419698190600,2.361190673828125,0.5222116112709045,3.508890151977539,-1.7415554523468018
1713358419708139300,2.37113916015625,1.2010095119476318,2.3161849975585938,-2.087031364440918
1713358419718118700,2.38111865234375,0.567274808883667,1.301626205444336,-2.45324969291687
1713358419728097800,2.391097900390625,-0.7273057103157043,0.7097740173339844,-1.9212744235992432
1713358419738046700,2.401046630859375,-2.08540415763855,-0.040060997009277344,-0.5474708676338196
1713358419748025900,2.41102587890625,-2.03890323638916,-0.6777143478393555,-0.4012604355812073
1713358419758005000,2.4210048828125,0.7381383180618286,-0.9302883148193359,-1.0139273405075073
1713358419767954000,2.430953857421875,0.99239581823349,-0.8795070648193359,-0.6894745826721191
1713358419777933000,2.44093310546875,0.7759935259819031,0.3253450393676758,0.8916349411010742
1713358419787912400,2.450912353515625,-0.5608476400375366,22.499794006347656,17.523778915405273
1713358419797861000,2.460861083984375,1.0089142322540283,16.118846893310547,6.380228519439697
1713358419807840300,2.47084033203125,-0.7586125135421753,9.754629135131836,2.408264636993408
1713358419817819600,2.480819580078125,2.4413046836853027,4.3037824630737305,-1.9691286087036133
1713358419827768300,2.490768310546875,1.327362298965454,-1.2552175521850586,-3.765453815460205
1713358419837747500,2.50074755859375,-1.4823335409164429,-16.206363677978516,-10.991610527038574
1713358419847726800,2.510726806640625,0.30198240280151367,-28.57192611694336,-7.247086048126221
1713358419857706000,2.5207060546875,-2.9179530143737793,-21.401704788208008,4.092538833618164
1713358419867654700,2.530654541015625,-0.9501956701278687,-4.532438278198242,2.873729944229126
1713358419877634000,2.540634033203125,0.7029460668563843,-0.2873964309692383,-2.0273711681365967
1713358419887613200,2.55061328125,-0.678779125213623,-1.008962631225586,-0.0662316083908081
1713358419897562000,2.56056201171875,-0.6524178981781006,-0.9898548126220703,-0.18866407871246338
1713358419907541200,2.570541259765625,-0.02639007568359375,-0.09594440460205078,-1.5060371160507202
1713358419917520400,2.580520263671875,1.0598607063293457,0.5338621139526367,-1.2627842426300049
1713358419927469300,2.59046923828125,0.8068135976791382,-1.447657585144043,-1.1242787837982178
1713358419937448400,2.600448486328125,1.2280888557434082,-0.5499505996704102,0.2645742893218994
1713358419947427800,2.610427734375,1.4463427066802979,-0.9656972885131836,-0.23603928089141846
1713358419957376500,2.62037646484375,0.4085242748260498,-4.105922698974609,-0.924990713596344
1713358419967355600,2.630355712890625,0.17043375968933105,-3.371392250061035,-0.2665541470050812
1713358419977335000,2.6403349609375,0.21657228469848633,-1.8196287155151367,-0.6416631937026978
1713358419987283700,2.65028369140625,-0.43327975273132324,-0.6153097152709961,-0.8549591302871704
1713358419997262800,2.660262939453125,-0.8780267238616943,-0.12688922882080078,-1.0855865478515625
1713358420007242200,2.6702421875,-2.0662055015563965,1.8471622467041016,-0.11654511094093323
1713358420017191000,2.68019091796875,-2.291038751602173,4.382254600524902,1.3323806524276733
1713358420027170000,2.690170166015625,-0.5978379249572754,3.109935760498047,1.6041691303253174
1713358420037149400,2.7001494140625,1.77553129196167,1.6760568618774414,0.318026602268219
1713358420047098000,2.71009814453125,1.9458725452423096,1.4175052642822266,-0.15282797813415527
1713358420057077500,2.720077392578125,1.3030682802200317,0.2535228729248047,-0.7064060568809509
1713358420067056600,2.730056640625,0.7961480617523193,-0.46605587005615234,-1.134041428565979
1713358420077000400,2.74000048828125,0.35950422286987305,-0.20250511169433594,-1.110559105873108
1713358420086979600,2.7499794921875,0.2116328477859497,-0.3172283172607422,-1.190110206604004
1713358420096959000,2.759958984375,0.0905078649520874,-0.255645751953125,-1.143725872039795
1713358420106907600,2.76990771484375,0.11511099338531494,0.02216339111328125,-1.0101985931396484
1713358420116887000,2.779886962890625,0.23630845546722412,0.23403263092041016,-0.9389476180076599
1713358420126866200,2.7898662109375,0.32394111156463623,0.2419424057006836,-0.9243961572647095
1713358420136845300,2.79984521484375,0.3899345397949219,0.1349201202392578,-0.9106208682060242
1713358420146794200,2.809794189453125,0.5028611421585083,-0.1199502944946289,-0.9344317317008972
1713358420156773400,2.8197734375,0.7111572027206421,-0.2834024429321289,-0.968587338924408
1713358420166752800,2.829752685546875,0.9331899881362915,-0.3840208053588867,-0.9514342546463013
1713358420176701400,2.839701416015625,0.8499984741210938,-0.5148439407348633,-0.7000161409378052
1713358420186680600,2.8496806640625,0.8503450155258179,-0.5372133255004883,-0.5600786805152893
1713358420196660000,2.859659912109375,0.8909491300582886,-0.45150184631347656,-0.5224509835243225
1713358420206608600,2.869608642578125,0.8280489444732666,-0.2556343078613281,-0.5516380071640015
1713358420216587800,2.879587890625,0.5794904232025146,0.057007789611816406,-0.6539160013198853
1713358420226567200,2.889567138671875,0.3176676034927368,0.2756996154785156,-0.6845163106918335
1713358420236515800,2.899515869140625,0.3195004463195801,0.31966400146484375,-0.6372545957565308
1713358420246495000,2.909494873046875,0.3891448974609375,0.263671875,-0.45272761583328247
1713358420256474400,2.919474365234375,0.39949309825897217,0.2035360336303711,-0.24537453055381775
1713358420266423000,2.929423095703125,0.3646794557571411,0.29674434661865234,0.07139274477958679
1713358420276402400,2.93940234375,0.3054763078689575,0.43997764587402344,0.49330615997314453
1713358420286381600,2.949381591796875,0.2694427967071533,0.5254487991333008,0.7645801305770874
1713358420296330200,2.959330322265625,0.16612303256988525,0.5698175430297852,0.8816341757774353
1713358420306309600,2.9693095703125,0.12358152866363525,0.553980827331543,0.9874228239059448
1713358420316288800,2.979288818359375,0.08252429962158203,0.5210723876953125,1.032233715057373
1713358420326237400,2.989237548828125,0.04010021686553955,0.46646595001220703,1.2048768997192383
1713358420336216800,2.999216796875,0.031345486640930176,0.3903465270996094,1.3788394927978516
1713358420346196000,3.009196044921875,0.06467485427856445,0.3931722640991211,1.6063575744628906
1713358420356144600,3.01914453125,0.09174978733062744,0.4246349334716797,1.7514370679855347
1713358420366124000,3.0291240234375,0.13370013236999512,0.4560365676879883,1.977138876914978
1713358420376072700,3.03907275390625,0.08823275566101074,0.4013948440551758,2.0666115283966064
1713358420386052000,3.049052001953125,-0.026431679725646973,0.3276224136352539,2.101740837097168
1713358420396031200,3.05903125,0.02601480484008789,0.31122398376464844,2.189629077911377
1713358420406010400,3.06901025390625,-0.0415949821472168,0.3711223602294922,2.2344303131103516
1713358420415989800,3.07898974609375,0.2594285011291504,0.4404449462890625,2.3255696296691895
1713358420425938400,3.0889384765625,0.8554900884628296,0.6534318923950195,2.8029441833496094
1713358420435917600,3.09891748046875,2.1145524978637695,1.0611600875854492,3.544606924057007
1713358420445897000,3.10889697265625,1.7931015491485596,0.889500617980957,3.058405876159668
1713358420455845600,3.118845703125,0.2991158962249756,0.5652885437011719,1.355702519416809
1713358420465825000,3.128824951171875,-0.32566845417022705,0.33401012420654297,0.03560328483581543
1713358420475804200,3.13880419921875,-0.5198801755905151,0.21511077880859375,0.6174330115318298
1713358420485752800,3.1487529296875,-0.5822246074676514,0.24220561981201172,0.6273242235183716
1713358420495732200,3.158732177734375,-0.19932079315185547,0.2936077117919922,0.41826072335243225
1713358420505711400,3.16871142578125,-0.13814783096313477,0.09019756317138672,0.3032905161380768
1713358420515660000,3.178659912109375,-0.2307758331298828,0.00033855438232421875,0.2999669015407562
1713358420525639400,3.188639404296875,-0.37216484546661377,-0.005275726318359375,0.14661863446235657
1713358420535618600,3.19861865234375,-0.31289732456207275,0.06809139251708984,0.028252393007278442
1713358420545567200,3.208567138671875,-0.28441286087036133,0.18191242218017578,0.05956660211086273
1713358420555546600,3.218546630859375,-0.10156571865081787,0.4149131774902344,0.07730317115783691
1713358420565525800,3.22852587890625,0.1162872314453125,0.6547269821166992,0.1880522221326828
1713358420575474700,3.238474609375,0.21565842628479004,0.7249994277954102,0.41403064131736755
1713358420585453800,3.248453857421875,0.20241057872772217,0.6214637756347656,0.5422376990318298
1713358420595433000,3.258432861328125,0.13243722915649414,0.3706350326538086,0.46811071038246155
1713358420605382000,3.2683818359375,0.13597959280014038,0.2710075378417969,0.29708513617515564
1713358420615361000,3.278361083984375,0.1687973141670227,0.37438488006591797,0.7856007218360901
1713358420625340400,3.28834033203125,0.2517091631889343,0.44597339630126953,1.4776146411895752
1713358420635289000,3.2982890625,0.07532382011413574,0.31123828887939453,2.146045446395874
1713358420645268200,3.308268310546875,-0.14460861682891846,-0.09141349792480469,2.44266676902771
1713358420655247600,3.31824755859375,-0.4851115345954895,-0.4438905715942383,2.7745916843414307
1713358420665196300,3.3281962890625,-1.0215733051300049,-0.8085660934448242,3.0201451778411865
1713358420675175400,3.338175537109375,-1.5385780334472656,-1.2713689804077148,2.8698272705078125
1713358420685154800,3.34815478515625,-1.7548991441726685,-1.6145448684692383,2.02532958984375
1713358420695103500,3.358103515625,-1.8490341901779175,-1.6136150360107422,0.7218590974807739
1713358420705082600,3.36808251953125,-1.5193374156951904,-1.3981847763061523,-0.07594966888427734
1713358420715062000,3.37806201171875,-0.8829015493392944,-1.085759162902832,-0.3343619704246521
1713358420725041200,3.388041259765625,-0.26057708263397217,-0.5976905822753906,-0.5539353489875793
1713358420734990000,3.397989990234375,0.09776738286018372,-0.13974857330322266,-0.40832412242889404
1713358420744969200,3.40796923828125,0.22668056190013885,0.26895999908447266,-0.1533634066581726
1713358420754948400,3.4179482421875,0.19296561181545258,0.5306062698364258,0.07859915494918823
1713358420764897300,3.427897216796875,0.16134603321552277,0.6360073089599609,0.33472657203674316
1713358420774876400,3.43787646484375,0.2506941556930542,0.6069316864013672,0.7347900867462158
1713358420784855800,3.447855712890625,0.3476823568344116,0.4890718460083008,0.9868779182434082
1713358420794804500,3.457804443359375,0.10341043770313263,0.3090190887451172,1.118945837020874
1713358420804783600,3.46778369140625,-0.03892423212528229,0.1935100555419922,1.044044017791748
1713358420814763000,3.477762939453125,-0.2072472721338272,0.12587833404541016,0.877448558807373
1713358420824711700,3.487711669921875,-0.3092085123062134,0.16344642639160156,0.6928995847702026
1713358420834690800,3.49769091796875,-0.5915980339050293,0.18436813354492188,0.5708016157150269
1713358420844670200,3.507670166015625,-0.2402787208557129,0.4539756774902344,0.18595457077026367
1713358420854619000,3.517618896484375,-0.16552802920341492,0.687586784362793,0.050523996353149414
1713358420864598000,3.527597900390625,-0.0030215084552764893,0.9117460250854492,-0.07874095439910889
1713358420874577400,3.537577392578125,0.3317788243293762,1.1886796951293945,-0.1565028429031372
1713358420884526000,3.547526123046875,0.36825239658355713,1.4320650100708008,-0.11334085464477539
1713358420894505200,3.557505126953125,0.44591641426086426,1.6108026504516602,-0.22091341018676758
1713358420904484600,3.567484619140625,0.5137304067611694,1.6654052734375,-0.15657830238342285
1713358420914433300,3.577433349609375,0.5398582220077515,1.6512260437011719,0.05357170104980469
1713358420924412700,3.58741259765625,0.6308988332748413,1.680837631225586,0.025706171989440918
1713358420934361300,3.597361328125,0.7930467128753662,1.7468910217285156,0.06555736064910889
1713358420944340500,3.607340576171875,0.9083040952682495,1.6510486602783203,0.21097469329833984
1713358420954320000,3.61731982421875,1.1075319051742554,1.5297069549560547,0.4416455030441284
1713358420964268500,3.6272685546875,1.1464228630065918,1.4496564865112305,0.8180837631225586
1713358420974247700,3.63724755859375,1.1333814859390259,1.346114158630371,1.1402679681777954
1713358420984227000,3.64722705078125,1.0644505023956299,1.2524290084838867,1.4622509479522705
1713358420994206200,3.657206298828125,0.9711997509002686,1.156510353088379,1.835567593574524
1713358421004185600,3.667185546875,0.8794736862182617,1.0678224563598633,2.213671922683716
1713358421014134300,3.67713427734375,0.7812766432762146,0.9767675399780273,2.63360595703125
1713358421024113400,3.687113525390625,0.7359545230865479,0.6898832321166992,2.986896514892578
1713358421034092800,3.6970927734375,0.7887650728225708,0.08109092712402344,3.2487432956695557
1713358421044041500,3.70704150390625,0.7033740878105164,-0.6888542175292969,3.389828681945801
1713358421054020600,3.7170205078125,0.420842707157135,-1.3402576446533203,3.3472256660461426
1713358421064000000,3.727,0.04580891132354736,-1.8138666152954102,3.087583065032959
1713358421073948700,3.73694873046875,-0.2401336431503296,-2.079268455505371,2.6470532417297363
1713358421083928000,3.746927978515625,-0.02742627263069153,-2.108367919921875,2.3421425819396973
1713358421093907200,3.7569072265625,0.5069981813430786,-2.0353012084960938,2.0345098972320557
1713358421103855900,3.76685595703125,0.9106695652008057,-1.991440773010254,2.0312881469726562
1713358421113835300,3.776835205078125,1.3167541027069092,-1.6921977996826172,2.712124824523926
1713358421123814400,3.786814453125,1.4956369400024414,-1.3341102600097656,3.7079036235809326
1713358421133763000,3.79676318359375,1.0969009399414062,-1.2711658477783203,4.460229396820068
1713358421143742500,3.806742431640625,0.4539830684661865,-2.1167545318603516,4.8052825927734375
1713358421153721600,3.8167216796875,0.4709295630455017,-3.7514572143554688,4.274929046630859
1713358421163670300,3.826670166015625,1.103399634361267,-5.449575424194336,2.998274326324463
1713358421173649700,3.836649658203125,1.08904230594635,-6.2439165115356445,0.5065712928771973
1713358421183628800,3.84662890625,-0.6064732074737549,-4.690943717956543,-3.0246307849884033
1713358421193577700,3.85657763671875,-1.0125387907028198,-1.4488258361816406,-4.875802993774414
1713358421203556900,3.866556884765625,-0.014656782150268555,1.1034574508666992,-3.594212055206299
1713358421213505500,3.876505615234375,0.6003686785697937,2.373777389526367,-2.236754894256592
1713358421223485000,3.88648486328125,-0.2928674817085266,2.7859230041503906,-1.9610670804977417
1713358421233464000,3.896464111328125,-0.6413143873214722,2.3822975158691406,-0.872198224067688
1713358421243412700,3.906412841796875,-1.3377525806427002,1.4350261688232422,0.42037880420684814
1713358421253392100,3.91639208984375,-2.4405362606048584,0.4996986389160156,0.813269853591919
1713358421263371300,3.926371337890625,-2.57649564743042,-0.11826896667480469,0.5065680742263794
1713358421273350700,3.9363505859375,-2.3956997394561768,-0.35480594635009766,-0.32416272163391113
1713358421283299300,3.94629931640625,-2.2318718433380127,-0.050556182861328125,-0.964077353477478
1713358421293278500,3.956278564453125,-2.1320741176605225,0.4871683120727539,-1.220098614692688
1713358421303257900,3.9662578125,-1.6174848079681396,0.7373390197753906,-1.8106111288070679
1713358421313237000,3.976237060546875,-0.9577760696411133,0.6888694763183594,-2.327589273452759
1713358421323185700,3.986185546875,-0.40752410888671875,0.7627286911010742,-2.748567581176758
1713358421333165000,3.9961650390625,-0.15384137630462646,0.8866205215454102,-3.212033271789551
1713358421343144200,4.006144287109375,0.09375739097595215,1.0128355026245117,-3.7218518257141113
1713358421353092900,4.0160927734375,0.38789796829223633,1.357224464416504,-3.909268379211426
1713358421363072300,4.026072265625,0.5715901851654053,1.6501092910766602,-3.655120611190796
1713358421373051400,4.036051513671875,0.5749781131744385,1.6410551071166992,-3.113053321838379
1713358421383000300,4.046000244140625,0.4115182161331177,1.3232688903808594,-2.550389051437378
1713358421392979500,4.0559794921875,-0.002959132194519043,0.794713020324707,-2.1616644859313965
1713358421402958600,4.06595849609375,-0.28186941146850586,0.21543502807617188,-2.1515612602233887
1713358421412907500,4.075907470703125,-0.09087872505187988,-0.24726009368896484,-2.3225009441375732
1713358421422886700,4.08588671875,0.2471374273300171,-0.5359220504760742,-2.2806854248046875
1713358421432866000,4.095865966796875,0.5111535787582397,-0.5126199722290039,-1.8297487497329712
1713358421442814700,4.105814697265625,0.7498713731765747,-0.264251708984375,-1.202565312385559
1713358421452793900,4.1157939453125,0.9662933349609375,0.13945484161376953,-0.6463834047317505
1713358421462773200,4.125773193359375,0.9410820007324219,0.6142120361328125,-0.23005545139312744
1713358421472722000,4.135721923828125,0.5141669511795044,0.9227056503295898,-0.03310859203338623
1713358421482701000,4.145701171875,-0.1359882354736328,1.045614242553711,0.019953250885009766
1713358421492650000,4.15564990234375,-0.6837471723556519,0.9422111511230469,-0.23939025402069092
1713358421502629000,4.165629150390625,-0.9483535289764404,0.6797733306884766,-0.5368252992630005
1713358421512608300,4.175608154296875,-1.016675353050232,0.34696483612060547,-0.7911419868469238
1713358421522557200,4.18555712890625,-0.8448290824890137,0.0753326416015625,-1.0788071155548096
1713358421532536300,4.195536376953125,-0.308024525642395,-0.051392555236816406,-1.0211623907089233
1713358421542515700,4.205515625,0.3546164035797119,0.060347557067871094,-0.8571603298187256
1713358421552494800,4.215494873046875,0.9244080781936646,0.23410511016845703,-0.6810818910598755
1713358421562443500,4.225443603515625,1.2069618701934814,0.3938770294189453,-0.3224875330924988
1713358421572423000,4.2354228515625,1.0520658493041992,0.5157289505004883,-0.1391432285308838
1713358421582402000,4.245402099609375,0.4479295015335083,0.6131839752197266,-0.08361345529556274
1713358421592381400,4.25538134765625,-0.14690852165222168,0.6854686737060547,-0.1380915641784668
1713358421602330000,4.265330078125,-0.35528528690338135,0.8134689331054688,-0.05844256281852722
1713358421612309200,4.275309326171875,-0.453157901763916,0.856109619140625,0.10134917497634888
1713358421622288600,4.28528857421875,-0.041693687438964844,0.8523550033569336,0.27240172028541565
1713358421632237300,4.2952373046875,0.49037277698516846,0.7195520401000977,0.5214388370513916
1713358421642216400,4.305216552734375,0.842658281326294,0.5275468826293945,0.6550636887550354
1713358421652195800,4.31519580078125,0.97176194190979,0.32590579986572266,0.6230706572532654
1713358421662144500,4.32514453125,0.9823639392852783,0.21900272369384766,0.7353026270866394
1713358421672123600,4.33512353515625,1.2225877046585083,0.11554431915283203,0.6214444637298584
1713358421682103000,4.34510302734375,1.4538488388061523,-0.039566993713378906,0.4628553092479706
1713358421692051700,4.3550517578125,1.5813241004943848,-0.15036296844482422,0.5775436162948608
1713358421702030800,4.36503076171875,1.8982830047607422,-0.360107421875,0.6562655568122864
1713358421712010200,4.37501025390625,2.166212558746338,-0.48660755157470703,1.2741361856460571
1713358421721959000,4.384958984375,2.3958826065063477,-0.5655488967895508,1.758876919746399
1713358421731938300,4.394938232421875,2.745021104812622,-0.49849414825439453,2.0211338996887207
1713358421741917400,4.40491748046875,3.0992534160614014,-0.4023303985595703,1.9600307941436768
1713358421751866000,4.4148662109375,3.402057409286499,-0.1549053192138672,1.8826494216918945
1713358421761845500,4.424845458984375,3.611799955368042,0.22701644897460938,1.8945198059082031
1713358421771794200,4.434794189453125,3.771402597427368,0.6363964080810547,2.182892322540283
1713358421781773300,4.444773193359375,3.5543413162231445,0.7649879455566406,2.4931743144989014
1713358421791752700,4.454752685546875,3.2406883239746094,0.6064891815185547,2.790534734725952
1713358421801701400,4.464701416015625,2.87951397895813,0.18288707733154297,2.7846148014068604
1713358421811680500,4.474680419921875,2.539242744445801,-0.42007923126220703,2.3543312549591064
1713358421821660000,4.484659912109375,2.3076751232147217,-1.0460338592529297,2.0116868019104004
1713358421831639000,4.49463916015625,2.5116257667541504,-1.3025808334350586,1.3174357414245605
1713358421841588000,4.504587890625,2.524930953979492,-1.2809171676635742,1.0848894119262695
1713358421851567000,4.514567138671875,2.4054789543151855,-0.977020263671875,0.9985547065734863
1713358421861546200,4.524546142578125,1.6497228145599365,-0.5881767272949219,1.1510993242263794
1713358421871525600,4.534525634765625,0.41388750076293945,-0.6831274032592773,1.3407434225082397
1713358421881474300,4.544474365234375,-0.7865312099456787,-0.69696044921875,1.4421257972717285
1713358421891453700,4.55445361328125,-1.7417833805084229,-0.5507678985595703,1.5201911926269531
1713358421901432800,4.564432861328125,-1.765873670578003,-0.3566770553588867,1.274198055267334
1713358421911381500,4.574381591796875,-0.7849383354187012,0.049999237060546875,0.3482535183429718
1713358421921361000,4.58436083984375,0.19868624210357666,0.5486669540405273,-0.7792098522186279
1713358421931340000,4.594340087890625,0.4277312755584717,0.8657426834106445,-1.9834911823272705
1713358421941288700,4.604288818359375,0.30827081203460693,0.9029407501220703,-3.147101879119873
1713358421951268000,4.61426806640625,-0.1252458095550537,0.8613405227661133,-4.013223648071289
1713358421961247200,4.624247314453125,-0.6284468173980713,0.6237411499023438,-4.598948001861572
1713358421971196000,4.63419580078125,-1.045974612236023,-0.0010957717895507812,-4.631333827972412
1713358421981175300,4.64417529296875,-1.2783758640289307,-0.9269008636474609,-4.486842632293701
1713358421991154400,4.654154541015625,-1.413238286972046,-1.8005924224853516,-4.310846328735352
1713358422001103400,4.664103271484375,-1.989646077156067,-2.200662612915039,-4.468138694763184
1713358422011082500,4.67408251953125,-2.4029476642608643,-2.29311466217041,-3.414675235748291
1713358422021061600,4.6840615234375,-2.5590405464172363,-2.4080400466918945,-1.6065952777862549
1713358422031010600,4.694010498046875,-2.7627859115600586,-2.6790847778320312,0.13408443331718445
1713358422040989700,4.70398974609375,-3.464818000793457,-2.6977481842041016,1.321293830871582
1713358422050938400,4.7139384765625,-4.511445045471191,-2.717726707458496,1.640038251876831
1713358422060917800,4.723917724609375,-5.698856830596924,-2.830662727355957,2.116804838180542
1713358422070897000,4.73389697265625,-6.483969688415527,-2.830820083618164,2.557626247406006
1713358422080845600,4.743845458984375,-6.999551773071289,-2.2124414443969727,2.788429021835327
1713358422090825000,4.753824951171875,-6.30470609664917,-1.5425567626953125,2.641702890396118
1713358422100804000,4.76380419921875,-4.256572246551514,-1.0661811828613281,1.9381557703018188
1713358422110753000,4.7737529296875,-2.1456522941589355,-0.4906740188598633,1.5517871379852295
1713358422120732200,4.783732177734375,0.02541610598564148,0.04658317565917969,1.0823841094970703
1713358422130711300,4.793711181640625,1.2855039834976196,0.7291889190673828,0.7090126276016235
1713358422140690700,4.803690673828125,1.3097734451293945,0.9381656646728516,0.9211611747741699
1713358422150669800,4.813669921875,0.5875676870346069,1.3507270812988281,0.6504074335098267
1713358422160618500,4.823618408203125,0.5786207914352417,1.7492303848266602,0.08444845676422119
1713358422170598000,4.833597900390625,0.7045696973800659,2.0597057342529297,-0.1621173620223999
1713358422180577000,4.843576904296875,0.7785651087760925,2.3372812271118164,-0.44843727350234985
1713358422190526000,4.85352587890625,0.5089962482452393,2.503389358520508,-0.9132358431816101
1713358422200505000,4.863505126953125,0.17068332433700562,2.5776309967041016,-1.2944903373718262
1713358422210484200,4.873484130859375,0.04139584302902222,2.6821699142456055,-1.4316022396087646
1713358422220433200,4.88343310546875,-0.11363273859024048,2.616602897644043,-1.3362345695495605
1713358422230412300,4.893412353515625,-0.5157794952392578,2.300701141357422,-1.3613879680633545
1713358422240391700,4.9033916015625,-0.9688721895217896,2.0678205490112305,-1.4795564413070679
1713358422250340400,4.91334033203125,-1.2349493503570557,1.9827384948730469,-1.5423997640609741
1713358422260319500,4.923319580078125,-1.2528691291809082,1.895014762878418,-1.6171461343765259
1713358422270299000,4.933298828125,-1.0734834671020508,1.9335737228393555,-1.5688183307647705
1713358422280247600,4.94324755859375,-0.7617459893226624,2.0166540145874023,-1.520606279373169
1713358422290226700,4.953226806640625,-0.6065411567687988,2.0484447479248047,-1.4369617700576782
1713358422300175600,4.963175537109375,-0.39422160387039185,2.019411087036133,-1.4533685445785522
1713358422310154800,4.97315478515625,0.20854222774505615,1.9011144638061523,-1.4889779090881348
1713358422320134000,4.9831337890625,0.1761811375617981,1.7365531921386719,-1.0843887329101562
1713358422330082800,4.993082763671875,0.4282473921775818,1.4706058502197266,-0.45189404487609863
1713358422340062000,5.00306201171875,0.52678382396698,1.0746126174926758,0.28001725673675537
1713358422350041300,5.013041259765625,0.6908623576164246,0.7585887908935547,1.1532938480377197
1713358422359990000,5.022989990234375,0.8542525172233582,0.4931316375732422,2.1035141944885254
1713358422369969200,5.03296923828125,0.8665147423744202,0.2706460952758789,2.9566287994384766
1713358422379948500,5.042948486328125,0.7152113914489746,0.04063892364501953,3.579406499862671
1713358422389897200,5.052897216796875,0.47399041056632996,-0.1469430923461914,4.149044036865234
1713358422399876400,5.06287646484375,0.3834277391433716,-0.40717124938964844,4.459792613983154
1713358422409855700,5.072855712890625,0.4404710829257965,-0.8598098754882812,4.541939735412598
1713358422419835000,5.0828349609375,0.3115192651748657,-1.411611557006836,4.050839424133301
1713358422429783600,5.092783447265625,0.17799273133277893,-2.0190000534057617,2.752488613128662
1713358422439763000,5.102762939453125,0.09168228507041931,-2.4592132568359375,1.3958072662353516
1713358422449742000,5.1127421875,0.35873693227767944,-2.4884891510009766,0.042694807052612305
1713358422459721500,5.122721435546875,0.6756037473678589,-2.5011634826660156,-1.112250566482544
1713358422469670100,5.132670166015625,1.2799149751663208,-2.4507532119750977,-1.5081274509429932
1713358422479649300,5.142649169921875,2.5100769996643066,-1.9731454849243164,-0.927871584892273
1713358422489628700,5.152628662109375,3.611466884613037,-1.0993404388427734,0.1138385534286499
1713358422499577300,5.162577392578125,3.863534927368164,-0.7436313629150391,1.9437546730041504
1713358422509556700,5.172556640625,3.2427268028259277,-1.0763816833496094,4.303641319274902
1713358422519535900,5.182535888671875,2.581362724304199,-2.523357391357422,6.038824081420898
1713358422529484500,5.192484619140625,1.4992144107818604,-4.126992225646973,6.0756354331970215
1713358422539464000,5.2024638671875,-1.446018934249878,-5.416471481323242,2.52687931060791
1713358422549443000,5.212443115234375,-5.221386432647705,-6.472505569458008,-2.840751886367798
1713358422559391700,5.222391845703125,-7.487555027008057,-6.905607223510742,-6.576982498168945
1713358422569371100,5.23237109375,-7.1958327293396,-5.576250076293945,-7.150323867797852
1713358422579319800,5.24231982421875,-5.5597991943359375,-2.1647701263427734,-5.238086700439453
1713358422589299000,5.252298828125,-4.077189922332764,-0.25231075286865234,-3.58290958404541
1713358422599278300,5.2622783203125,-2.2927486896514893,0.1258096694946289,-2.1854050159454346
1713358422609227000,5.27222705078125,-1.103149652481079,0.2676887512207031,-0.2497187852859497
1713358422619206100,5.2822060546875,-0.18296033143997192,0.8569755554199219,1.179208755493164
1713358422629185500,5.292185546875,0.2469199299812317,1.698033332824707,0.4622257947921753
1713358422639134200,5.30213427734375,0.4799463748931885,2.729678153991699,-1.070127010345459
1713358422649113600,5.312113525390625,1.048341989517212,3.1544008255004883,-2.1871273517608643
1713358422659092700,5.3220927734375,1.7368336915969849,2.6176395416259766,-3.3766043186187744
1713358422669041400,5.33204150390625,1.6703675985336304,1.066847801208496,-4.861350059509277
1713358422679020800,5.342020751953125,1.075834035873413,-0.5721225738525391,-6.759958267211914
1713358422689000000,5.352,0.06913363933563232,-0.9635200500488281,-7.6300554275512695
1713358422698979300,5.361979248046875,-0.6589012145996094,-0.29119396209716797,-7.030672073364258
1713358422708928000,5.371927978515625,-0.9447396993637085,0.675623893737793,-5.642172336578369
1713358422718907100,5.3819072265625,-0.8721568584442139,1.5209236145019531,-3.794926166534424
1713358422728886500,5.391886474609375,-0.1591804027557373,2.105602264404297,-2.3215689659118652
1713358422738835200,5.401835205078125,0.8411332368850708,2.2688894271850586,-2.1660428047180176
1713358422748814300,5.411814453125,1.8094290494918823,1.9876089096069336,-2.235244035720825
1713358422758793700,5.421793701171875,2.3570704460144043,1.5487995147705078,-1.9430192708969116
1713358422768742400,5.431742431640625,2.703205108642578,1.5032100677490234,-1.7264337539672852
1713358422778721500,5.441721435546875,2.6971004009246826,1.6352577209472656,-1.4274349212646484
1713358422788701000,5.451700927734375,2.0763320922851562,1.5478792190551758,-0.9617893099784851
1713358422798649600,5.461649658203125,0.7994858026504517,1.3358678817749023,-0.5796637535095215
1713358422808629000,5.47162890625,-0.5430060625076294,1.0882081985473633,-0.2359485626220703
1713358422818608000,5.481608154296875,-1.5398625135421753,0.6741371154785156,0.22327667474746704
1713358422828556800,5.491556884765625,-1.7236343622207642,0.18903064727783203,0.6915876865386963
1713358422838536200,5.5015361328125,-1.3817954063415527,-0.28556156158447266,0.7817726135253906
1713358422848515300,5.511515380859375,-1.0776795148849487,-0.6323823928833008,0.6439872980117798
1713358422858464000,5.521464111328125,-0.8201472759246826,-0.5698451995849609,0.2716177701950073
1713358422868443400,5.531443359375,-0.2907428741455078,-0.03419208526611328,0.15217916667461395
1713358422878422500,5.541422607421875,0.4608691930770874,0.6972265243530273,0.13790474832057953
1713358422888371200,5.55137109375,1.004763126373291,1.4096412658691406,0.061658091843128204
1713358422898350600,5.5613505859375,1.0482337474822998,2.0055103302001953,0.1562112420797348
1713358422908329700,5.571329833984375,0.7722126245498657,2.2657470703125,0.3495141863822937
1713358422918278700,5.581278564453125,0.545566201210022,2.2580862045288086,0.31846508383750916
1713358422928257800,5.5912578125,0.2072596549987793,2.066596031188965,0.5174787640571594
1713358422938237000,5.60123681640625,-0.11550009250640869,1.586277961730957,0.9232639074325562
1713358422948185900,5.611185791015625,-0.3891533613204956,0.8242473602294922,1.2543333768844604
1713358422958165000,5.6211650390625,-0.5242990255355835,-0.08559989929199219,1.5795187950134277
1713358422968144400,5.631144287109375,-0.42910516262054443,-0.5342111587524414,1.7809644937515259
1713358422978093000,5.641093017578125,-0.1594984531402588,-0.6994829177856445,1.7063305377960205
1713358422988072200,5.651072265625,0.404163122177124,-0.6942024230957031,1.779487133026123
1713358422998051600,5.661051513671875,0.829872727394104,-0.5711956024169922,1.6208961009979248
1713358423008030700,5.67103076171875,1.3900198936462402,-0.5553083419799805,1.3230223655700684
1713358423017979400,5.6809794921875,1.844991683959961,-0.5793209075927734,1.2838866710662842
1713358423027958800,5.690958740234375,2.52217173576355,-0.7047367095947266,0.9941248893737793
1713358423037938000,5.70093798828125,3.2522237300872803,-0.7431831359863281,0.9848880767822266
1713358423047886600,5.710886474609375,4.005052089691162,-0.6074085235595703,0.7607137560844421
1713358423057866000,5.720865966796875,4.252819061279297,-0.3520669937133789,0.9727985262870789
1713358423067845000,5.73084521484375,4.185376167297363,0.02973651885986328,1.0707130432128906
1713358423077793800,5.740793701171875,3.8143255710601807,0.14047718048095703,1.4504982233047485
1713358423087773200,5.750773193359375,3.3111019134521484,0.1099700927734375,2.114368200302124
1713358423097752300,5.76075244140625,3.2925283908843994,-0.09953975677490234,2.0440988540649414
1713358423107701200,5.770701171875,3.3576133251190186,-0.1575784683227539,1.8286105394363403
1713358423117680400,5.780680419921875,3.0099194049835205,-0.40203094482421875,1.573782205581665
1713358423127659500,5.790659423828125,3.041985273361206,-0.3701362609863281,1.284971833229065
1713358423137608400,5.8006083984375,2.2488105297088623,-0.5230445861816406,1.0901602506637573
1713358423147587600,5.810587646484375,0.868051290512085,-0.8925933837890625,1.056016206741333
1713358423157567000,5.82056689453125,-0.5093743801116943,-1.2813796997070312,1.0430488586425781
1713358423167515600,5.830515625,-1.559603214263916,-1.5138444900512695,1.333824872970581
1713358423177494800,5.840494873046875,-2.101381540298462,-1.7837858200073242,1.5076395273208618
1713358423187474200,5.85047412109375,-1.6985101699829102,-1.942255973815918,1.172422170639038
1713358423197422800,5.8604228515625,-0.6279641389846802,-1.6375160217285156,0.3222751021385193
1713358423207402000,5.870402099609375,-0.035786986351013184,-1.207554817199707,-1.1098480224609375
1713358423217381400,5.88038134765625,0.03518486022949219,-0.9470996856689453,-2.899885654449463
1713358423227330000,5.890330078125,-0.23289883136749268,-0.7919502258300781,-4.49131965637207
1713358423237309200,5.90030908203125,-0.7432514429092407,-0.7018623352050781,-5.86498498916626
1713358423247288600,5.91028857421875,-1.383203387260437,-0.4797677993774414,-6.838869094848633
1713358423257237200,5.9202373046875,-2.2908005714416504,-0.2211923599243164,-7.509250640869141
1713358423267216600,5.930216552734375,-3.159679412841797,-0.042176246643066406,-7.505423545837402
1713358423277195800,5.94019580078125,-3.7435686588287354,-0.1129608154296875,-7.5649638175964355
1713358423287175000,5.9501748046875,-3.9279232025146484,-0.48749351501464844,-5.8269500732421875
1713358423297123800,5.960123779296875,-3.523188591003418,-1.2760906219482422,-2.6350667476654053
1713358423307103000,5.97010302734375,-3.0940423011779785,-2.1590185165405273,0.438312828540802
1713358423317082400,5.980082275390625,-2.747382164001465,-2.727097511291504,3.111499547958374
1713358423327031000,5.990031005859375,-2.77972149848938,-3.1197214126586914,4.69589900970459
1713358423337010200,6.00001025390625,-4.11513090133667,-3.1413984298706055,5.030182361602783
1713358423346989600,6.009989501953125,-6.086806774139404,-3.411952018737793,4.489035129547119
1713358423356938200,6.019938232421875,-6.6814680099487305,-3.0735931396484375,5.809911251068115
1713358423366917400,6.02991748046875,-7.521212100982666,-1.4739084243774414,5.470602989196777
1713358423376896800,6.039896728515625,-7.378567695617676,-0.5695037841796875,3.3009824752807617
1713358423386845400,6.049845458984375,-5.633965492248535,-0.020874977111816406,1.571024775505066
1713358423396824600,6.059824462890625,-3.008523941040039,0.32128143310546875,0.5973906517028809
1713358423406804000,6.069803955078125,0.20797353982925415,0.41814327239990234,-0.27565521001815796
1713358423416752600,6.079752685546875,2.8565430641174316,0.6010684967041016,-1.640520691871643
1713358423426732000,6.08973193359375,3.248807907104492,0.8588752746582031,-1.8565659523010254
1713358423436711200,6.099711181640625,2.6601593494415283,1.2329730987548828,-1.8492329120635986
1713358423446659800,6.109659912109375,1.5759682655334473,1.7309951782226562,-1.294917345046997
1713358423456639200,6.11963916015625,0.5176537036895752,2.0166091918945312,-0.729102611541748
1713358423466618400,6.129618408203125,0.009820103645324707,2.1576662063598633,-0.3986532986164093
1713358423476567000,6.139567138671875,-0.19281476736068726,2.3027753829956055,-0.5784190893173218
1713358423486546400,6.14954638671875,-0.14046072959899902,2.480562210083008,-0.9338060617446899
1713358423496495000,6.1594951171875,-0.49118590354919434,2.614476203918457,-0.28913167119026184
1713358423506474200,6.16947412109375,-0.7012978196144104,2.6328516006469727,0.3450442850589752
1713358423516453600,6.17945361328125,-0.954931914806366,2.5053939819335938,0.3607248067855835
1713358423526402300,6.18940234375,-1.2727203369140625,2.307222366333008,0.35328441858291626
1713358423536381400,6.19938134765625,-1.623034954071045,2.0750303268432617,0.17594116926193237
1713358423546360800,6.20936083984375,-1.7130801677703857,1.986189842224121,0.1321226954460144
1713358423556340000,6.219340087890625,-1.5169486999511719,1.9973535537719727,0.07688784599304199
1713358423566319400,6.2293193359375,-1.0788650512695312,2.1127586364746094,-0.06406164169311523
1713358423576268000,6.23926806640625,-0.5925782322883606,2.1598291397094727,-0.3175380825996399
1713358423586247200,6.2492470703125,-0.162339448928833,2.190927505493164,-0.4363536238670349
1713358423596226600,6.2592265625,0.16871851682662964,2.141343116760254,-0.4108443856239319
1713358423606175200,6.26917529296875,0.4419822692871094,1.9728097915649414,-0.15611809492111206
1713358423616154600,6.279154541015625,0.6493880748748779,1.7547836303710938,0.22703421115875244
1713358423626133800,6.2891337890625,0.7947196960449219,1.592259407043457,0.8784226179122925
1713358423636082400,6.29908251953125,0.9649643301963806,1.4657402038574219,1.7139582633972168
1713358423646061800,6.309061767578125,1.0427017211914062,1.2913999557495117,2.5517592430114746
1713358423656041000,6.319041015625,1.0042762756347656,0.9593830108642578,3.422420024871826
1713358423665989600,6.32898974609375,0.9355472922325134,0.47473621368408203,4.157835960388184
1713358423675969000,6.338968994140625,0.8126167058944702,0.014294624328613281,4.723167419433594
1713358423685948200,6.3489482421875,0.25287961959838867,-0.4964027404785156,4.87915563583374
1713358423695896800,6.358896728515625,-0.6040148138999939,-1.1075611114501953,4.399995803833008
1713358423705876200,6.368876220703125,-1.5617506504058838,-1.790008544921875,3.147144317626953
1713358423715855400,6.37885546875,-2.3160881996154785,-2.3423213958740234,1.5642118453979492
1713358423725804300,6.38880419921875,-2.4106199741363525,-2.6190032958984375,0.627426028251648
1713358423735783400,6.398783447265625,-1.6804630756378174,-2.613650321960449,-0.1282355785369873
1713358423745762600,6.408762451171875,-0.6494458317756653,-2.273508071899414,-0.5165520906448364
1713358423755711500,6.41871142578125,0.06005173921585083,-1.8893537521362305,-0.1236494779586792
1713358423765690600,6.428690673828125,0.5747581720352173,-1.8840980529785156,1.9415228366851807
1713358423775639300,6.438639404296875,1.8090991973876953,-2.7342042922973633,4.459968090057373
1713358423785618700,6.44861865234375,2.4976401329040527,-4.690615653991699,5.375992774963379
1713358423795597800,6.458597900390625,0.2697317600250244,-7.538002014160156,3.3950366973876953
1713358423805546500,6.46854638671875,-2.6041059494018555,-9.347177505493164,0.49437302350997925
1713358423815526000,6.47852587890625,-3.469623565673828,-8.827446937561035,-2.761868476867676
1713358423825505000,6.488505126953125,-1.8069031238555908,-6.426823616027832,-5.415250778198242
1713358423835484400,6.498484375,0.5021755695343018,-2.55861759185791,-7.19822359085083
1713358423845433000,6.50843310546875,1.112971544265747,2.0608863830566406,-6.924052715301514
1713358423855412200,6.518412109375,0.357854962348938,4.390982627868652,-2.8137710094451904
1713358423865391600,6.5283916015625,-0.4704909324645996,4.1337175369262695,-0.543027400970459
1713358423875370800,6.538370849609375,-1.5635229349136353,2.1960573196411133,0.8863704204559326
1713358423885319400,6.5483193359375,-2.672621011734009,-0.6861438751220703,2.5899808406829834
1713358423895298800,6.558298828125,-2.8996565341949463,-2.9636735916137695,2.7833356857299805
1713358423905278000,6.56827783203125,-3.7311923503875732,-3.4833011627197266,1.3035972118377686
1713358423915227000,6.578226806640625,-4.661916732788086,-2.6885986328125,0.18614661693572998
1713358423925206000,6.5882060546875,-3.7758774757385254,-1.4038238525390625,-1.196846604347229
1713358423935185200,6.59818505859375,-1.438452959060669,0.14578628540039062,-2.883605480194092
1713358423945134000,6.608134033203125,0.1481548547744751,1.3767518997192383,-3.930567979812622
1713358423955113200,6.61811328125,1.0215497016906738,2.0198850631713867,-5.077919006347656
1713358423965092600,6.628092529296875,1.4736615419387817,2.173130989074707,-6.147082805633545
1713358423975041300,6.638041259765625,1.9174773693084717,2.201329231262207,-6.670444488525391
1713358423985020400,6.6480205078125,2.168707847595215,2.1148204803466797,-6.866239547729492
1713358423994999800,6.657999755859375,2.2807888984680176,1.8999700546264648,-6.319397926330566
1713358424004948500,6.667948486328125,1.971290111541748,1.518503189086914,-4.717722415924072
1713358424014927600,6.677927734375,1.2487163543701172,1.3586349487304688,-2.771261215209961
1713358424024907000,6.687906982421875,0.426472544670105,1.3086833953857422,-1.5205830335617065
1713358424034855700,6.697855712890625,-0.006004989147186279,1.0738859176635742,-0.7479684948921204
1713358424044834800,6.707834716796875,-0.3731432557106018,0.6876506805419922,-0.17783194780349731
1713358424054814200,6.717814208984375,-0.7777624130249023,0.2934436798095703,-0.08440554141998291
1713358424064763000,6.727762939453125,-0.9092912673950195,0.020522117614746094,-0.6044919490814209
1713358424074742300,6.7377421875,-0.41954874992370605,0.10312461853027344,-1.2760581970214844
1713358424084691000,6.74769091796875,0.5158015489578247,0.4389324188232422,-1.6554019451141357
1713358424094670000,6.757670166015625,1.2274398803710938,0.9855289459228516,-1.8426538705825806
1713358424104649500,6.7676494140625,1.3892139196395874,1.4252357482910156,-1.8037962913513184
1713358424114628600,6.777628662109375,1.0981190204620361,1.7027053833007812,-1.2208647727966309
1713358424124577300,6.787577392578125,0.6298645734786987,1.826981544494629,-0.5560486912727356
1713358424134556700,6.797556640625,0.15398132801055908,1.6995353698730469,-0.24113264679908752
1713358424144535800,6.807535888671875,-0.31309664249420166,1.4801406860351562,-0.14668548107147217
1713358424154515200,6.81751513671875,-0.6214996576309204,1.1089258193969727,0.04009684920310974
1713358424164463900,6.8274638671875,-0.6680704355239868,0.6984348297119141,0.18596118688583374
1713358424174443000,6.837443115234375,-0.3635129928588867,0.43541526794433594,0.30328020453453064
1713358424184422400,6.84742236328125,0.03614497184753418,0.2054147720336914,0.2934950888156891
1713358424194371000,6.85737109375,0.3871793746948242,0.1686859130859375,0.3228878378868103
1713358424204350200,6.86735009765625,0.4778623580932617,0.27689266204833984,0.3979377746582031
1713358424214329600,6.87732958984375,0.3534437417984009,0.510310173034668,0.6316335797309875
1713358424224278300,6.8872783203125,0.13488030433654785,0.6534194946289062,0.7737334966659546
1713358424234257700,6.897257568359375,-0.1358412504196167,0.7085113525390625,0.9936553835868835
1713358424244236800,6.90723681640625,-0.26515305042266846,0.5944499969482422,1.1137948036193848
1713358424254185500,6.917185546875,-0.26538145542144775,0.35207462310791016,1.272419810295105
1713358424264164900,6.927164794921875,0.0070656538009643555,-0.13800811767578125,1.1928820610046387
1713358424274144000,6.93714404296875,0.6161642074584961,-0.5478019714355469,1.3766772747039795
1713358424284092700,6.9470927734375,1.339066743850708,-0.8461408615112305,1.448455572128296
1713358424294072000,6.957072021484375,1.6472928524017334,-0.9951238632202148,1.686159372329712
1713358424304051200,6.96705126953125,1.6775946617126465,-1.0380706787109375,1.8564393520355225
1713358424314000000,6.976999755859375,1.6999931335449219,-1.0539960861206055,1.9853607416152954
1713358424323979300,6.986979248046875,1.801891565322876,-0.8444709777832031,2.0489981174468994
1713358424333958400,6.99695849609375,2.091081380844116,-0.2582540512084961,2.4017934799194336
1713358424343907000,7.006906982421875,2.6265084743499756,0.473236083984375,2.421705961227417
1713358424353886500,7.016886474609375,3.187814474105835,1.1137514114379883,2.4369442462921143
1713358424363835100,7.026835205078125,3.885313034057617,1.5259618759155273,2.3365495204925537
1713358424373814500,7.036814453125,4.142751693725586,1.5731945037841797,2.3122758865356445
1713358424383793700,7.046793701171875,4.465849876403809,1.460287094116211,2.047100067138672
1713358424393742300,7.056742431640625,4.002554893493652,1.2630815505981445,2.0709033012390137
1713358424403721700,7.0667216796875,3.2740070819854736,0.6027374267578125,2.123875379562378
1713358424413700900,7.076700927734375,2.7347540855407715,-0.5125150680541992,2.111872434616089
1713358424423680300,7.08668017578125,2.881291627883911,-1.2682514190673828,2.0679407119750977
1713358424433629000,7.09662890625,2.6623706817626953,-1.7000932693481445,2.267768383026123
1713358424443608000,7.106608154296875,2.7663497924804688,-2.034306526184082,2.771211624145508
1713358424453587500,7.11658740234375,2.2139949798583984,-2.4308347702026367,3.0668110847473145
1713358424463566600,7.126566650390625,0.4338805675506592,-2.433683395385742,3.3699874877929688
1713358424473515300,7.136515380859375,-1.7840697765350342,-2.5492448806762695,2.9003496170043945
1713358424483494700,7.14649462890625,-2.759153366088867,-2.763317108154297,1.9484152793884277
1713358424493473800,7.156473876953125,-2.4687836170196533,-2.560978889465332,0.06758487224578857
1713358424503422500,7.16642236328125,-1.432568073272705,-1.863840103149414,-1.8189607858657837
1713358424513401900,7.17640185546875,-0.31678104400634766,-1.0896873474121094,-3.2760581970214844
1713358424523381000,7.186381103515625,-0.07252025604248047,-0.6012887954711914,-4.931426525115967
1713358424533330000,7.196329833984375,-0.3604710102081299,-0.3217201232910156,-6.416037559509277
1713358424543309000,7.20630908203125,-0.6524573564529419,0.1813335418701172,-7.249904632568359
1713358424553288200,7.2162880859375,-0.6393146514892578,1.2052927017211914,-7.299394607543945
1713358424563237000,7.226237060546875,-0.9225156307220459,2.1026611328125,-6.6667094230651855
1713358424573216300,7.23621630859375,-1.644938349723816,2.5402917861938477,-5.453457832336426
1713358424583195600,7.246195556640625,-2.0561025142669678,2.4373741149902344,-3.3504714965820312
1713358424593144300,7.256144287109375,-1.979933261871338,1.7808332443237305,-1.443878412246704
1713358424603123500,7.26612353515625,-1.8246939182281494,0.567082405090332,-0.6178605556488037
1713358424613102800,7.276102783203125,-1.3770287036895752,-1.0284051895141602,0.05291450023651123
1713358424623051500,7.286051513671875,-1.11720871925354,-2.7544116973876953,0.47088778018951416
1713358424633030700,7.29603076171875,-1.5883148908615112,-4.004761695861816,1.093799352645874
1713358424642979600,7.3059794921875,-3.289503574371338,-4.212846755981445,1.8956201076507568
1713358424652958700,7.315958740234375,-5.585983753204346,-3.59792423248291,1.7656123638153076
1713358424662937900,7.325937744140625,-7.083901405334473,-2.871847152709961,1.2873401641845703
1713358424672886800,7.33588671875,-7.3191304206848145,-2.33145809173584,1.1597559452056885
1713358424682866000,7.345865966796875,-7.3170976638793945,-1.4304275512695312,0.7868252396583557
1713358424692845300,7.35584521484375,-6.519705772399902,-0.7545413970947266,0.6156632900238037
1713358424702824400,7.365824462890625,-4.509269714355469,-0.2708902359008789,0.44361624121665955
1713358424712773000,7.375773193359375,-1.752076268196106,0.3591766357421875,0.5987259149551392
1713358424722752500,7.38575244140625,0.5864732265472412,0.8339967727661133,0.45903974771499634
1713358424732731600,7.395731689453125,2.14670991897583,1.1467571258544922,0.2920302152633667
1713358424742710800,7.405710693359375,2.7329912185668945,1.3720178604125977,0.37160754203796387
1713358424752659700,7.41565966796875,2.4001941680908203,1.758326530456543,0.7351888418197632
1713358424762638800,7.425638916015625,1.8493242263793945,2.12595272064209,0.978182315826416
1713358424772618200,7.4356181640625,0.9739535450935364,2.2096080780029297,0.5201743841171265
1713358424782567000,7.44556689453125,0.3328280746936798,2.136688232421875,-0.14127318561077118
1713358424792546000,7.455546142578125,-0.0049873292446136475,2.158496856689453,-0.7936556339263916
1713358424802525400,7.465525390625,-0.17282861471176147,2.2152042388916016,-1.115414023399353
1713358424812474000,7.47547412109375,-0.42369595170021057,2.046454429626465,-0.9492993354797363
1713358424822453200,7.485453369140625,-0.4331631660461426,1.717306137084961,-0.8413921594619751
1713358424832432600,7.4954326171875,-0.5318267941474915,1.4792108535766602,-1.0177642107009888
1713358424842381300,7.50538134765625,-0.7688331604003906,1.306544303894043,-1.2505650520324707
1713358424852360400,7.5153603515625,-1.2588181495666504,1.3360958099365234,-1.2711654901504517
1713358424862339800,7.52533984375,-1.5701689720153809,1.5297231674194336,-1.1545923948287964
1713358424872288500,7.53528857421875,-1.551620364189148,1.7199316024780273,-0.9998233914375305
1713358424882268000,7.545267822265625,-1.3551875352859497,1.9543380737304688,-0.8921681642532349
1713358424892247000,7.5552470703125,-1.088279366493225,2.1920347213745117,-0.8226996064186096
1713358424902195700,7.56519580078125,-0.10437989234924316,2.408867835998535,-0.9649876356124878
1713358424912175000,7.575175048828125,0.1389283537864685,2.4421072006225586,-0.8940930366516113
1713358424922123800,7.585123779296875,0.40562325716018677,2.4637060165405273,-0.49447911977767944
1713358424932103000,7.59510302734375,0.6213224530220032,2.351803779602051,-0.025126099586486816
1713358424942082300,7.605082275390625,0.8705542683601379,2.0828943252563477,0.5887004137039185
1713358424952031000,7.615031005859375,1.215193271636963,1.6859121322631836,1.5023605823516846
1713358424962010000,7.625010009765625,1.6438360214233398,1.175210952758789,2.745708465576172
1713358424971989500,7.634989501953125,2.0684053897857666,0.6912689208984375,4.26407527923584
1713358424981968600,7.64496875,2.2716455459594727,0.2930135726928711,5.641371726989746
1713358424991917600,7.65491748046875,1.754784345626831,-0.2206439971923828,6.259547710418701
1713358425001896700,7.664896728515625,0.8255106806755066,-0.4672279357910156,6.114299297332764
1713358425011875800,7.674875732421875,-0.46509960293769836,-1.0844802856445312,4.733603477478027
1713358425021855200,7.684855224609375,-1.5897608995437622,-2.0157594680786133,3.0471835136413574
1713358425031804000,7.694803955078125,-1.7567312717437744,-2.555622100830078,1.7381913661956787
1713358425041783300,7.704783203125,-0.6479630470275879,-2.595881462097168,0.35482263565063477
1713358425051762400,7.714762451171875,0.032051533460617065,-2.937528610229492,-1.5946521759033203
1713358425061711000,7.724711181640625,0.16431522369384766,-3.146768569946289,-1.9987809658050537
1713358425071690500,7.7346904296875,0.9570468068122864,-2.831303596496582,-1.379945158958435
1713358425081669600,7.744669677734375,2.6531920433044434,-1.8371458053588867,0.7881622910499573
1713358425091618300,7.754618408203125,4.328012943267822,-0.9859809875488281,3.5017189979553223
1713358425101597700,7.76459765625,4.727744102478027,-1.0160388946533203,5.500810146331787
1713358425111576800,7.774576904296875,2.556097984313965,-3.028275489807129,6.033916473388672
1713358425121525500,7.784525390625,-0.2994203567504883,-5.886798858642578,6.050366401672363
1713358425131505000,7.7945048828125,-1.0762814283370972,-7.362658500671387,2.9877283573150635
1713358425141484000,7.804484130859375,-2.100564479827881,-7.73867130279541,-1.6746652126312256
1713358425151432700,7.8144326171875,-3.294673204421997,-7.679814338684082,-6.477428913116455
1713358425161412000,7.824412109375,-4.234162330627441,-5.22568416595459,-10.036100387573242
1713358425171391200,7.83439111328125,-4.399723529815674,0.12257194519042969,-8.772194862365723
1713358425181340200,7.844340087890625,-3.2799112796783447,3.218144416809082,-4.199758529663086
1713358425191319300,7.8543193359375,-2.20984148979187,3.186051368713379,-1.8652937412261963
1713358425201268000,7.86426806640625,-0.9459414482116699,1.8300857543945312,-0.7197688817977905
1713358425211247400,7.874247314453125,-0.7925918698310852,0.8083324432373047,0.6050518751144409
1713358425221226500,7.8842265625,-1.0216295719146729,0.04358100891113281,1.0642564296722412
1713358425231175200,7.894175048828125,-1.1664224863052368,-0.5644521713256836,0.38072168827056885
1713358425241154600,7.904154541015625,-1.342367172241211,-0.716792106628418,-1.2778292894363403
1713358425251133700,7.9141337890625,-1.2531664371490479,-0.4978456497192383,-2.72186279296875
1713358425261082400,7.924082275390625,-0.528708815574646,-0.2069244384765625,-4.228586673736572
1713358425271061800,7.934061767578125,-0.09093397855758667,-0.21204280853271484,-5.674013614654541
1713358425281041000,7.944041015625,-0.4374043345451355,-0.3218345642089844,-6.556668758392334
1713358425291020300,7.954020263671875,-0.6292449235916138,0.034641265869140625,-6.604557514190674
1713358425300999400,7.96399951171875,-0.15986651182174683,0.7231292724609375,-5.920374870300293
1713358425310948000,7.973947998046875,0.631859540939331,1.4067726135253906,-4.883476257324219
1713358425320927500,7.983927490234375,1.1789156198501587,1.970590591430664,-3.48606276512146
1713358425330914800,7.993914794921875,1.3708045482635498,2.307008743286133,-2.3177409172058105
1713358425340863500,8.003863525390624,1.210121512413025,2.3253211975097656,-1.447243094444275
1713358425350842600,8.013842529296875,0.7840216159820557,2.028111457824707,-0.9975387454032898
1713358425360822000,8.023822021484374,0.4821348190307617,1.5495576858520508,-1.11279296875
1713358425370770700,8.033770751953124,0.32455742359161377,1.0573596954345703,-1.299670696258545
1713358425380749800,8.043749755859375,0.31457674503326416,0.6045494079589844,-1.4132877588272095
1713358425390729200,8.053729248046874,0.5307149887084961,0.24640941619873047,-1.4244954586029053
1713358425400678000,8.063677978515624,0.6220072507858276,0.2791595458984375,-1.5077378749847412
1713358425410657000,8.073656982421875,0.4122748374938965,0.5989618301391602,-1.0970805883407593
1713358425420636400,8.083636474609374,0.2843625545501709,0.9684133529663086,-0.632012128829956
1713358425430585000,8.093585205078124,-0.09926450252532959,1.2696857452392578,-0.1747065782546997
1713358425440564500,8.103564453125,-0.37721312046051025,1.2849206924438477,0.24790334701538086
1713358425450513200,8.11351318359375,-0.5754091739654541,1.1933317184448242,0.24641959369182587
1713358425460492300,8.1234921875,-0.5674490928649902,0.896942138671875,0.2544432282447815
1713358425470471700,8.1334716796875,-0.5064330101013184,0.6684465408325195,0.331354022026062
1713358425480420400,8.14342041015625,-0.1167227029800415,0.5367221832275391,0.3933757543563843
1713358425490399500,8.1533994140625,0.357277512550354,0.3827095031738281,0.5761284828186035
1713358425500379000,8.16337890625,0.8022019863128662,0.42227649688720703,0.5004997253417969
1713358425510327600,8.17332763671875,1.0822603702545166,0.5525989532470703,0.6010592579841614
1713358425520306700,8.183306640625,1.0091670751571655,0.7612504959106445,0.5806769728660583
1713358425530286000,8.1932861328125,0.7571592330932617,0.8754501342773438,0.5436025261878967
1713358425540234800,8.20323486328125,0.3755584955215454,0.9521303176879883,0.6714125275611877
1713358425550214100,8.213214111328124,0.11790132522583008,0.8714437484741211,0.7781033515930176
1713358425560193300,8.223193359375,0.03232896327972412,0.7862787246704102,0.9101950526237488
1713358425570172400,8.23317236328125,0.09595763683319092,0.6894426345825195,1.1841152906417847
1713358425580151800,8.24315185546875,0.26006531715393066,0.49016284942626953,1.5123752355575562
1713358425590100500,8.2531005859375,0.53196120262146,0.3585224151611328,1.8910353183746338
1713358425600080000,8.263079833984374,0.7971458435058594,0.18485069274902344,2.0467381477355957
1713358425610059000,8.27305908203125,1.1289899349212646,0.20639705657958984,2.2122881412506104
1713358425620007700,8.283007568359375,1.6815881729125977,0.2445087432861328,2.1447017192840576
1713358425629987000,8.292987060546874,2.0801520347595215,0.13675403594970703,1.917690634727478
1713358425639966200,8.30296630859375,2.6734068393707275,0.28515052795410156,1.707005500793457
1713358425649915000,8.312914794921875,3.1335461139678955,0.38908958435058594,1.555556058883667
1713358425659894300,8.322894287109374,3.224212169647217,0.2701911926269531,1.4415385723114014
1713358425669873400,8.332873291015625,3.5435891151428223,0.19709205627441406,1.2364113330841064
1713358425679822000,8.342822021484375,3.534213066101074,0.024684906005859375,1.4313069581985474
1713358425689801500,8.352801513671874,3.117605686187744,-0.4456815719604492,1.6444363594055176
1713358425699780600,8.362780517578125,2.7751550674438477,-0.7809057235717773,1.9449784755706787
1713358425709729300,8.372729248046875,2.5730161666870117,-1.0658702850341797,1.8217947483062744
1713358425719708700,8.382708740234374,2.296523332595825,-1.2409400939941406,1.8989509344100952
1713358425729657300,8.3926572265625,3.423428535461426,-1.4980669021606445,1.299602746963501
1713358425739636700,8.40263671875,3.7373197078704834,-1.6120195388793945,1.7189254760742188
1713358425749615900,8.412615966796874,3.9211597442626953,-1.5826358795166016,1.6023495197296143
1713358425759564500,8.422564453125,3.0726070404052734,-1.1178646087646484,1.9035762548446655
1713358425769544000,8.4325439453125,1.5021343231201172,-0.45238685607910156,1.8802372217178345
1713358425779523000,8.442523193359374,0.017783164978027344,-0.28359127044677734,1.6960148811340332
1713358425789471700,8.4524716796875,-1.2332544326782227,-0.8150596618652344,1.1310327053070068
1713358425799451100,8.462451171875,-1.544492244720459,-1.565460205078125,-0.2568097710609436
1713358425809430300,8.47243017578125,-1.2814900875091553,-1.8332366943359375,-1.4529683589935303
1713358425819379000,8.48237890625,-0.9454970359802246,-1.6283369064331055,-2.487802505493164
1713358425829358300,8.4923583984375,-0.6100480556488037,-1.0184926986694336,-3.329345703125
1713358425839337500,8.50233740234375,-0.5960673093795776,-0.3055076599121094,-4.021234512329102
1713358425849316900,8.51231689453125,-0.8396636247634888,0.3187894821166992,-4.637207508087158
1713358425859265500,8.522265625,-1.245088815689087,0.7955474853515625,-5.290273666381836
1713358425869244700,8.53224462890625,-1.799301266670227,1.209397315979004,-5.373892784118652
1713358425879224000,8.54222412109375,-2.1375513076782227,1.3536033630371094,-5.011499404907227
1713358425889203200,8.552203125,-2.1446354389190674,1.1617584228515625,-3.9455714225769043
1713358425899152100,8.562152099609374,-2.3938050270080566,0.28812599182128906,-2.977750301361084
1713358425909131300,8.57213134765625,-1.9889535903930664,-0.9738178253173828,-2.190925359725952
1713358425919110400,8.5821103515625,-1.3950555324554443,-2.202230453491211,-1.2757734060287476
1713358425929059300,8.592059326171874,-0.9513934850692749,-3.327882766723633,-0.15767168998718262
1713358425939038500,8.60203857421875,-1.2142159938812256,-3.9910717010498047,0.9495717287063599
1713358425949017900,8.612017822265624,-2.573202610015869,-3.9333744049072266,1.651019811630249
1713358425958966500,8.621966552734374,-4.7570366859436035,-3.538358688354492,1.6770431995391846
1713358425968945700,8.631945556640625,-6.873688697814941,-3.425522804260254,1.5661776065826416
1713358425978925000,8.641925048828124,-7.926242828369141,-3.136336326599121,2.428595542907715
1713358425988873700,8.651873779296874,-8.188040733337402,-2.2235918045043945,2.923074960708618
1713358425998852900,8.661852783203125,-7.237313747406006,-1.7445402145385742,2.0496268272399902
1713358426008801800,8.6718017578125,-5.288707256317139,-1.5214347839355469,1.317337989807129
1713358426018781000,8.681781005859374,-2.4589638710021973,-1.169663429260254,0.6660020351409912
1713358426028760000,8.691760009765625,-0.28275761008262634,-0.7272462844848633,-0.04803076386451721
1713358426038709000,8.701708984375,1.9067226648330688,-0.21172237396240234,0.1518174707889557
1713358426048688000,8.711688232421874,2.139995813369751,0.0857553482055664,0.7707059979438782
1713358426058667300,8.721667236328125,1.4175465106964111,0.7009639739990234,0.6190342903137207
1713358426068616200,8.7316162109375,0.7659995555877686,1.5449819564819336,0.7088449597358704
1713358426078595300,8.74159521484375,0.22542795538902283,2.2615699768066406,0.7663654088973999
1713358426088574700,8.75157470703125,-0.06754463911056519,2.643317222595215,0.8341380953788757
1713358426098523400,8.7615234375,-0.4119434952735901,2.727023124694824,0.4450136423110962
1713358426108502500,8.77150244140625,-0.5568451881408691,2.9720897674560547,0.09362649917602539
1713358426118482000,8.78148193359375,-0.6708420515060425,3.211155891418457,-0.3021603226661682
1713358426128461000,8.7914609375,-0.7956666946411133,3.258319854736328,-0.5913323163986206
1713358426138409700,8.80140966796875,-0.7501747012138367,3.104830741882324,-1.0215725898742676
1713358426148389000,8.81138916015625,-0.5587466359138489,2.856625556945801,-1.5556912422180176
1713358426158368300,8.8213681640625,-0.3758801817893982,2.66013240814209,-2.062838315963745
1713358426168347600,8.83134765625,-0.4078761339187622,2.436701774597168,-2.2274227142333984
1713358426178296300,8.84129638671875,-0.7733389735221863,2.1554222106933594,-2.091160535812378
1713358426188275500,8.851275390625,-0.704177737236023,1.9335689544677734,-2.0534465312957764
1713358426198254800,8.8612548828125,-0.37922096252441406,2.0263233184814453,-1.744755506515503
1713358426208203500,8.87120361328125,-0.1846557855606079,2.1506853103637695,-1.2868551015853882
1713358426218182700,8.8811826171875,-0.1012769341468811,2.1558303833007812,-0.9713993668556213
1713358426228162000,8.891162109375,0.13332867622375488,2.1206493377685547,-0.522005558013916
1713358426238110700,8.90111083984375,0.3523220419883728,1.975870132446289,0.11008897423744202
1713358426248090000,8.911090087890624,0.7435169816017151,1.7527217864990234,0.7448856830596924
1713358426258038800,8.921038818359374,1.1570885181427002,1.470219612121582,1.4779492616653442
1713358426268018000,8.931017822265625,1.6097174882888794,1.1735076904296875,2.4820077419281006
1713358426277997300,8.940997314453124,1.9256073236465454,0.8598661422729492,3.7539615631103516
1713358426287946000,8.950946044921874,1.9184401035308838,0.5435667037963867,4.824894428253174
1713358426297925000,8.960925048828125,1.5028325319290161,0.14829158782958984,5.214695930480957
1713358426307904500,8.970904541015624,0.9097485542297363,-0.26584720611572266,5.05587911605835
1713358426317853200,8.980853271484374,0.11807790398597717,-0.8776054382324219,4.609340190887451
1713358426327832300,8.990832275390625,-0.4870400130748749,-1.784219741821289,3.856559991836548
1713358426337811700,9.000811767578124,0.13043814897537231,-2.2115659713745117,2.786083221435547
1713358426347760400,9.010760498046874,0.8598141670227051,-2.65543270111084,1.2403357028961182
1713358426357739800,9.02073974609375,0.9203197360038757,-3.3325624465942383,0.3205054700374603
1713358426367719000,9.030718994140624,0.8609455823898315,-3.8115129470825195,0.2844133675098419
1713358426377667600,9.04066748046875,1.0547500848770142,-3.406764030456543,1.4477126598358154
1713358426387647000,9.05064697265625,1.8807587623596191,-2.8112735748291016,3.4863405227661133
1713358426397626000,9.060626220703124,2.917473316192627,-3.1109228134155273,5.039151191711426
1713358426407605500,9.07060546875,2.160795211791992,-4.323326110839844,5.791166305541992
1713358426417554200,9.08055419921875,-0.688626766204834,-6.035275459289551,5.838014125823975
1713358426427533300,9.090533203125,-2.3873493671417236,-7.2650299072265625,2.9213993549346924
1713358426437512700,9.1005126953125,-2.54905366897583,-7.170831680297852,-0.8941759467124939
1713358426447491800,9.110491943359374,-1.9209082126617432,-6.452173233032227,-4.1690287590026855
1713358426457440500,9.1204404296875,-0.6594754457473755,-5.17453670501709,-8.106388092041016
1713358426467420000,9.130419921875,-1.7074240446090698,-1.2858304977416992,-9.471434593200684
1713358426477399000,9.14039892578125,-2.892371416091919,2.714056968688965,-6.148840427398682
1713358426487347700,9.15034765625,-2.984064817428589,4.165348052978516,-2.7551918029785156
1713358426497327000,9.1603271484375,-2.373408079147339,3.264677047729492,-0.6199747323989868
1713358426507306200,9.17030615234375,-1.5257303714752197,1.6771697998046875,1.2779439687728882
1713358426517255000,9.1802548828125,-0.9077845215797424,-0.125,2.1676907539367676
1713358426527234300,9.190234375,-0.8932651281356812,-1.0301513671875,1.8360708951950073
1713358426537183000,9.200182861328125,-1.926865816116333,-0.8969659805297852,0.6338106393814087
1713358426547162400,9.210162353515624,-2.4605400562286377,-0.34601593017578125,-1.546058177947998
1713358426557141500,9.2201416015625,-1.4275171756744385,0.2777090072631836,-3.048637866973877
1713358426567090200,9.230090087890625,-0.4448035955429077,0.6824779510498047,-4.160914421081543
1713358426577069600,9.240069580078124,0.07831186056137085,0.7086248397827148,-5.30850076675415
1713358426587048700,9.250048583984375,0.489287793636322,0.46041393280029297,-6.77934455871582
1713358426596997400,9.259997314453125,0.6195167303085327,0.6080551147460938,-7.206915855407715
1713358426606976800,9.269976806640624,1.0066744089126587,1.2660436630249023,-7.173774719238281
1713358426616956000,9.279955810546875,1.408084511756897,1.979391098022461,-6.148471355438232
1713358426626904600,9.289904541015625,1.5740642547607422,2.5037803649902344,-4.484732627868652
1713358426636884000,9.299884033203124,1.3765637874603271,2.7937097549438477,-3.0204248428344727
1713358426646863000,9.309863037109375,1.266188621520996,2.5866470336914062,-2.1196701526641846
1713358426656812000,9.31981201171875,0.9311597347259521,1.9789304733276367,-1.7167184352874756
1713358426666791200,9.329791259765624,0.2668823003768921,1.216975212097168,-1.612706184387207
1713358426676770300,9.339770263671875,-0.18646514415740967,0.4513816833496094,-1.4669934511184692
1713358426686719200,9.34971923828125,0.00565028190612793,-0.1262836456298828,-1.6350038051605225
1713358426696698400,9.359698486328124,0.31611168384552,-0.3223533630371094,-1.5415654182434082
1713358426706677800,9.369677734375,0.38027501106262207,-0.1851053237915039,-1.408569574356079
1713358426716657000,9.379656982421874,0.12832355499267578,0.01682567596435547,-1.077072024345398
1713358426726636000,9.389635986328125,-0.11997103691101074,0.3014984130859375,-0.65345698595047
1713358426736585000,9.3995849609375,-0.26097822189331055,0.43389320373535156,-0.14511194825172424
1713358426746564000,9.409564208984374,-0.2996842861175537,0.47382068634033203,0.19203072786331177
1713358426756512800,9.4195126953125,-0.3328167200088501,0.5694723129272461,0.23328723013401031
1713358426766492200,9.4294921875,-0.36724352836608887,0.4627809524536133,0.5188982486724854
1713358426776471300,9.43947119140625,-0.22193872928619385,0.49576759338378906,0.49431145191192627
1713358426786420000,9.449419921875,-0.051915645599365234,0.7040796279907227,0.6222572326660156
1713358426796399400,9.4593994140625,0.21674835681915283,1.0659713745117188,0.7985354065895081
1713358426806378500,9.46937841796875,0.4717381000518799,1.5860557556152344,1.0455538034439087
1713358426816327400,9.479327392578124,0.5480369329452515,2.130178451538086,1.3686864376068115
1713358426826306600,9.489306640625,0.5347076654434204,2.533322334289551,1.5990612506866455
1713358426836285700,9.49928564453125,0.46662402153015137,2.6813697814941406,1.8100146055221558
1713358426846234600,9.509234619140624,0.5012506246566772,2.565751075744629,1.7507330179214478
1713358426856213800,9.5192138671875,0.586309552192688,2.024966239929199,1.454310655593872
1713358426866193200,9.529193115234374,0.39347100257873535,1.1243095397949219,0.9727047085762024
1713358426876141800,9.539141845703124,0.11215698719024658,0.19095993041992188,0.5858787894248962
1713358426886121000,9.549120849609375,-0.19795310497283936,-0.845210075378418,0.4413752555847168
1713358426896100400,9.559100341796874,-0.22528290748596191,-1.8195714950561523,0.3682247996330261
1713358426906049000,9.569049072265624,-0.07223892211914062,-2.631866455078125,0.5175718069076538
1713358426916028200,9.579028076171875,0.36858630180358887,-2.8043622970581055,0.9895106554031372
1713358426926007600,9.589007568359374,1.054969072341919,-2.552474021911621,1.5262815952301025
1713358426935956200,9.598956298828124,1.821986436843872,-2.0861454010009766,1.9981660842895508
1713358426945935400,9.608935302734375,2.803739547729492,-1.3500595092773438,2.1723580360412598
1713358426955914800,9.618914794921874,3.3135218620300293,-0.4682273864746094,2.5287976264953613
1713358426965863400,9.628863525390624,3.723330497741699,0.4667081832885742,2.8041319847106934
1713358426975842600,9.638842529296875,3.8466379642486572,1.1301956176757812,2.7863223552703857
1713358426985822000,9.648822021484374,3.6372509002685547,1.441807746887207,2.899585247039795
1713358426995801000,9.658801025390625,3.073904037475586,1.0887651443481445,3.005329132080078
1713358427005750000,9.66875,2.6115450859069824,0.19353866577148438,2.8513035774230957
1713358427015729200,9.678729248046874,2.4830517768859863,-1.0473299026489258,2.1950926780700684
1713358427025708300,9.688708251953125,2.6981701850891113,-1.7134981155395508,1.4646437168121338
1713358427035657200,9.6986572265625,3.4241161346435547,-2.0273609161376953,0.8788065314292908
1713358427045636400,9.70863623046875,3.9666895866394043,-2.2257490158081055,0.8529806733131409
1713358427055615700,9.71861572265625,4.34763240814209,-2.1506147384643555,0.7038695216178894
1713358427065564400,9.728564453125,3.740422248840332,-1.904313087463379,0.9683520793914795
1713358427075543600,9.73854345703125,2.5271856784820557,-1.4144668579101562,1.436903715133667
1713358427085523000,9.74852294921875,1.1865828037261963,-0.8355798721313477,1.7868839502334595
1713358427095471600,9.7584716796875,-0.1904151439666748,-0.3672189712524414,1.9777259826660156
1713358427105450800,9.76845068359375,-1.0536394119262695,-0.5177927017211914,1.3056272268295288
1713358427115430100,9.77843017578125,-1.2801830768585205,-0.9701404571533203,-0.23119795322418213
1713358427125378800,9.78837890625,-1.2093565464019775,-0.6595211029052734,-1.4610114097595215
1713358427135358000,9.79835791015625,-1.213441014289856,0.26309680938720703,-2.4684500694274902
1713358427145337300,9.80833740234375,-1.3945095539093018,0.9888839721679688,-3.2292799949645996
1713358427155286000,9.8182861328125,-1.5085408687591553,1.6392745971679688,-3.863358497619629
1713358427165265400,9.828265380859374,-1.5932731628417969,2.0913076400756836,-4.499642848968506
1713358427175244500,9.83824462890625,-1.7044107913970947,2.275951385498047,-4.92415714263916
1713358427185193200,9.848193115234375,-1.7218073606491089,2.1106834411621094,-4.684431552886963
1713358427195172600,9.858172607421874,-1.562400221824646,1.4830808639526367,-4.280327796936035
1713358427205151700,9.86815185546875,-1.5948892831802368,0.33899879455566406,-3.3410987854003906
1713358427215100400,9.878100341796875,-1.5018510818481445,-1.195897102355957,-2.490070104598999
1713358427225079800,9.888079833984374,-1.2484184503555298,-2.7952184677124023,-1.4440728425979614
1713358427235059000,9.898058837890625,-0.7678544521331787,-4.138515472412109,-0.24265062808990479
1713358427245007600,9.908007568359375,-0.7924758195877075,-4.9643449783325195,0.9441563487052917
1713358427254987000,9.917987060546874,-2.7085561752319336,-5.057957649230957,1.7306416034698486
1713358427264966100,9.927966064453125,-6.186308860778809,-4.401534080505371,1.8216357231140137
1713358427274915000,9.9379150390625,-8.630163192749023,-3.7363595962524414,1.6190719604492188
1713358427284894200,9.947894287109374,-8.925149917602539,-3.2013044357299805,1.7234941720962524
1713358427294873300,9.957873291015625,-8.743693351745605,-2.2525644302368164,1.98390793800354
1713358427304852700,9.967852783203124,-7.664413928985596,-1.741140365600586,1.820298194885254
1713358427314801400,9.977801513671874,-5.62489128112793,-1.4587287902832031,1.0178226232528687
1713358427324780500,9.987780517578125,-2.7226500511169434,-1.0617713928222656,0.5430455803871155
1713358427334760000,9.997760009765624,0.4878495931625366,-0.5674104690551758,-0.02267301082611084
1713358427344708600,10.00770849609375,2.0593314170837402,0.00438690185546875,-0.5216151475906372
1713358427354688000,10.01768798828125,2.9204769134521484,0.5249176025390625,0.20901334285736084
1713358427364667100,10.027667236328124,2.3784854412078857,1.0805835723876953,0.06723889708518982
1713358427374615800,10.03761572265625,1.7958732843399048,1.724045753479004,0.43624255061149597
1713358427384595200,10.04759521484375,0.854118287563324,2.108883857727051,0.4461178779602051
1713358427394574300,10.05757421875,-0.08837264776229858,2.111748695373535,0.0548722967505455
1713358427404523000,10.06752294921875,-0.5589589476585388,2.309361457824707,-0.09558156877756119
1713358427414502400,10.07750244140625,-0.7096391916275024,2.448084831237793,-0.1793840527534485
1713358427424481500,10.0874814453125,-0.9854179620742798,2.251016616821289,-0.28480929136276245
1713358427434430200,10.09743017578125,-0.9960735440254211,2.072697639465332,-0.5398766994476318
1713358427444409600,10.10740966796875,-0.9443625211715698,1.9588489532470703,-0.9838131666183472
1713358427454388700,10.117388671875,-0.9982300996780396,1.9865922927856445,-1.347338318824768
1713358427464337700,10.127337646484374,-1.6731934547424316,1.9345226287841797,-1.5400253534317017
1713358427474316800,10.13731689453125,-1.9732065200805664,2.013551712036133,-1.4086251258850098
1713358427484296000,10.1472958984375,-1.9677348136901855,1.979720115661621,-1.0000001192092896
1713358427494244900,10.157244873046874,-1.5205714702606201,2.1362667083740234,-0.8069853186607361
1713358427504224000,10.16722412109375,-0.5238573551177979,2.324796676635742,-0.8054307699203491
1713358427514203400,10.177203369140624,0.2111228108406067,2.485044479370117,-0.6905926465988159
1713358427524152000,10.187152099609374,0.5419937372207642,2.4995479583740234,-0.3816068172454834
1713358427534131200,10.197131103515625,0.7834200859069824,2.4354372024536133,0.11410999298095703
1713358427544110600,10.207110595703124,1.1103099584579468,2.3428306579589844,0.7477396130561829
1713358427554059300,10.217059326171874,1.5023131370544434,2.12606143951416,1.4639445543289185
1713358427564038400,10.227038330078125,1.8221380710601807,1.8783674240112305,2.2911598682403564
1713358427574017800,10.237017822265624,2.1046040058135986,1.649733543395996,3.3436551094055176
1713358427583997000,10.246996826171875,2.1907248497009277,1.3347492218017578,4.5831074714660645
1713358427593945600,10.256945556640625,1.9721503257751465,0.8642654418945312,5.772116184234619
1713358427603925000,10.266925048828124,1.3793456554412842,0.3748950958251953,6.332093715667725
1713358427613904100,10.276904052734375,0.5991806983947754,-0.21428203582763672,6.044118404388428
1713358427623853000,10.28685302734375,-0.09996992349624634,-0.9433631896972656,5.040805816650391
1713358427633832200,10.296832275390624,-0.7925704121589661,-1.9384737014770508,3.6201767921447754
1713358427643811300,10.306811279296875,-1.1137113571166992,-2.723893165588379,2.210455894470215
1713358427653760300,10.31676025390625,-0.7953033447265625,-3.219064712524414,0.24789878726005554
1713358427663739400,10.326739501953124,-0.8485910892486572,-3.968499183654785,-1.978708028793335
1713358427673718800,10.33671875,-1.1177078485488892,-4.552159309387207,-2.937258243560791
1713358427683667500,10.34666748046875,-0.497749388217926,-4.050352096557617,-1.7757165431976318
1713358427693646600,10.356646484375,1.8508000373840332,-2.7580881118774414,0.726982057094574
1713358427703626000,10.3666259765625,4.555898666381836,-0.9440231323242188,3.7739248275756836
1713358427713574700,10.37657470703125,5.2715630531311035,0.1986379623413086,5.789342403411865
1713358427723553800,10.3865537109375,3.4910314083099365,-0.848851203918457,6.4676923751831055
1713358427733533200,10.396533203125,1.0593351125717163,-3.7041702270507812,6.538041591644287
1713358427743481900,10.40648193359375,0.8687113523483276,-5.702157020568848,4.922258377075195
1713358427753461000,10.4164609375,-0.5641522407531738,-6.9030656814575195,-0.17160946130752563
1713358427763440400,10.4264404296875,-4.304961204528809,-8.794617652893066,-6.87518835067749
1713358427773389000,10.43638916015625,-7.3334856033325195,-9.267855644226074,-11.58496379852295
1713358427783368200,10.4463681640625,-7.956172943115234,-4.075550079345703,-10.307807922363281
1713358427793347600,10.45634765625,-5.223240852355957,0.864293098449707,-6.3295183181762695
1713358427803296300,10.466296142578125,-1.4232783317565918,2.1094579696655273,-3.534726619720459
1713358427813275600,10.476275634765624,0.7493000030517578,2.2035789489746094,-1.2901049852371216
1713358427823254800,10.4862548828125,0.7089589834213257,2.060183525085449,0.5039805769920349
1713358427833172200,10.496172119140626,-0.12601238489151,2.1412010192871094,1.5057976245880127
1713358427843151600,10.506151611328125,-0.6153523325920105,2.0498294830322266,2.1607232093811035
1713358427853130800,10.516130859375,-1.0776550769805908,1.8870811462402344,1.755152940750122
1713358427863110100,10.526110107421875,-1.5611882209777832,1.9944992065429688,0.757426917552948
1713358427873058800,10.536058837890625,-1.5235421657562256,1.7290019989013672,-0.6229628324508667
1713358427883038000,10.546037841796876,-0.73807692527771,0.9319896697998047,-2.422301769256592
1713358427893017300,10.556017333984375,-0.017864882946014404,-0.04356575012207031,-4.273921966552734
1713358427902966000,10.565966064453125,0.222878098487854,-0.8484230041503906,-5.818854808807373
1713358427912945200,10.575945068359376,0.5290830135345459,-0.9664802551269531,-7.014537811279297
1713358427922924500,10.585924560546875,0.924700140953064,-0.19628334045410156,-7.220201015472412
1713358427932873200,10.595873291015625,1.1664549112319946,1.0108060836791992,-6.820611000061035
1713358427942852400,10.605852294921876,1.1242740154266357,1.9605255126953125,-5.709457874298096
1713358427952831700,10.615831787109375,0.884162187576294,2.375591278076172,-4.136302471160889
1713358427962780400,10.625780517578125,0.7990611791610718,2.397801399230957,-3.214366912841797
1713358427972759800,10.635759765625,0.7633126974105835,2.1858367919921875,-2.85530161857605
1713358427982739000,10.645739013671875,0.5212812423706055,1.9339542388916016,-2.535607099533081
1713358427992687600,10.6556875,0.30215537548065186,1.685225486755371,-2.125786781311035
1713358428002667000,10.6656669921875,0.7608294486999512,1.2346773147583008,-1.779599905014038
1713358428012646100,10.675646240234375,1.1241031885147095,0.7289819717407227,-1.4207665920257568
1713358428022594800,10.6855947265625,0.8490370512008667,0.21114253997802734,-0.9848050475120544
1713358428032574200,10.69557421875,0.22117161750793457,-0.11884212493896484,-0.7167651653289795
1713358428042553300,10.70555322265625,-0.4953615665435791,-0.38674068450927734,-0.44811302423477173
1713358428052502000,10.715501953125,-0.9719486236572266,-0.46929168701171875,-0.22892925143241882
1713358428062481400,10.7254814453125,-1.0591042041778564,-0.5822649002075195,0.4207339286804199
1713358428072460500,10.73546044921875,-0.9081188440322876,-0.42706871032714844,0.5921682119369507
1713358428082409500,10.745409423828125,-0.6062898635864258,-0.06402587890625,0.7339038848876953
1713358428092388600,10.755388671875,-0.24490320682525635,0.4230079650878906,0.9670624732971191
1713358428102367700,10.76536767578125,0.2678229808807373,0.9744558334350586,1.0216542482376099
1713358428112316700,10.775316650390625,0.8231950998306274,1.454665184020996,1.0302941799163818
1713358428122295800,10.7852958984375,1.218065857887268,1.7665863037109375,1.0112485885620117
1713358428132275200,10.795275146484375,1.2084730863571167,1.8725547790527344,0.9698067903518677
1713358428142254300,10.80525439453125,0.8978358507156372,1.7704954147338867,1.0420613288879395
1713358428152203000,10.815203125,0.41068291664123535,1.5606689453125,1.2193251848220825
1713358428162182400,10.825182373046875,-0.12088298797607422,1.1948747634887695,1.2599340677261353
1713358428172161500,10.83516162109375,-0.549720287322998,0.7302265167236328,1.4735095500946045
1713358428182110200,10.845110107421876,-0.7344427108764648,0.14048099517822266,1.5412979125976562
1713358428192089600,10.855089599609375,-0.8271050453186035,-0.4217491149902344,1.3075942993164062
1713358428202068700,10.86506884765625,-0.7740676403045654,-0.9023113250732422,1.0100098848342896
1713358428212017400,10.875017333984376,-0.3301447629928589,-1.2369203567504883,0.7839613556861877
1713358428221996800,10.884996826171875,0.5110595226287842,-1.3701190948486328,0.5978322625160217
1713358428231976000,10.894975830078126,1.214656114578247,-1.0074796676635742,0.701391875743866
1713358428241924600,10.904924560546876,1.5666277408599854,-0.4911947250366211,0.9612037539482117
1713358428251904000,10.914904052734375,2.0103864669799805,0.18082237243652344,1.193395733833313
1713358428261883100,10.924883056640626,2.3851704597473145,0.7652482986450195,1.5201618671417236
1713358428271832000,10.93483203125,3.069516897201538,1.1940374374389648,1.6734590530395508
1713358428281811200,10.944811279296875,3.828472137451172,1.4426546096801758,1.8708457946777344
1713358428291790300,10.954790283203126,4.473813056945801,1.5798416137695312,1.9712036848068237
1713358428301739300,10.9647392578125,4.647047996520996,1.558791160583496,2.0797293186187744
1713358428311718400,10.974718505859375,4.133862495422363,0.8613204956054688,2.2083792686462402
1713358428321697800,10.98469775390625,3.152073621749878,-0.000774383544921875,2.3143224716186523
1713358428331646500,10.994646484375,2.064558744430542,-0.9953289031982422,2.1437504291534424
1713358428341625600,11.00462548828125,1.410736083984375,-2.018238067626953,1.6922338008880615
1713358428351605000,11.01460498046875,1.2422406673431396,-2.6376352310180664,1.3482587337493896
1713358428361553700,11.0245537109375,1.3017528057098389,-2.7465362548828125,1.423879861831665
1713358428371532800,11.03453271484375,2.4773313999176025,-2.510464668273926,1.6885061264038086
1713358428381512200,11.04451220703125,3.037013292312622,-2.0527782440185547,2.108126640319824
1713358428391460900,11.0544609375,3.1902575492858887,-1.5725431442260742,2.4085347652435303
1713358428401440000,11.06443994140625,2.8466975688934326,-1.1088428497314453,2.632845401763916
1713358428411419400,11.07441943359375,2.0027248859405518,-0.7986688613891602,2.4952054023742676
1713358428421398500,11.0843984375,0.9897971153259277,-0.3338737487792969,1.978259563446045
1713358428431347500,11.094347412109375,0.2893345355987549,0.08514976501464844,1.2518956661224365
1713358428441326600,11.10432666015625,0.14146900177001953,0.08930778503417969,-0.06603139638900757
1713358428451305700,11.1143056640625,0.39514923095703125,0.34868431091308594,-1.5525343418121338
1713358428461254700,11.124254638671875,0.4791616201400757,0.861515998840332,-2.7616968154907227
1713358428471233800,11.13423388671875,0.3614768981933594,1.30352783203125,-3.6734888553619385
1713358428481213200,11.144213134765625,0.0392305850982666,1.6978740692138672,-4.275339603424072
1713358428491161900,11.154161865234375,-0.45525622367858887,1.8257341384887695,-4.832802772521973
1713358428501141000,11.16414111328125,-1.1789039373397827,1.4900665283203125,-5.285338401794434
1713358428511120400,11.174120361328125,-2.047487735748291,0.6664628982543945,-5.033951759338379
1713358428521069000,11.184069091796875,-2.2063632011413574,-0.5799579620361328,-4.57139253616333
1713358428531048200,11.194048095703126,-2.4071571826934814,-2.2248239517211914,-4.2810564041137695
1713358428541027600,11.204027587890625,-2.5978171825408936,-4.238811492919922,-3.5150580406188965
1713358428550976300,11.213976318359375,-2.033003807067871,-5.966538429260254,-2.3854174613952637
1713358428560955400,11.223955322265626,-1.7836796045303345,-6.73304557800293,-0.7584436535835266
1713358428570934800,11.233934814453125,-3.1295859813690186,-6.29979133605957,0.9739092588424683
1713358428580883500,11.243883544921875,-5.586004257202148,-5.213425636291504,1.7767177820205688
1713358428590862800,11.25386279296875,-7.831653594970703,-4.043658256530762,2.2679359912872314
1713358428600842000,11.263842041015625,-8.511331558227539,-2.8672361373901367,3.141126871109009
1713358428610790700,11.273790771484375,-8.465570449829102,-1.720841407775879,3.3575387001037598
1713358428620770000,11.28377001953125,-8.041812896728516,-1.145833969116211,2.33286452293396
1713358428630749200,11.293749267578125,-5.998166561126709,-0.8492879867553711,1.7810245752334595
1713358428640697900,11.30369775390625,-3.112232208251953,-0.4544486999511719,1.4647892713546753
1713358428650677200,11.31367724609375,-0.5479357242584229,0.021526336669921875,1.4654312133789062
1713358428660656400,11.323656494140625,0.9940772652626038,0.41037845611572266,0.906743049621582
1713358428670605000,11.33360498046875,1.5830180644989014,0.8224239349365234,0.8583013415336609
1713358428680584400,11.34358447265625,1.485778570175171,1.143519401550293,1.208469033241272
1713358428690563600,11.3535634765625,1.566847562789917,1.741806983947754,1.2929799556732178
1713358428700512300,11.36351220703125,1.5746780633926392,2.322688102722168,1.0328280925750732
1713358428710491600,11.37349169921875,1.4179720878601074,2.5184030532836914,0.4446582794189453
1713358428720470800,11.383470703125,1.0368539094924927,2.430400848388672,-0.03605265915393829
1713358428730450200,11.3934501953125,0.7685930728912354,2.4965038299560547,-0.27018487453460693
1713358428740398800,11.40339892578125,0.3662169575691223,2.5014896392822266,-0.586491048336029
1713358428750378000,11.4133779296875,-0.1128993034362793,2.4003725051879883,-0.6866565942764282
1713358428760357400,11.423357421875,-0.41421449184417725,2.3252601623535156,-1.069361925125122
1713358428770306000,11.43330615234375,-0.6396739482879639,2.229158401489258,-1.5320348739624023
1713358428780285400,11.443285400390625,-0.8131732940673828,2.2132740020751953,-1.8451117277145386
1713358428790264600,11.4532646484375,-1.0308113098144531,2.168058395385742,-1.9645342826843262
1713358428800213200,11.463213134765626,-1.237205982208252,2.1846275329589844,-1.909484624862671
1713358428810192600,11.473192626953125,-0.9020602703094482,2.3558835983276367,-1.7970569133758545
1713358428820171800,11.483171875,-0.44895660877227783,2.4733495712280273,-1.5189590454101562
1713358428830120400,11.493120361328126,0.08200269937515259,2.5797653198242188,-1.2403756380081177
1713358428840099800,11.503099853515625,0.4984155297279358,2.538677215576172,-1.0608975887298584
1713358428850079000,11.513078857421876,0.5659374594688416,2.4410953521728516,-0.9030309319496155
1713358428860027600,11.523027587890626,0.714310884475708,2.38485050201416,-0.4755821228027344
1713358428870007000,11.533007080078125,0.9913619160652161,2.199953079223633,0.10725551843643188
1713358428879986200,11.542986083984376,1.3129466772079468,1.855332374572754,0.8319340944290161
1713358428889935000,11.55293505859375,1.7315127849578857,1.4873237609863281,1.767869234085083
1713358428899914200,11.562914306640625,2.073995590209961,1.0982093811035156,2.9737319946289062
1713358428909893400,11.572893310546876,2.14036226272583,0.5515737533569336,4.295086860656738
1713358428919842300,11.58284228515625,1.862588882446289,-0.15481281280517578,5.185070991516113
1713358428929821400,11.592821533203125,1.2947089672088623,-0.7987136840820312,5.502687931060791
1713358428939770000,11.60277001953125,0.9449023008346558,-1.0533161163330078,5.212569713592529
1713358428949749500,11.61274951171875,0.18902677297592163,-1.4255914688110352,4.002506256103516
1713358428959728600,11.622728759765625,-0.8647280335426331,-1.8595342636108398,2.765184164047241
1713358428969677300,11.63267724609375,-1.1464743614196777,-1.7836570739746094,1.5127482414245605
1713358428979656700,11.64265673828125,-1.2439465522766113,-1.683497428894043,0.6470937728881836
1713358428989635800,11.6526357421875,-0.15338444709777832,-1.9597339630126953,-0.25240573287010193
1713358428999615200,11.662615234375,2.1694374084472656,-2.2266664505004883,-0.3745605945587158
1713358429009594400,11.672594482421875,4.565042972564697,-2.4444046020507812,1.0506560802459717
1713358429019543000,11.68254296875,5.831150531768799,-3.4265403747558594,3.2704992294311523
1713358429029522400,11.6925224609375,4.260110378265381,-5.509056091308594,4.368256568908691
1713358429039501600,11.70250146484375,1.1794779300689697,-7.9892730712890625,3.860713005065918
1713358429049450200,11.7124501953125,-1.5814863443374634,-8.545914649963379,1.878150224685669
1713358429059429600,11.7224296875,-4.097393989562988,-7.02994441986084,-1.132511854171753
1713358429069408800,11.73240869140625,-5.098740100860596,-5.887584686279297,-3.8662281036376953
1713358429079357700,11.742357666015625,-3.748115062713623,-5.034703254699707,-6.232234477996826
1713358429089336800,11.7523369140625,-2.724353075027466,-2.253209114074707,-5.9735493659973145
1713358429099316000,11.76231591796875,-1.9667503833770752,0.9423446655273438,-2.796832323074341
1713358429109265000,11.772264892578125,-1.8815767765045166,2.2025623321533203,-0.9786509871482849
1713358429119244000,11.782244140625,-1.574991226196289,1.5680913925170898,-0.04735654592514038
1713358429129223400,11.792223388671875,-1.2984344959259033,0.6151151657104492,0.7747552394866943
1713358429139172000,11.802172119140625,-1.4284489154815674,0.17545604705810547,0.7328015565872192
1713358429149151200,11.812151123046876,-1.6658951044082642,0.31182098388671875,0.3323044180870056
1713358429159130600,11.822130615234375,-2.147620439529419,0.21583175659179688,-1.0499937534332275
1713358429169079300,11.832079345703125,-2.2056562900543213,0.1318655014038086,-2.511446237564087
1713358429179058400,11.842058349609376,-1.6683096885681152,0.03361701965332031,-3.777716875076294
1713358429189037800,11.852037841796875,-0.9509767293930054,-0.0763692855834961,-4.804027080535889
1713358429198986500,11.861986572265625,-0.4744396209716797,-0.03061389923095703,-5.899076461791992
1713358429208965600,11.871965576171876,-0.21779584884643555,0.43589305877685547,-6.429946422576904
1713358429218945000,11.881945068359375,0.4063222408294678,1.3777618408203125,-6.54111385345459
1713358429228893700,11.891893798828125,0.9229331016540527,2.400118827819824,-5.812026500701904
1713358429238873000,11.901873046875,1.317213773727417,2.967349052429199,-4.905239105224609
1713358429248821800,11.91182177734375,1.2480981349945068,3.1132450103759766,-4.098217487335205
1713358429258801000,11.92180078125,1.1380274295806885,2.929159164428711,-3.4527196884155273
1713358429268780300,11.9317802734375,0.9278059601783752,2.508678436279297,-2.9208269119262695
1713358429278759400,11.941759521484375,0.6884657144546509,1.9833288192749023,-2.2525198459625244
1713358429288738800,11.95173876953125,0.3456878662109375,1.3364677429199219,-1.5276823043823242
1713358429298687500,11.9616875,0.42937469482421875,0.5926828384399414,-0.7889824509620667
1713358429308666600,11.97166650390625,0.7058871388435364,-0.022841453552246094,-0.35319241881370544
1713358429318646000,11.98164599609375,0.7287561297416687,-0.2928600311279297,-0.20790746808052063
1713358429328594700,11.9915947265625,0.31836163997650146,-0.12759876251220703,-0.16308002173900604
1713358429338573800,12.00157373046875,-0.25382089614868164,0.10608196258544922,0.03487114608287811
1713358429348553200,12.01155322265625,-0.7123790979385376,0.4050436019897461,0.08734658360481262
1713358429358502000,12.021501953125,-1.0601110458374023,0.5011510848999023,0.4072946310043335
1713358429368481000,12.03148095703125,-1.118515133857727,0.4233207702636719,0.3737170994281769
1713358429378460400,12.04146044921875,-0.8804376721382141,0.18401050567626953,0.3036336302757263
1713358429388409000,12.0514091796875,-0.41197800636291504,0.09925270080566406,0.4449692368507385
1713358429398388500,12.061388427734375,0.1230001449584961,0.2861309051513672,0.5660608410835266
1713358429408367600,12.07136767578125,0.5232889652252197,0.6202974319458008,0.7393754124641418
1713358429418316300,12.08131640625,0.8344376087188721,1.094635009765625,0.8453788757324219
1713358429428295700,12.091295654296875,0.8912400007247925,1.5751447677612305,0.8864482045173645
1713358429438274800,12.10127490234375,0.6780531406402588,1.8491268157958984,0.8817013502120972
1713358429448223500,12.111223388671876,0.2740166187286377,1.97650146484375,0.9522667527198792
1713358429458203000,12.121202880859375,-0.25531458854675293,1.8302545547485352,1.0197227001190186
1713358429468182000,12.13118212890625,-0.6233593225479126,1.498758316040039,1.081133246421814
1713358429478130700,12.141130615234376,-0.7242343425750732,1.0084075927734375,1.1604180335998535
1713358429488110000,12.151110107421875,-0.4734013080596924,0.27832603454589844,1.4386361837387085
1713358429498089200,12.161089111328126,-0.007731795310974121,-0.6118087768554688,1.8162771463394165
1713358429508038000,12.171037841796876,0.6239228248596191,-1.389017105102539,2.0116758346557617
1713358429518017300,12.181017333984375,0.9969269037246704,-1.8670845031738281,2.3808484077453613
1713358429527966000,12.190966064453125,1.2090195417404175,-1.8745431900024414,2.6877260208129883
1713358429537945300,12.2009453125,1.459010362625122,-1.457784652709961,2.782426595687866
1713358429547924500,12.210924560546875,1.835315227508545,-0.8416929244995117,2.6705803871154785
1713358429557903600,12.220903564453126,2.261000156402588,-0.3315401077270508,2.488717555999756
1713358429567852500,12.2308525390625,2.846585512161255,0.26988697052001953,2.2288215160369873
1713358429577831700,12.240831787109375,3.2337770462036133,0.7935695648193359,1.9691482782363892
1713358429587811000,12.25081103515625,3.4494221210479736,0.9558639526367188,1.6056499481201172
1713358429597790200,12.260790283203125,3.4738664627075195,0.8530340194702148,1.2947007417678833
1713358429607739000,12.27073876953125,3.3058104515075684,0.4062461853027344,1.210852861404419
1713358429617718300,12.28071826171875,2.946927785873413,-0.2914924621582031,1.187723994255066
1713358429627697400,12.290697509765625,2.5295724868774414,-1.0924034118652344,1.2146263122558594
1713358429637646000,12.30064599609375,2.5783932209014893,-1.580000877380371,1.3372539281845093
1713358429647625500,12.31062548828125,2.6998581886291504,-1.5860719680786133,1.1616504192352295
1713358429657604600,12.3206044921875,3.3260340690612793,-1.4453115463256836,1.44579017162323
1713358429667553300,12.33055322265625,3.758103132247925,-1.2472867965698242,1.5670195817947388
1713358429677532700,12.34053271484375,3.207550525665283,-1.043290138244629,1.8007087707519531
1713358429687511800,12.35051171875,1.6299653053283691,-0.8813390731811523,2.0304253101348877
1713358429697460700,12.360460693359375,-0.2464771270751953,-0.9583978652954102,2.297234058380127
1713358429707439900,12.37043994140625,-1.1386997699737549,-1.1967239379882812,2.2374916076660156
1713358429717419000,12.3804189453125,-1.160264015197754,-1.3611335754394531,1.9363837242126465
1713358429727368000,12.390367919921875,-0.5174063444137573,-1.0102243423461914,1.3074030876159668
1713358429737347000,12.40034716796875,0.21967566013336182,-0.01901531219482422,0.05174696445465088
1713358429747326500,12.410326416015625,0.5185846090316772,0.6246232986450195,-1.7510243654251099
1713358429757275100,12.420275146484375,0.4854011535644531,1.0169076919555664,-3.2861154079437256
1713358429767254300,12.430254150390626,-0.07150733470916748,1.200770378112793,-4.554194927215576
1713358429777203000,12.440202880859376,-0.9092001914978027,1.136204719543457,-5.823545455932617
1713358429787182300,12.450182373046875,-1.9449512958526611,0.8999147415161133,-6.464717388153076
1713358429797161500,12.460161376953126,-2.5977742671966553,0.4918670654296875,-6.744731426239014
1713358429807110400,12.4701103515625,-3.2363853454589844,-0.010420799255371094,-6.20062780380249
1713358429817089500,12.480089599609375,-3.798281192779541,-0.7242183685302734,-5.495400428771973
1713358429827068700,12.490068603515626,-3.8073508739471436,-1.7269268035888672,-3.6303586959838867
1713358429837017600,12.500017578125,-3.238706111907959,-2.9565696716308594,-1.1682909727096558
1713358429846996700,12.509996826171875,-2.1884524822235107,-4.093620300292969,1.11732017993927
1713358429856976100,12.51997607421875,-1.9543017148971558,-4.729917526245117,2.5144753456115723
1713358429866955300,12.529955322265625,-3.0699257850646973,-4.644756317138672,3.2147862911224365
1713358429876934400,12.539934326171876,-5.21114444732666,-4.292036056518555,3.039247751235962
1713358429886883300,12.54988330078125,-6.480711936950684,-3.770313262939453,3.753148078918457
1713358429896862500,12.559862548828125,-7.225918769836426,-2.465996742248535,4.0716423988342285
1713358429906841600,12.569841552734376,-7.85675048828125,-1.6308956146240234,3.1430270671844482
1713358429916790500,12.57979052734375,-7.283865451812744,-1.4333276748657227,1.8669061660766602
1713358429926769700,12.589769775390625,-4.97742223739624,-1.216721534729004,1.1155641078948975
1713358429936749000,12.5997490234375,-1.6881295442581177,-1.0879268646240234,0.30064356327056885
1713358429946697700,12.60969775390625,0.855452299118042,-0.6286764144897461,-0.2735329866409302
1713358429956676900,12.6196767578125,2.3463563919067383,-0.16943836212158203,0.20603102445602417
1713358429966656300,12.62965625,1.5567905902862549,0.22424030303955078,0.8489426970481873
1713358429976605000,12.63960498046875,0.8119469285011292,0.9403915405273438,1.191590666770935
1713358429986584000,12.649583984375,0.7708942890167236,1.4768791198730469,0.45904916524887085
1713358429996563500,12.6595634765625,0.5516980290412903,1.815230369567871,-0.2978363037109375
1713358430006512000,12.66951220703125,0.5047920346260071,2.5196352005004883,0.10963302850723267
1713358430016491300,12.6794912109375,0.2927778363227844,2.8772659301757812,0.03349493071436882
1713358430026470700,12.689470703125,-0.19331932067871094,2.90323543548584,0.0940428152680397
1713358430036419300,12.69941943359375,-0.4415522813796997,2.820690155029297,0.08056560158729553
1713358430046398700,12.709398681640625,-0.6451824307441711,2.604248046875,-0.2161744385957718
1713358430056347400,12.719347412109375,-1.098220705986023,2.4605331420898438,-0.48392513394355774
1713358430066326500,12.729326416015626,-1.4699852466583252,2.366448402404785,-0.8298611640930176
1713358430076306000,12.739305908203125,-1.5560983419418335,2.3176136016845703,-1.021322250366211
