time,seconds_elapsed,z,y,x
1715093480036079400,0.121079345703125,7.81610107421875,1.2667388916015625,-2.399749755859375
1715093480046101000,0.13110107421875,7.5335845947265625,1.111114501953125,-3.3119354248046875
1715093480056080400,0.141080322265625,8.299728393554688,1.26434326171875,-3.6064300537109375
1715093480066090000,0.151090087890625,9.176010131835938,2.5763702392578125,-5.792327880859375
1715093480076069400,0.1610693359375,11.330795288085938,4.3097686767578125,-9.97979736328125
1715093480086048500,0.171048583984375,12.017929077148438,3.59869384765625,-9.469818115234375
1715093480096028000,0.18102783203125,10.760971069335938,0.9698638916015625,-2.5721282958984375
1715093480106007000,0.191007080078125,9.72906494140625,1.72882080078125,0.82763671875
1715093480115986200,0.200986083984375,9.070663452148438,3.19647216796875,0.832427978515625
1715093480125965600,0.210965576171875,9.120941162109375,4.0607757568359375,0.92340087890625
1715093480135914200,0.220914306640625,9.154464721679688,3.9961395263671875,0.76300048828125
1715093480145893600,0.2308935546875,9.250228881835938,3.646575927734375,0.31048583984375
1715093480155872800,0.240872802734375,9.113754272460938,3.31378173828125,-0.25933837890625
1715093480165852000,0.250851806640625,8.81927490234375,3.1677398681640625,-0.8123931884765625
1715093480175800800,0.26080078125,8.479293823242188,3.3161773681640625,-0.848297119140625
1715093480185780000,0.270780029296875,7.9405975341796875,3.6800994873046875,-0.5657958984375
1715093480195759400,0.28075927734375,7.38275146484375,4.259490966796875,-0.1108856201171875
1715093480205738500,0.290738525390625,6.9853057861328125,4.8676300048828125,0.53314208984375
1715093480215687200,0.300687255859375,6.901519775390625,5.15252685546875,0.7677764892578125
1715093480225666600,0.31066650390625,7.6078033447265625,5.071136474609375,0.6025848388671875
1715093480235645700,0.320645751953125,8.19677734375,4.6258087158203125,0.3296356201171875
1715093480245594400,0.330594482421875,8.445770263671875,3.9171295166015625,-0.0630035400390625
1715093480255573800,0.34057373046875,8.81927490234375,3.519683837890625,-0.4652252197265625
1715093480265553000,0.350552978515625,9.061080932617188,3.4478607177734375,-0.52508544921875
1715093480275532300,0.3605322265625,9.33880615234375,3.5699615478515625,-0.5226898193359375
1715093480285481000,0.37048095703125,9.956512451171875,3.0384521484375,-0.6543731689453125
1715093480295460000,0.380460205078125,11.294876098632812,2.4494781494140625,-1.21221923828125
1715093480305439500,0.390439453125,11.656402587890625,2.7200164794921875,-1.537841796875
1715093480315418600,0.400418701171875,10.399444580078125,4.0559844970703125,-0.68310546875
1715093480325398000,0.41039794921875,7.6030120849609375,4.9155120849609375,0.336822509765625
1715093480335346700,0.4203466796875,5.682861328125,5.0687408447265625,0.97607421875
1715093480345325800,0.430325927734375,5.5009002685546875,4.91790771484375,1.0048065185546875
1715093480355305200,0.44030517578125,6.267059326171875,4.7215728759765625,0.6504669189453125
1715093480365254000,0.45025390625,7.2582550048828125,4.2714691162109375,0.5355377197265625
1715093480375233000,0.46023291015625,7.959747314453125,3.625030517578125,0.6815948486328125
1715093480385212400,0.47021240234375,8.49365234375,3.3473052978515625,0.652862548828125
1715093480395161000,0.4801611328125,8.991653442382812,2.8900146484375,0.3392181396484375
1715093480405140500,0.490140380859375,9.266983032226562,2.5308837890625,-0.0414581298828125
1715093480415119600,0.50011962890625,8.347610473632812,2.557220458984375,0.324859619140625
1715093480425068300,0.510068359375,7.6461181640625,3.143798828125,0.9329833984375
1715093480435047700,0.520047607421875,6.4514007568359375,2.91156005859375,0.609771728515625
1715093480445026800,0.53002685546875,5.01727294921875,2.4375152587890625,-0.065399169921875
1715093480454975500,0.5399755859375,4.1002960205078125,1.977813720703125,-0.6400146484375
1715093480464955000,0.549954833984375,4.2104339599609375,1.3720855712890625,-0.941680908203125
1715093480474903600,0.559903564453125,4.7922210693359375,0.402435302734375,-0.424530029296875
1715093480484882700,0.569882568359375,5.709197998046875,-0.1817474365234375,-1.501922607421875
1715093480494862000,0.579862060546875,7.5958404541015625,-0.2607574462890625,-3.8721771240234375
1715093480504806700,0.589806640625,8.498443603515625,-1.4339141845703125,-4.3055267333984375
1715093480514785800,0.599785888671875,7.904693603515625,-2.789031982421875,-1.343902587890625
1715093480524765200,0.60976513671875,1.9766387939453125,-0.6629791259765625,-1.3630523681640625
1715093480534713900,0.6197138671875,1.6917266845703125,-0.062042236328125,-3.8027496337890625
1715093480544693200,0.629693359375,6.393951416015625,-0.8425445556640625,-4.1714630126953125
1715093480554672400,0.63967236328125,7.8831329345703125,-1.086761474609375,-3.7476806640625
1715093480564651500,0.649651611328125,9.046722412109375,-1.47222900390625,-3.4651641845703125
1715093480574600400,0.659600341796875,9.724273681640625,-1.88641357421875,-3.4651641845703125
1715093480584579600,0.66957958984375,9.0323486328125,-2.0635986328125,-4.1307525634765625
1715093480594557400,0.679557373046875,8.3021240234375,-1.879241943359375,-4.58087158203125
1715093480604536600,0.68953662109375,7.947784423828125,-2.018096923828125,-3.7931671142578125
1715093480614516000,0.699515869140625,5.1250152587890625,-3.45941162109375,-1.6431732177734375
1715093480624464600,0.709464599609375,1.1626129150390625,-4.436248779296875,-2.9887237548828125
1715093480634444000,0.719444091796875,2.8625030517578125,-3.4785614013671875,-3.869781494140625
1715093480644423200,0.729423095703125,15.987518310546875,-3.9693756103515625,-2.912109375
1715093480654371800,0.739371826171875,17.380935668945312,-2.925506591796875,-4.9184417724609375
1715093480664351200,0.749351318359375,13.669921875,-2.9590301513671875,-5.7252960205078125
1715093480674330400,0.759330322265625,9.575836181640625,-3.634185791015625,-4.7700042724609375
1715093480684279000,0.769279052734375,7.3180999755859375,-4.3596343994140625,-4.02301025390625
1715093480694258400,0.779258544921875,6.204803466796875,-5.1377410888671875,-3.8195037841796875
1715093480704237600,0.789237548828125,6.405914306640625,-5.324493408203125,-3.3909454345703125
1715093480714186200,0.799186279296875,9.293319702148438,-4.953399658203125,-3.118011474609375
1715093480724165600,0.80916552734375,12.446487426757812,-4.7091827392578125,-3.6662750244140625
1715093480734144800,0.819144775390625,14.249313354492188,-5.6692657470703125,-3.8099365234375
1715093480744093400,0.829093505859375,15.726547241210938,-6.454559326171875,-3.826690673828125
1715093480754072800,0.83907275390625,16.665069580078125,-5.958953857421875,-4.8585968017578125
1715093480764052000,0.849052001953125,15.65472412109375,-5.2478790283203125,-3.5968475341796875
1715093480774001000,0.8590009765625,13.835128784179688,-6.3827362060546875,-3.477142333984375
1715093480783980000,0.86897998046875,12.831954956054688,-7.6205291748046875,-2.7612762451171875
1715093480793959200,0.878959228515625,12.968429565429688,-7.565460205078125,-3.7931671142578125
1715093480803908000,0.888908203125,12.966033935546875,-7.259002685546875,-4.6862030029296875
1715093480813887200,0.89888720703125,12.75054931640625,-7.0076141357421875,-5.5457305908203125
1715093480823836000,0.9088359375,11.716262817382812,-7.158447265625,-6.1275177001953125
1715093480833815300,0.918815185546875,11.663589477539062,-7.776153564453125,-5.4786834716796875
1715093480843794400,0.92879443359375,11.941314697265625,-8.049102783203125,-5.126739501953125
1715093480853773800,0.93877392578125,12.365081787109375,-7.9533233642578125,-4.6479034423828125
1715093480863753000,0.9487529296875,12.671539306640625,-7.5870208740234375,-4.33905029296875
1715093480873701600,0.95870166015625,12.269317626953125,-7.1608428955078125,-4.0780792236328125
1715093480883681000,0.968680908203125,11.342758178710938,-6.6053924560546875,-4.5784759521484375
1715093480893660200,0.97866015625,9.9493408203125,-6.564697265625,-5.5026397705078125
1715093480903639600,0.9886396484375,8.615768432617188,-6.878326416015625,-5.9024658203125
1715093480913588200,0.998588134765625,7.2127685546875,-6.8591766357421875,-5.4763031005859375
1715093480923567400,1.0085673828125,5.867218017578125,-6.3300628662109375,-5.3494110107421875
1715093480933516300,1.018516357421875,4.47857666015625,-4.6660919189453125,-5.35418701171875
1715093480943495400,1.028495361328125,3.511322021484375,-3.49053955078125,-3.2544708251953125
1715093480953474600,1.038474609375,4.0955047607421875,-3.538421630859375,-0.972808837890625
1715093480963423500,1.048423583984375,5.02685546875,-2.92071533203125,-1.4013671875
1715093480973402600,1.058402587890625,5.508087158203125,-2.6334075927734375,-1.5737457275390625
1715093480983382000,1.068382080078125,5.570343017578125,-2.6262359619140625,-1.12603759765625
1715093480993330700,1.07833056640625,5.61822509765625,-2.4658203125,-0.9823760986328125
1715093481003309800,1.088309814453125,5.2303619384765625,-2.207244873046875,-0.7860565185546875
1715093481013289200,1.098289306640625,4.8065948486328125,-2.324554443359375,-0.7238006591796875
1715093481023238000,1.10823779296875,3.875244140625,-3.0284576416015625,-0.8626708984375
1715093481033217000,1.118217041015625,2.4195709228515625,-3.464202880859375,-1.7174072265625
1715093481043196400,1.128196533203125,1.2248687744140625,-3.77545166015625,-2.6343841552734375
1715093481053145000,1.13814501953125,0.6239166259765625,-4.2710418701171875,-3.1730804443359375
1715093481063124200,1.148124267578125,0.5377197265625,-4.8935394287109375,-3.371795654296875
1715093481073103600,1.158103515625,1.30865478515625,-5.3580169677734375,-3.848236083984375
1715093481083052300,1.16805224609375,3.046844482421875,-5.8703765869140625,-4.185821533203125
1715093481093031400,1.178031494140625,5.0388336181640625,-6.7682037353515625,-4.4539794921875
1715093481103010800,1.1880107421875,6.030029296875,-6.9669189453125,-4.6862030029296875
1715093481112959500,1.19795947265625,5.8863677978515625,-7.5367431640625,-5.301513671875
1715093481122939000,1.20793896484375,4.445068359375,-8.073043823242188,-5.6941680908203125
1715093481132918000,1.21791796875,2.189727783203125,-8.307662963867188,-4.8394317626953125
1715093481142897200,1.227897216796875,0.499420166015625,-7.8096771240234375,-3.2257537841796875
1715093481152846000,1.23784619140625,0.741241455078125,-7.16802978515625,-1.703033447265625
1715093481162825200,1.2478251953125,2.6158905029296875,-7.067474365234375,-0.67352294921875
1715093481172804600,1.2578046875,4.7754669189453125,-7.79052734375,-0.362274169921875
1715093481182783700,1.26778369140625,6.087493896484375,-8.853546142578125,-1.4516448974609375
1715093481192732400,1.277732421875,5.7906036376953125,-8.695526123046875,-2.131591796875
1715093481202711800,1.2877119140625,5.3309173583984375,-9.394638061523438,-1.8658447265625
1715093481212691000,1.29769091796875,3.19769287109375,-8.841583251953125,-0.762115478515625
1715093481222670300,1.30767041015625,1.914398193359375,-8.61651611328125,0.8827056884765625
1715093481232619000,1.317618896484375,1.20330810546875,-9.368301391601562,2.0774078369140625
1715093481242598100,1.32759814453125,-0.0847625732421875,-10.302047729492188,3.0494537353515625
1715093481252591900,1.337591796875,-0.3481292724609375,-10.304428100585938,2.2737274169921875
1715093481262540500,1.34754052734375,2.28070068359375,-10.409774780273438,0.9617156982421875
1715093481272520000,1.35752001953125,11.737808227539062,-13.735321044921875,-6.15625
1715093481282499000,1.3674990234375,7.89031982421875,-19.98419189453125,-21.196624755859375
1715093481292447700,1.37744775390625,-4.085479736328125,-16.323455810546875,-12.328506469726562
1715093481302427100,1.38742724609375,-3.1900482177734375,-7.5822296142578125,4.97918701171875
1715093481312375800,1.397375732421875,-0.5803680419921875,-9.17437744140625,-1.2840423583984375
1715093481322355200,1.407355224609375,2.8361663818359375,-13.632369995117188,-4.628753662109375
1715093481332334300,1.417334228515625,1.1195220947265625,-12.67230224609375,-5.35418701171875
1715093481342281200,1.42728125,3.4658355712890625,-10.069808959960938,-1.84429931640625
1715093481352260600,1.437260498046875,2.6039276123046875,-11.163955688476562,-2.6463470458984375
1715093481362239700,1.44723974609375,2.22802734375,-11.128036499023438,-3.1587066650390625
1715093481372188400,1.4571884765625,2.326202392578125,-10.998748779296875,-2.3805999755859375
1715093481382167800,1.467167724609375,1.4954071044921875,-10.744964599609375,-2.399749755859375
1715093481392147000,1.47714697265625,1.2631683349609375,-10.768905639648438,-2.241729736328125
1715093481402095600,1.487095703125,0.283935546875,-10.488784790039062,-2.330322265625
1715093481412075000,1.497074951171875,0.183380126953125,-9.720245361328125,-2.00469970703125
1715093481422054100,1.50705419921875,-0.048858642578125,-9.464065551757812,-1.978363037109375
1715093481432033500,1.517033447265625,-1.581146240234375,-9.538284301757812,-2.35186767578125
1715093481442012700,1.5270126953125,-0.7240142822265625,-10.120086669921875,-1.712615966796875
1715093481451961300,1.53696142578125,-0.6186676025390625,-10.977203369140625,-1.9376678466796875
1715093481461940700,1.546940673828125,-0.218841552734375,-12.871017456054688,-1.2816619873046875
1715093481471919900,1.556919921875,0.7771453857421875,-12.914108276367188,-0.67352294921875
1715093481481899300,1.566899169921875,0.927978515625,-13.050582885742188,-0.6280364990234375
1715093481491848000,1.576847900390625,0.0157928466796875,-11.989959716796875,-2.517059326171875
1715093481501827000,1.5868271484375,-0.3265838623046875,-12.914108276367188,-0.4269256591796875
1715093481511803100,1.59680322265625,0.5496978759765625,-10.881439208984375,2.89862060546875
1715093481521752000,1.606751953125,-0.82696533203125,-9.729827880859375,4.1914825439453125
1715093481531731200,1.616731201171875,1.064453125,-10.65399169921875,-8.126678466796875
1715093481541710600,1.626710693359375,2.5895538330078125,-10.194305419921875,-4.4037017822265625
1715093481551659300,1.6366591796875,2.053253173828125,-9.188735961914062,0.844390869140625
1715093481561638400,1.646638427734375,1.56243896484375,-7.48406982421875,-1.9903411865234375
1715093481571617800,1.65661767578125,2.01495361328125,-8.333999633789062,-4.4970703125
1715093481581566500,1.66656640625,1.1793670654296875,-6.1097869873046875,-2.87139892578125
1715093481591545600,1.676545654296875,0.94952392578125,-5.2622528076171875,-3.9823150634765625
1715093481601525000,1.68652490234375,1.935943603515625,-4.7786102294921875,-1.78204345703125
1715093481611473700,1.6964736328125,2.3621063232421875,-4.125,-0.6495819091796875
1715093481621452800,1.706452880859375,2.6374359130859375,-5.128173828125,-0.67352294921875
1715093481631432200,1.71643212890625,2.80743408203125,-5.44659423828125,-0.3670654296875
1715093481641380900,1.726380859375,3.1258544921875,-5.4489898681640625,0.4134368896484375
1715093481651360300,1.7363603515625,0.7555999755859375,-4.986907958984375,1.4812469482421875
1715093481661309000,1.746308837890625,1.66778564453125,-4.405120849609375,-0.8746337890625
1715093481671288000,1.7562880859375,1.4954071044921875,-3.95501708984375,-0.4221343994140625
1715093481681267500,1.766267333984375,0.1378936767578125,-4.215972900390625,0.801300048828125
1715093481691216100,1.776216064453125,-0.3600921630859375,-2.5065155029296875,3.4708404541015625
1715093481701195300,1.7861953125,0.17620849609375,-4.3452606201171875,2.04388427734375
1715093481711174700,1.796174560546875,2.5823822021484375,-6.612579345703125,1.8020782470703125
1715093481721153800,1.80615380859375,2.3453521728515625,-7.2230987548828125,2.1995086669921875
1715093481731133200,1.81613330078125,1.1626129150390625,-8.946914672851562,2.553863525390625
1715093481741081900,1.826081787109375,2.0436859130859375,-10.955657958984375,1.8140411376953125
1715093481751061000,1.83606103515625,2.4818115234375,-10.658782958984375,2.1660003662109375
1715093481761040400,1.846040283203125,2.812225341796875,-14.168670654296875,1.869110107421875
1715093481771019500,1.85601953125,2.0388946533203125,-11.398590087890625,2.3264007568359375
1715093481780968200,1.86596826171875,5.237548828125,-17.99700927734375,-2.2129974365234375
1715093481790947600,1.875947509765625,3.801025390625,-23.225936889648438,-2.057373046875
1715093481800926700,1.8859267578125,2.2567596435546875,-21.588302612304688,-3.5585479736328125
1715093481810875400,1.89587548828125,3.245574951171875,-21.7271728515625,-1.6527557373046875
1715093481820854800,1.905854736328125,2.38604736328125,-15.528579711914062,1.3543548583984375
1715093481830834000,1.915833984375,1.5744171142578125,-12.49273681640625,3.4468994140625
1715093481840782800,1.925782958984375,0.482666015625,-11.664337158203125,3.9520721435546875
1715093481850762000,1.935761962890625,1.4954071044921875,-10.61328125,3.200286865234375
1715093481860741000,1.9457412109375,-1.7966156005859375,-7.4194183349609375,2.2138824462890625
1715093481870690000,1.95568994140625,-4.7271270751953125,-7.74981689453125,1.7541961669921875
1715093481880669200,1.965669189453125,-5.22271728515625,-8.00360107421875,1.6344757080078125
1715093481890648600,1.975648681640625,-1.102294921875,-8.357955932617188,2.259368896484375
1715093481900597200,1.98559716796875,7.16009521484375,-8.666793823242188,5.290435791015625
1715093481910576400,1.995576416015625,9.322052001953125,-8.293304443359375,3.0925445556640625
1715093481920555800,2.0055556640625,6.1066436767578125,-9.200714111328125,0.3607635498046875
1715093481930504400,2.01550439453125,0.858551025390625,-9.928543090820312,-0.1731414794921875
1715093481940483600,2.025483642578125,1.239227294921875,-9.93572998046875,2.35992431640625
1715093481950432500,2.0354326171875,1.9503021240234375,-9.789688110351562,3.1859283447265625
1715093481960411600,2.04541162109375,1.6103363037109375,-9.447311401367188,2.3623199462890625
1715093481970390800,2.055390869140625,1.275146484375,-9.274932861328125,2.28570556640625
1715093481980339700,2.065339599609375,1.2104949951171875,-9.272537231445312,2.13726806640625
1715093481990318800,2.07531884765625,0.69573974609375,-9.03790283203125,2.0965576171875
1715093482000298200,2.08529833984375,1.361328125,-9.665176391601562,1.0670623779296875
1715093482010277400,2.09527734375,0.923187255859375,-9.1336669921875,1.6799774169921875
1715093482020256500,2.105256591796875,1.0213623046875,-9.473648071289062,2.2976837158203125
1715093482030205400,2.115205322265625,0.848968505859375,-10.254150390625,2.7046966552734375
1715093482040184600,2.1251845703125,1.287109375,-10.541458129882812,2.48681640625
1715093482050156500,2.135156494140625,1.4642791748046875,-10.23260498046875,2.0654449462890625
1715093482060135700,2.1451357421875,1.212890625,-9.854324340820312,2.1085357666015625
1715093482070084400,2.15508447265625,0.8657379150390625,-9.519134521484375,1.8978424072265625
1715093482080063700,2.165063720703125,0.72686767578125,-9.330001831054688,1.6129302978515625
1715093482090043000,2.17504296875,0.880096435546875,-9.24859619140625,1.4214019775390625
1715093482099991600,2.184991455078125,1.1530303955078125,-9.231826782226562,1.308868408203125
1715093482109971000,2.194970947265625,1.334991455078125,-9.277328491210938,1.2490234375
1715093482119950000,2.2049501953125,-3.113433837890625,4.6736907958984375,6.3678131103515625
1715093482129899000,2.21489892578125,-12.958389282226562,22.014892578125,-0.5178985595703125
1715093482139878100,2.224878173828125,-1.11187744140625,-5.128173828125,-2.0885009765625
1715093482149857300,2.234857177734375,3.31500244140625,-26.441360473632812,0.2386627197265625
1715093482159806200,2.24480615234375,5.4099273681640625,-15.30352783203125,1.6919403076171875
1715093482169785300,2.254785400390625,1.607940673828125,-14.417678833007812,0.9617156982421875
1715093482179764700,2.2647646484375,3.1162872314453125,-15.406478881835938,2.0726165771484375
1715093482189713400,2.27471337890625,1.8114471435546875,-15.7584228515625,2.058258056640625
1715093482199692500,2.284692626953125,-0.0536346435546875,-14.666671752929688,1.5530853271484375
1715093482209672000,2.294671875,-0.8245697021484375,-12.485549926757812,0.7342681884765625
1715093482219620600,2.30462060546875,-0.376861572265625,-10.2421875,1.0574798583984375
1715093482229599700,2.314599853515625,-0.78387451171875,-9.75616455078125,1.0838165283203125
1715093482239548400,2.32454833984375,-0.8916168212890625,-10.139236450195312,2.290496826171875
1715093482249527800,2.33452783203125,-0.9777984619140625,-10.04107666015625,3.0709991455078125
1715093482259507000,2.3445068359375,-0.6545867919921875,-9.710678100585938,3.2290191650390625
1715093482269456000,2.354455810546875,-0.8556976318359375,-9.734619140625,2.9369354248046875
1715093482279435000,2.36443505859375,-0.8126068115234375,-9.90460205078125,2.7645416259765625
1715093482289414100,2.3744140625,-0.5205078125,-9.490402221679688,2.723846435546875
1715093482299393500,2.3843935546875,-0.419952392578125,-9.109725952148438,2.321624755859375
1715093482309372700,2.39437255859375,-0.4606475830078125,-9.045089721679688,1.677581787109375
1715093482319321600,2.404321533203125,-0.5205078125,-9.7034912109375,1.857147216796875
1715093482329300700,2.41430078125,-0.4534759521484375,-9.863906860351562,1.351959228515625
1715093482339280000,2.42427978515625,0.04931640625,-10.103317260742188,1.6273040771484375
1715093482349228800,2.434228759765625,-0.1781463623046875,-10.627655029296875,1.6512451171875
1715093482359208000,2.4442080078125,-0.7766876220703125,-11.02508544921875,1.8236236572265625
1715093482369187300,2.454187255859375,-1.3297576904296875,-11.271697998046875,1.869110107421875
1715093482379166500,2.46416650390625,-1.53326416015625,-11.690673828125,1.7589874267578125
1715093482389115100,2.474115234375,-1.581146240234375,-12.5142822265625,1.7374267578125
1715093482399094500,2.484094482421875,-1.06878662109375,-12.813552856445312,1.6392669677734375
1715093482409073700,2.49407373046875,-0.1470184326171875,-13.131988525390625,1.905029296875
1715093482419022300,2.504022216796875,-0.81500244140625,-14.446395874023438,1.7398223876953125
1715093482429001700,2.514001708984375,-0.376861572265625,-13.445632934570312,1.921783447265625
1715093482438980900,2.52398095703125,0.7125091552734375,-12.41851806640625,2.0510711669921875
1715093482448929500,2.533929443359375,0.6909637451171875,-10.541458129882812,3.0135498046875
1715093482458909000,2.543908935546875,0.2264862060546875,-7.802490234375,2.0127716064453125
1715093482468888000,2.55388818359375,-0.8173980712890625,-5.9924774169921875,-0.721405029296875
1715093482478837000,2.5638369140625,1.852142333984375,-5.525604248046875,4.627227783203125
1715093482488816000,2.573816162109375,0.446746826171875,-6.0619049072265625,3.0901641845703125
1715093482498764800,2.583764892578125,-0.13983154296875,-5.47772216796875,0.739044189453125
1715093482508744200,2.593744140625,-0.4438934326171875,-5.0467681884765625,0.3032989501953125
1715093482518723300,2.603723388671875,-0.508544921875,-5.5639190673828125,0.7246856689453125
1715093482528672000,2.613672119140625,0.3605499267578125,-6.950164794921875,1.4597015380859375
1715093482538651400,2.6236513671875,1.0213623046875,-8.439346313476562,1.4429473876953125
1715093482548630500,2.633630615234375,0.408447265625,-10.012344360351562,0.832427978515625
1715093482558579200,2.6435791015625,0.5281524658203125,-10.0626220703125,0.5068206787109375
1715093482568558600,2.65355859375,0.8298187255859375,-10.376266479492188,0.485260009765625
1715093482578537700,2.663537841796875,0.65264892578125,-10.749755859375,0.5977935791015625
1715093482588517000,2.67351708984375,0.372528076171875,-11.08734130859375,0.75341796875
1715093482598496300,2.683496337890625,0.2647857666015625,-11.199859619140625,1.0191650390625
1715093482608445000,2.69344482421875,0.19775390625,-10.95086669921875,1.3806915283203125
1715093482618424300,2.70342431640625,0.1378936767578125,-10.4337158203125,1.6057586669921875
1715093482628403500,2.713403564453125,0.2647857666015625,-9.909393310546875,1.6608123779296875
1715093482638382800,2.7233828125,0.3342132568359375,-9.435333251953125,1.68475341796875
1715093482648331500,2.73333154296875,0.2432403564453125,-9.035507202148438,1.6177215576171875
1715093482658315300,2.743315185546875,0.18817138671875,-8.772140502929688,1.37591552734375
1715093482668294400,2.75329443359375,0.42041015625,-8.527938842773438,1.3423919677734375
1715093482678243000,2.7632431640625,0.39886474609375,-8.45611572265625,1.260986328125
1715093482688222500,2.773222412109375,0.3868865966796875,-8.535125732421875,1.244232177734375
1715093482698201600,2.78320166015625,0.408447265625,-8.788909912109375,1.3423919677734375
1715093482708150300,2.793150390625,0.4180145263671875,-9.104934692382812,1.2585906982421875
1715093482718129700,2.803129638671875,0.4228057861328125,-9.466461181640625,1.1269073486328125
1715093482728108800,2.81310888671875,0.3078765869140625,-9.832778930664062,1.055084228515625
1715093482738057500,2.823057373046875,0.1953582763671875,-10.1990966796875,0.9401702880859375
1715093482748036900,2.833036865234375,0.183380126953125,-10.460052490234375,0.971282958984375
1715093482758016000,2.84301611328125,0.2959136962890625,-10.522308349609375,1.16522216796875
1715093482767965000,2.85296484375,0.5066070556640625,-10.436111450195312,1.4070281982421875
1715093482777944000,2.862944091796875,0.8394012451171875,-10.244583129882812,1.689544677734375
1715093482787923200,2.872923095703125,0.9567108154296875,-9.909393310546875,2.0295257568359375
1715093482797872000,2.8828720703125,1.2248687744140625,-9.586166381835938,2.312042236328125
1715093482807851300,2.892851318359375,1.30865478515625,-9.308441162109375,2.4269561767578125
1715093482817800000,2.902800048828125,1.1530303955078125,-9.138458251953125,2.3623199462890625
1715093482827779300,2.912779296875,0.93756103515625,-9.239013671875,2.1468353271484375
1715093482837758500,2.922758544921875,0.6741943359375,-9.4808349609375,1.847564697265625
1715093482847737900,2.93273779296875,0.60955810546875,-9.863906860351562,1.6201171875
1715093482857686500,2.9426865234375,0.6406707763671875,-10.215850830078125,1.38787841796875
1715093482867665700,2.952665771484375,0.657440185546875,-10.436111450195312,1.2202911376953125
1715093482877645000,2.96264501953125,0.6646270751953125,-10.438507080078125,1.1795806884765625
1715093482887624200,2.972624267578125,0.7555999755859375,-10.225418090820312,1.3112640380859375
1715093482897603600,2.982603515625,0.848968505859375,-9.890243530273438,1.4285736083984375
1715093482907552300,2.99255224609375,0.848968505859375,-9.511947631835938,1.49322509765625
1715093482917531400,3.002531494140625,0.858551025390625,-9.219863891601562,1.5458984375
1715093482927510800,3.0125107421875,0.7915191650390625,-8.990020751953125,1.59857177734375
1715093482937459500,3.02245947265625,0.72686767578125,-8.894256591796875,1.550689697265625
1715093482947438600,3.0324384765625,0.7292633056640625,-8.925369262695312,1.445343017578125
1715093482957418000,3.04241796875,0.9088287353515625,-9.1217041015625,1.3974609375
1715093482967366700,3.05236669921875,1.028533935546875,-9.313232421875,1.423797607421875
1715093482977345800,3.062345703125,0.942352294921875,-9.380279541015625,1.4812469482421875
1715093482987325200,3.0723251953125,0.7651824951171875,-9.39703369140625,1.5028076171875
1715093482997273900,3.08227392578125,0.767578125,-9.499984741210938,1.5530853271484375
1715093483007253200,3.092253173828125,0.8920745849609375,-9.665176391601562,1.593780517578125
1715093483017232400,3.102232421875,0.9447479248046875,-9.78729248046875,1.6871490478515625
1715093483027181000,3.11218115234375,0.90643310546875,-9.722640991210938,1.763763427734375
1715093483037160400,3.122160400390625,0.7077178955078125,-9.53350830078125,1.742218017578125
1715093483047139600,3.1321396484375,0.408447265625,-9.358718872070312,1.6608123779296875
1715093483057088300,3.142088134765625,0.288726806640625,-9.370697021484375,1.488433837890625
1715093483067067600,3.152067626953125,0.0277557373046875,-9.540679931640625,1.457305908203125
1715093483077046800,3.162046875,-0.2068634033203125,-9.878265380859375,1.3806915283203125
1715093483086995500,3.171995361328125,-0.1925048828125,-10.122482299804688,1.0790252685546875
1715093483096974800,3.181974853515625,0.1666259765625,-10.132049560546875,0.8156585693359375
1715093483106954000,3.1919541015625,0.6334991455078125,-9.997970581054688,0.765380859375
1715093483116903000,3.20190283203125,0.975860595703125,-9.739395141601562,0.8419952392578125
1715093483126882000,3.211882080078125,1.1626129150390625,-9.442520141601562,0.865936279296875
1715093483136861200,3.221861083984375,1.682159423828125,-9.085784912109375,0.7941131591796875
1715093483146810000,3.23181005859375,1.5911712646484375,-8.930160522460938,1.1149444580078125
1715093483156789200,3.241789306640625,1.70849609375,-8.87030029296875,1.3663330078125
1715093483166768600,3.2517685546875,2.9055938720703125,-9.294082641601562,1.335205078125
1715093483176747800,3.261747802734375,2.1226959228515625,-9.495193481445312,0.8683319091796875
1715093483186727000,3.271726806640625,1.509765625,-9.921356201171875,0.4972381591796875
1715093483196675800,3.28167578125,1.1578216552734375,-10.402603149414062,0.262603759765625
1715093483206655000,3.291655029296875,0.7125091552734375,-10.81201171875,0.2171173095703125
1715093483216634400,3.30163427734375,0.2959136962890625,-11.0035400390625,0.253021240234375
1715093483226583000,3.3115830078125,0.39886474609375,-10.893402099609375,0.0016326904296875
1715093483236562200,3.321562255859375,0.762786865234375,-10.625259399414062,-0.1515960693359375
1715093483246541600,3.33154150390625,1.514556884765625,-10.455276489257812,0.0231781005859375
1715093483256490200,3.341490234375,2.067626953125,-10.282882690429688,0.2817535400390625
1715093483266469400,3.351469482421875,2.17535400390625,-10.00994873046875,0.4828643798828125
1715093483276448800,3.36144873046875,2.273529052734375,-9.626876831054688,0.844390869140625
1715093483286397400,3.3713974609375,1.8904571533203125,-9.243804931640625,1.1891632080078125
1715093483296376600,3.38137646484375,1.406829833984375,-8.942138671875,1.296905517578125
1715093483306356000,3.39135595703125,1.12908935546875,-8.705108642578125,1.3256378173828125
1715093483316304600,3.4013046875,1.069244384765625,-8.463287353515625,1.349578857421875
1715093483326284000,3.411283935546875,1.04290771484375,-8.290908813476562,1.4549102783203125
1715093483336263200,3.42126318359375,1.282318115234375,-8.180770874023438,1.6703948974609375
1715093483346211800,3.4312119140625,1.51934814453125,-8.1927490234375,1.8667144775390625
1715093483356191200,3.441191162109375,1.777923583984375,-8.4776611328125,1.6177215576171875
1715093483366170400,3.45117041015625,1.65582275390625,-8.800872802734375,1.6512451171875
1715093483376119000,3.461119140625,1.7228546142578125,-9.025924682617188,1.6703948974609375
1715093483386098400,3.471098388671875,1.87847900390625,-9.04986572265625,1.8739013671875
1715093483396077600,3.48107763671875,1.957489013671875,-9.1025390625,1.9337615966796875
1715093483406026200,3.491026123046875,2.201690673828125,-9.171981811523438,1.689544677734375
1715093483416005600,3.501005615234375,2.220855712890625,-9.231826782226562,1.541107177734375
1715093483425984800,3.51098486328125,2.1394500732421875,-9.262954711914062,1.593780517578125
1715093483435933400,3.520933349609375,2.0293121337890625,-9.303665161132812,1.6392669677734375
1715093483445912800,3.530912841796875,1.83538818359375,-9.411392211914062,1.6919403076171875
1715093483455892000,3.54089208984375,1.821014404296875,-9.488006591796875,1.5458984375
1715093483465871400,3.550871337890625,1.9694671630859375,-9.562225341796875,1.277740478515625
1715093483475850500,3.5608505859375,1.9742431640625,-9.6292724609375,0.8204498291015625
1715093483485799200,3.570799072265625,2.0484619140625,-9.646026611328125,0.41583251953125
1715093483495778600,3.580778564453125,2.3525390625,-9.622085571289062,-0.034271240234375
1715093483505757700,3.5907578125,2.71405029296875,-9.547866821289062,-0.362274169921875
1715093483515706600,3.60070654296875,3.0851593017578125,-9.557449340820312,-0.6543731689453125
1715093483525685800,3.610685791015625,3.4969635009765625,-9.420974731445312,-0.56817626953125
1715093483535665000,3.620664794921875,3.657379150390625,-9.22943115234375,-0.249755859375
1715093483545613800,3.63061376953125,3.7890472412109375,-9.08099365234375,0.083038330078125
1715093483555593000,3.640593017578125,3.595123291015625,-9.088180541992188,0.58343505859375
1715093483565572400,3.650572265625,3.6190643310546875,-9.14324951171875,1.2418365478515625
1715093483575521000,3.66052099609375,3.5879364013671875,-9.519134521484375,1.6584320068359375
1715093483585500200,3.670500244140625,3.89678955078125,-9.928543090820312,1.996002197265625
1715093483595479600,3.6804794921875,4.42352294921875,-10.266128540039062,2.5251312255859375
1715093483605428200,3.69042822265625,4.7874298095703125,-10.527099609375,3.420562744140625
1715093483615407400,3.700407470703125,4.7658843994140625,-10.819183349609375,3.410980224609375
1715093483625386800,3.71038671875,4.7012481689453125,-10.69708251953125,3.5235137939453125
1715093483635335400,3.72033544921875,4.5336456298828125,-10.33795166015625,3.4181671142578125
1715093483645314600,3.730314453125,4.2032470703125,-10.14642333984375,2.9273529052734375
1715093483655294000,3.7402939453125,3.5831451416015625,-10.196701049804688,2.810028076171875
1715093483665242600,3.75024267578125,3.5089263916015625,-10.196701049804688,3.0326995849609375
1715093483675222000,3.760221923828125,3.6621551513671875,-10.139236450195312,2.829193115234375
1715093483685201200,3.770201171875,3.288665771484375,-10.481597900390625,2.4844207763671875
1715093483695149800,3.78014990234375,3.0516357421875,-10.807220458984375,2.350341796875
1715093483705129200,3.790129150390625,2.0508575439453125,-10.977203369140625,2.268951416015625
1715093483715108400,3.8001083984375,0.6334991455078125,-10.8551025390625,2.3455657958984375
1715093483725087700,3.810087646484375,-0.6641693115234375,-10.493576049804688,1.816436767578125
1715093483735036400,3.820036376953125,-1.1669464111328125,-9.9884033203125,1.10296630859375
1715093483745015600,3.830015625,-1.720001220703125,-9.313232421875,0.9257965087890625
1715093483754995000,3.839994873046875,-1.4566497802734375,-9.092971801757812,0.683990478515625
1715093483764974000,3.84997412109375,-0.6761322021484375,-9.559844970703125,-0.0462493896484375
1715093483774922800,3.8599228515625,0.880096435546875,-10.017135620117188,-1.851470947265625
1715093483784902100,3.869902099609375,2.71405029296875,-10.642013549804688,-3.2784271240234375
1715093483794881300,3.87988134765625,2.52252197265625,-11.575759887695312,-3.3694000244140625
1715093483804830000,3.889829833984375,3.003753662109375,-12.255706787109375,-3.790771484375
1715093483814809300,3.899809326171875,3.06121826171875,-13.378585815429688,-4.8657684326171875
1715093483824788500,3.90978857421875,4.3373260498046875,-14.027420043945312,-2.9887237548828125
1715093483834737200,3.919737060546875,4.4163360595703125,-13.553359985351562,0.2745819091796875
1715093483844716500,3.929716552734375,2.0700225830078125,-13.65631103515625,2.58258056640625
1715093483854695700,3.93969580078125,2.369293212890625,-13.340286254882812,5.070159912109375
1715093483864644600,3.94964453125,0.9615020751953125,-11.767288208007812,7.7516632080078125
1715093483874623700,3.959623779296875,-1.301025390625,-10.270919799804688,7.1579132080078125
1715093483884603000,3.969602783203125,-2.9793548583984375,-8.860733032226562,6.5569610595703125
1715093483894551800,3.9795517578125,-2.438262939453125,-7.838409423828125,5.280853271484375
1715093483904531000,3.989531005859375,-0.53009033203125,-7.2063446044921875,3.475616455078125
1715093483914510300,3.99951025390625,1.2200775146484375,-7.194366455078125,2.0558624267578125
1715093483924459000,4.009458984375,2.5321044921875,-7.3404083251953125,0.6768035888671875
1715093483934438100,4.019438232421875,3.437103271484375,-7.1704254150390625,-0.1515960693359375
1715093483944417500,4.02941748046875,3.9781951904296875,-6.729888916015625,-1.1140594482421875
1715093483954366200,4.0393662109375,4.2271881103515625,-6.3683624267578125,-1.7221832275390625
1715093483964345300,4.049345458984375,3.901580810546875,-6.160064697265625,-1.9735870361328125
1715093483974324700,4.05932470703125,3.2599334716796875,-6.13134765625,-1.81317138671875
1715093483984273400,4.0692734375,2.307037353515625,-6.413848876953125,-1.3774261474609375
1715093483994252500,4.07925244140625,2.010162353515625,-6.9597320556640625,-1.185882568359375
1715093484004232000,4.08923193359375,2.0029754638671875,-7.129730224609375,-0.695068359375
1715093484014211000,4.099211181640625,2.1514129638671875,-7.1704254150390625,-0.2066650390625
1715093484024160000,4.109159912109375,2.53448486328125,-7.2518310546875,-0.0055389404296875
1715093484034139100,4.11913916015625,2.6996917724609375,-7.330841064453125,-0.1252593994140625
1715093484044118300,4.1291181640625,2.8696746826171875,-7.132110595703125,-0.233001708984375
1715093484054097700,4.13909765625,3.087554931640625,-6.9046630859375,0.5187835693359375
1715093484064046300,4.14904638671875,2.7547607421875,-6.79931640625,1.498016357421875
1715093484074025700,4.159025634765625,3.1426239013671875,-6.76580810546875,2.5897674560546875
1715093484084004900,4.1690048828125,4.023681640625,-6.3946990966796875,3.401397705078125
1715093484093953500,4.17895361328125,4.3014068603515625,-5.80572509765625,4.3638763427734375
1715093484103933000,4.188932861328125,4.4809722900390625,-5.061126708984375,5.1779022216796875
1715093484113912000,4.198912109375,4.93109130859375,-5.0323944091796875,5.7070159912109375
1715093484123860700,4.20886083984375,4.662933349609375,-5.7961578369140625,5.3095855712890625
1715093484133840100,4.218840087890625,4.5647735595703125,-7.3092803955078125,4.720611572265625
1715093484143819300,4.2288193359375,5.43865966796875,-9.602935791015625,4.615264892578125
1715093484153768000,4.238767822265625,5.994110107421875,-13.625198364257812,3.1763458251953125
1715093484163747300,4.248747314453125,7.181640625,-15.396896362304688,1.9241790771484375
1715093484173726500,4.2587265625,8.706741333007812,-15.09283447265625,2.968048095703125
1715093484183675100,4.268675048828125,7.5335845947265625,-13.35943603515625,4.4620361328125
1715093484193654500,4.278654541015625,5.3716278076171875,-11.166351318359375,4.8403167724609375
1715093484203633700,4.288633544921875,3.14739990234375,-9.341964721679688,3.70068359375
1715093484213582600,4.29858251953125,2.52252197265625,-9.583786010742188,1.974456787109375
1715093484223561700,4.308561767578125,2.7379913330078125,-11.264511108398438,1.19873046875
1715093484233540900,4.318540771484375,1.0189666748046875,-12.47119140625,0.5738525390625
1715093484243489800,4.32848974609375,-0.0991363525390625,-14.412887573242188,-0.2042694091796875
1715093484253469000,4.338468994140625,0.214508056640625,-16.3905029296875,-1.0398406982421875
1715093484263448300,4.3484482421875,0.0325469970703125,-17.740829467773438,-1.1044769287109375
1715093484273397000,4.35839697265625,-0.0105438232421875,-17.836593627929688,0.4924468994140625
1715093484283376000,4.368376220703125,-0.0416717529296875,-15.794342041015625,0.9688873291015625
1715093484293355500,4.37835546875,-0.407989501953125,-13.098464965820312,1.8810882568359375
1715093484303334700,4.388334716796875,-0.388824462890625,-11.159164428710938,2.7262420654296875
1715093484313283300,4.398283447265625,-0.9227294921875,-9.962066650390625,3.2769012451171875
1715093484323262700,4.4082626953125,-1.0783538818359375,-9.1959228515625,3.1500091552734375
1715093484333241900,4.418241943359375,-1.17413330078125,-8.75299072265625,2.6208953857421875
1715093484343221200,4.42822119140625,-1.3058013916015625,-8.745803833007812,2.0223388671875
1715093484353170000,4.438169921875,-0.5133209228515625,-8.7625732421875,1.1316986083984375
1715093484363149000,4.448149169921875,1.3589324951171875,-9.17437744140625,0.0112152099609375
1715093484373128400,4.45812841796875,2.5895538330078125,-10.08416748046875,-0.8914031982421875
1715093484383077000,4.4680771484375,4.4115447998046875,-9.854324340820312,0.03515625
1715093484393056300,4.47805615234375,6.046783447265625,-9.82080078125,-0.7261962890625
1715093484403035600,4.48803564453125,8.148895263671875,-10.124862670898438,-1.712615966796875
1715093484412984300,4.497984375,6.808135986328125,-9.435333251953125,-1.1667327880859375
1715093484422963700,4.507963623046875,3.765106201171875,-8.312454223632812,-0.7166290283203125
1715093484432942800,4.51794287109375,1.4642791748046875,-7.24224853515625,0.6025848388671875
1715093484442891500,4.5278916015625,-1.6649322509765625,-6.971710205078125,0.03515625
1715093484452871000,4.537870849609375,-1.4566497802734375,-6.1935882568359375,0.8036956787109375
1715093484462850000,4.54785009765625,1.155426025390625,-5.4537811279296875,0.6193389892578125
1715093484472798700,4.557798828125,2.15380859375,-5.0850677490234375,1.2753448486328125
1715093484482778000,4.567778076171875,1.1362762451171875,-5.219146728515625,1.265777587890625
1715093484492757200,4.57775732421875,0.066070556640625,-5.398712158203125,1.5435028076171875
1715093484502706000,4.587705810546875,-0.1541900634765625,-5.34124755859375,2.946502685546875
1715093484512685300,4.597685302734375,0.8441925048828125,-6.1361236572265625,1.9505157470703125
1715093484522664400,4.60766455078125,0.17620849609375,-6.770599365234375,2.6472320556640625
1715093484532613400,4.61761328125,-0.3577117919921875,-7.510406494140625,2.7789154052734375
1715093484542592500,4.627592529296875,0.5927886962890625,-8.372314453125,2.343170166015625
1715093484552571600,4.637571533203125,0.2911224365234375,-8.707504272460938,2.460479736328125
1715093484562520600,4.6475205078125,3.9255218505859375,-9.997970581054688,1.05029296875
1715093484572499700,4.657499755859375,3.0947418212890625,-10.213455200195312,1.4692840576171875
1715093484582478800,4.667478759765625,3.6621551513671875,-10.2733154296875,1.3232421875
1715093484592458200,4.677458251953125,3.6094818115234375,-10.524703979492188,0.964111328125
1715093484602437400,4.687437255859375,3.192901611328125,-10.524703979492188,1.0191650390625
1715093484612386300,4.69738623046875,3.5807647705078125,-9.854324340820312,1.3064727783203125
1715093484622365400,4.707365478515625,4.7802581787109375,-8.693130493164062,1.3160552978515625
1715093484632344600,4.717344482421875,5.548797607421875,-7.469696044921875,1.095794677734375
1715093484642293500,4.72729345703125,5.58709716796875,-6.2151336669921875,0.9210052490234375
1715093484652272600,4.737272705078125,4.72998046875,-5.092254638671875,0.8204498291015625
1715093484662252000,4.747251953125,3.573577880859375,-4.299774169921875,0.889892578125
1715093484672200700,4.75720068359375,2.0364990234375,-4.5463714599609375,1.2897186279296875
1715093484682179800,4.767179931640625,1.619903564453125,-6.0188140869140625,2.110931396484375
1715093484692159200,4.7771591796875,1.2057037353515625,-8.460891723632812,3.0925445556640625
1715093484702108000,4.78710791015625,1.725250244140625,-10.962844848632812,4.16754150390625
1715093484712087000,4.797087158203125,4.1002960205078125,-13.06256103515625,3.961639404296875
1715093484722066400,4.80706640625,4.85687255859375,-14.57330322265625,2.8866424560546875
1715093484732015000,4.81701513671875,4.53125,-15.626739501953125,3.5785675048828125
1715093484741994200,4.826994140625,4.9286956787109375,-15.36578369140625,3.3870391845703125
1715093484751973600,4.8369736328125,5.0819244384765625,-13.093673706054688,3.0374908447265625
1715093484761922300,4.84692236328125,3.79144287109375,-10.584548950195312,3.039886474609375
1715093484771901700,4.856901611328125,3.008544921875,-9.792068481445312,2.7214508056640625
1715093484781880800,4.866880859375,2.44830322265625,-9.310836791992188,2.5730133056640625
1715093484791829500,4.87682958984375,1.8282012939453125,-8.633285522460938,2.4365386962890625
1715093484801809000,4.886808837890625,0.4228057861328125,-8.448928833007812,2.4102020263671875
1715093484811788000,4.8967880859375,-0.43670654296875,-8.887069702148438,2.0103759765625
1715093484821736700,4.90673681640625,-1.102294921875,-9.246200561523438,1.423797607421875
1715093484831716000,4.916716064453125,-1.655364990234375,-9.744186401367188,0.4254150390625
1715093484841695200,4.9266953125,-1.528472900390625,-10.330764770507812,-1.0350494384765625
1715093484851674600,4.936674560546875,-1.22918701171875,-11.168746948242188,-2.801971435546875
1715093484861623300,4.946623291015625,0.097198486328125,-13.005096435546875,-4.20257568359375
1715093484871602400,4.9566025390625,1.6534271240234375,-14.91326904296875,-4.0565338134765625
1715093484881581800,4.966581787109375,2.706878662109375,-16.548507690429688,-4.1570892333984375
1715093484891561000,4.97656103515625,3.5759735107421875,-17.961090087890625,-3.716552734375
1715093484901509600,4.986509521484375,1.545684814453125,-18.143051147460938,-2.1651153564453125
1715093484911489000,4.996489013671875,-0.3170013427734375,-17.961090087890625,-0.6064910888671875
1715093484921468200,5.00646826171875,-0.0991363525390625,-16.270782470703125,1.20831298828125
1715093484931417000,5.0164169921875,-2.215606689453125,-13.388168334960938,5.38140869140625
1715093484941396200,5.026396240234375,-1.856475830078125,-10.390625,8.627944946289062
1715093484951375400,5.036375244140625,-0.10870361328125,-7.417022705078125,9.7987060546875
1715093484961324300,5.04632421875,0.631103515625,-5.07550048828125,11.261566162109375
1715093484971303400,5.056303466796875,-0.2978515625,-3.6844635009765625,10.109954833984375
1715093484981282600,5.066282470703125,-1.0137176513671875,-3.8712158203125,7.552947998046875
1715093484991231500,5.0762314453125,-0.3289794921875,-5.2454833984375,4.8283538818359375
1715093485001210600,5.086210693359375,1.287109375,-6.2103424072265625,1.9241790771484375
1715093485011190000,5.09618994140625,3.0061492919921875,-5.925445556640625,0.1476898193359375
1715093485021138700,5.106138671875,3.5185089111328125,-5.5232086181640625,-0.9225311279296875
1715093485031117800,5.116117919921875,4.6222381591796875,-5.37237548828125,-1.6048736572265625
1715093485041097200,5.12609716796875,5.0675506591796875,-5.398712158203125,-2.1818695068359375
1715093485051046000,5.1360458984375,4.629425048828125,-5.6860198974609375,-2.78521728515625
1715093485061025000,5.14602490234375,3.5568084716796875,-5.927825927734375,-2.452423095703125
1715093485071004400,5.15600439453125,2.2232513427734375,-6.2031707763671875,-1.7844390869140625
1715093485080953000,5.165953125,1.3589324951171875,-6.538360595703125,-1.612060546875
1715093485090932200,5.17593212890625,0.8202362060546875,-6.9477691650390625,-0.9129486083984375
1715093485100911600,5.18591162109375,0.841796875,-7.3763275146484375,-0.235382080078125
1715093485110860300,5.1958603515625,1.2583770751953125,-7.850372314453125,-0.1898956298828125
1715093485120839700,5.205839599609375,1.7013092041015625,-8.21429443359375,-0.45086669921875
1715093485130818800,5.21581884765625,2.4267578125,-8.355560302734375,-0.22821044921875
1715093485140798000,5.2257978515625,3.0205078125,-8.1185302734375,0.4014739990234375
1715093485150747000,5.235746826171875,3.4179534912109375,-7.7522125244140625,1.5171661376953125
1715093485160726000,5.24572607421875,3.310211181640625,-7.4194183349609375,2.8267974853515625
1715093485170705400,5.255705322265625,4.6174468994140625,-6.835235595703125,4.4333038330078125
1715093485180684500,5.2656845703125,5.424285888671875,-6.253448486328125,5.4412689208984375
1715093485190633200,5.27563330078125,5.634979248046875,-6.126556396484375,5.8482818603515625
1715093485200612600,5.285612548828125,5.30218505859375,-6.466522216796875,5.651947021484375
1715093485210591700,5.295591796875,4.4642181396484375,-7.010009765625,5.460418701171875
1715093485220571100,5.305571044921875,4.1936798095703125,-7.4601287841796875,6.06854248046875
1715093485230519800,5.315519775390625,5.4266815185546875,-8.685958862304688,6.6623077392578125
1715093485240499000,5.3254990234375,7.4114837646484375,-11.630828857421875,5.7285614013671875
1715093485250478300,5.335478271484375,9.334030151367188,-13.278030395507812,4.478790283203125
1715093485260427000,5.345427001953125,9.89666748046875,-13.505477905273438,4.4069671630859375
1715093485270406100,5.35540625,7.9884796142578125,-13.026641845703125,4.5697784423828125
1715093485280385500,5.365385498046875,4.830535888671875,-12.875808715820312,4.84271240234375
1715093485290334200,5.375334228515625,2.845733642578125,-13.3067626953125,4.3375396728515625
1715093485300313300,5.385313232421875,1.65582275390625,-14.357818603515625,3.3822479248046875
1715093485310262300,5.39526220703125,1.38287353515625,-15.016220092773438,1.498016357421875
1715093485320241400,5.405241455078125,0.647857666015625,-15.157485961914062,-0.41973876953125
1715093485330220800,5.415220703125,0.183380126953125,-15.617172241210938,-2.3446807861328125
1715093485340169500,5.42516943359375,1.121917724609375,-15.825469970703125,-2.9528045654296875
1715093485350148600,5.435148681640625,2.1921234130859375,-14.731307983398438,-1.0757598876953125
1715093485360128000,5.4451279296875,1.4906158447265625,-12.50469970703125,0.810882568359375
1715093485370076700,5.45507666015625,0.6670074462890625,-11.27886962890625,0.2027435302734375
1715093485380055800,5.465055908203125,-0.0105438232421875,-10.807220458984375,0.4373779296875
1715093485390035200,5.47503515625,-0.6186676025390625,-10.51751708984375,1.46209716796875
1715093485399983900,5.48498388671875,-1.698455810546875,-10.47442626953125,1.73504638671875
1715093485409963000,5.494962890625,-2.5986785888671875,-10.424148559570312,1.466888427734375
1715093485419942400,5.5049423828125,-1.9187164306640625,-10.072189331054688,2.1660003662109375
1715093485429921500,5.514921630859375,-1.4207305908203125,-10.112899780273438,1.9768524169921875
1715093485439870200,5.5248701171875,-0.3289794921875,-10.44329833984375,1.5052032470703125
1715093485449849600,5.534849609375,1.133880615234375,-11.044235229492188,0.7725677490234375
1715093485459828700,5.544828857421875,2.781097412109375,-11.178314208984375,0.0495147705078125
1715093485469808000,5.55480810546875,4.5480194091796875,-10.455276489257812,0.03515625
1715093485479787300,5.564787353515625,6.7674407958984375,-9.401824951171875,-0.0247039794921875
1715093485489736000,5.57473583984375,7.440216064453125,-8.180770874023438,-0.963226318359375
1715093485499715300,5.58471533203125,5.613433837890625,-7.010009765625,-1.5569915771484375
1715093485509694500,5.594694580078125,2.0556488037109375,-7.0076141357421875,-1.3630523681640625
1715093485519643400,5.604643310546875,0.2073211669921875,-6.593414306640625,0.8419952392578125
1715093485529622500,5.61462255859375,0.4922332763671875,-6.169647216796875,1.4788665771484375
1715093485539601700,5.6246015625,0.4706878662109375,-5.5016632080078125,0.9401702880859375
1715093485549550600,5.634550537109375,1.5289306640625,-5.144927978515625,0.2554168701171875
1715093485559529700,5.64452978515625,2.381256103515625,-5.1209869384765625,0.6145477294921875
1715093485569509000,5.654509033203125,2.9367218017578125,-5.4370269775390625,1.17718505859375
1715093485579457800,5.664457763671875,2.6637725830078125,-6.2486572265625,0.1907806396484375
1715093485589437000,5.67443701171875,1.229644775390625,-6.5048370361328125,0.9257965087890625
1715093485599416300,5.684416259765625,0.64306640625,-6.6269378662109375,2.03192138671875
1715093485609365000,5.694364990234375,0.4611053466796875,-6.7753753662109375,3.188323974609375
1715093485619344100,5.70434423828125,0.5185699462890625,-7.0746612548828125,3.5618133544921875
1715093485629323500,5.714323486328125,0.927978515625,-7.290130615234375,2.8579254150390625
1715093485639272200,5.724272216796875,1.4307708740234375,-7.955718994140625,3.4780120849609375
1715093485649251300,5.734251220703125,1.2464141845703125,-8.75299072265625,2.1396636962890625
1715093485659230700,5.744230712890625,1.1985321044921875,-8.937347412109375,1.8140411376953125
1715093485669179400,5.754179443359375,2.9031982421875,-9.816024780273438,1.5219573974609375
1715093485679158800,5.76415869140625,2.855316162109375,-10.179931640625,2.11572265625
1715093485689138000,5.774137939453125,2.8720703125,-10.41217041015625,2.03192138671875
1715093485699086600,5.784086669921875,3.2168426513671875,-10.153594970703125,2.4772491455078125
1715093485709066000,5.79406591796875,4.3588714599609375,-9.351547241210938,2.26416015625
1715093485719045000,5.804045166015625,5.5775146484375,-8.226272583007812,1.909820556640625
1715093485729024500,5.8140244140625,6.0659332275390625,-6.8232574462890625,1.4285736083984375
1715093485738973200,5.82397314453125,5.1681060791015625,-5.5447540283203125,1.076629638671875
1715093485748952300,5.833952392578125,3.9087677001953125,-4.6182098388671875,1.095794677734375
1715093485758931700,5.843931640625,2.85052490234375,-4.479339599609375,1.1197357177734375
1715093485768910800,5.853910888671875,2.019744873046875,-5.2742156982421875,1.3950653076171875
1715093485778859500,5.863859619140625,0.920806884765625,-7.510406494140625,2.290496826171875
1715093485788839000,5.8738388671875,1.6031494140625,-10.366683959960938,3.6815185546875
1715093485798818000,5.883818115234375,2.951080322265625,-12.389785766601562,4.5171051025390625
1715093485808766700,5.8937666015625,3.4825897216796875,-13.859817504882812,4.208251953125
1715093485818746000,5.90374609375,4.2319793701171875,-14.37457275390625,4.0885467529296875
1715093485828725200,5.913725341796875,4.610260009765625,-14.35302734375,4.1531829833984375
1715093485838674000,5.923673828125,5.105865478515625,-12.064178466796875,3.4397125244140625
1715093485848653300,5.9336533203125,4.3373260498046875,-9.476043701171875,3.094940185546875
1715093485858632400,5.943632568359375,3.35809326171875,-8.587799072265625,2.324005126953125
1715093485868581400,5.953581298828125,2.6087188720703125,-8.882278442382812,1.5770263671875
1715093485878560500,5.963560546875,1.9120025634765625,-8.685958862304688,1.107757568359375
1715093485888539600,5.97353955078125,-0.0009613037109375,-8.199935913085938,1.0311431884765625
1715093485898488600,5.983488525390625,-0.6857147216796875,-8.439346313476562,0.8994598388671875
1715093485908467700,5.9934677734375,-0.8126068115234375,-8.85833740234375,0.5187835693359375
1715093485918447000,6.003447021484375,-1.39678955078125,-9.550262451171875,-0.288055419921875
1715093485928395800,6.013395751953125,-1.6170501708984375,-10.59173583984375,-1.9903411865234375
1715093485938375000,6.023375,-1.435089111328125,-12.076141357421875,-3.4316558837890625
1715093485948354300,6.033354248046875,0.07086181640625,-13.71856689453125,-4.269622802734375
1715093485958303000,6.043302978515625,2.0556488037109375,-15.882919311523438,-3.625579833984375
1715093485968282000,6.0532822265625,3.8153839111328125,-18.8421630859375,-3.0485687255859375
1715093485978261500,6.063261474609375,3.7938385009765625,-20.824554443359375,-3.774017333984375
1715093485988210200,6.073210205078125,2.5416717529296875,-21.4111328125,-1.8466796875
1715093485998189300,6.083189208984375,0.6861724853515625,-20.429519653320312,0.8084869384765625
1715093486008168700,6.093168701171875,-2.7064208984375,-17.455917358398438,4.7230072021484375
1715093486018147800,6.10314794921875,-2.89794921875,-14.570907592773438,8.125167846679688
1715093486028096800,6.1130966796875,-5.22271728515625,-12.0928955078125,8.00067138671875
1715093486038076000,6.123075927734375,-4.6121978759765625,-8.252609252929688,10.279937744140625
1715093486048055000,6.133054931640625,-1.5739593505859375,-4.500885009765625,12.279098510742188
1715093486058034400,6.143034423828125,0.0469207763671875,-3.686859130859375,9.042144775390625
1715093486067983000,6.152983154296875,0.2001495361328125,-3.9693756103515625,5.7261810302734375
1715093486077962500,6.16296240234375,3.669342041015625,-5.176055908203125,2.8770751953125
1715093486087941600,6.172941650390625,4.4474639892578125,-5.4178619384765625,0.9138336181640625
1715093486097890300,6.182890380859375,3.8824310302734375,-5.0036773681640625,-0.6160736083984375
1715093486107869700,6.19286962890625,3.9877777099609375,-4.7786102294921875,-1.6000823974609375
1715093486117848800,6.202848876953125,4.0476226806640625,-4.14654541015625,-1.7916259765625
1715093486127797500,6.212797607421875,3.7148284912109375,-4.02923583984375,-2.284820556640625
1715093486137777000,6.22277685546875,3.20965576171875,-4.5344085693359375,-2.9623870849609375
1715093486147756000,6.232756103515625,2.44830322265625,-5.1999969482421875,-3.1994171142578125
1715093486157704700,6.24270458984375,1.471466064453125,-6.0714874267578125,-2.631988525390625
1715093486167684000,6.25268408203125,0.743621826171875,-6.7370758056640625,-2.0908966064453125
1715093486177663200,6.262663330078125,0.7867279052734375,-7.2613983154296875,-1.492340087890625
1715093486187612000,6.27261181640625,1.22247314453125,-8.029937744140625,-0.8626708984375
1715093486197591300,6.28259130859375,0.9591064453125,-8.824813842773438,-0.45086669921875
1715093486207570400,6.2925703125,1.4858245849609375,-9.04986572265625,-0.4365081787109375
1715093486217519400,6.302519287109375,2.6110992431640625,-8.630889892578125,0.0495147705078125
1715093486227498500,6.31249853515625,3.4179534912109375,-7.553497314453125,1.186767578125
1715093486237477600,6.3224775390625,3.19769287109375,-7.0076141357421875,2.259368896484375
1715093486247426600,6.332426513671875,4.0045318603515625,-6.370758056640625,3.9520721435546875
1715093486257405700,6.34240576171875,4.79461669921875,-5.5639190673828125,5.1060791015625
1715093486267385000,6.352385009765625,5.613433837890625,-4.9486083984375,6.063751220703125
1715093486277333800,6.362333740234375,6.1712799072265625,-4.9246673583984375,6.698211669921875
1715093486287313000,6.37231298828125,5.6900482177734375,-5.683624267578125,6.6311798095703125
1715093486297292300,6.382292236328125,5.0507965087890625,-7.0602874755859375,6.442047119140625
1715093486307271400,6.392271484375,6.0132598876953125,-9.737014770507812,6.178680419921875
1715093486317250800,6.402250732421875,7.547943115234375,-13.790390014648438,4.0957183837890625
1715093486327199500,6.412199462890625,9.85595703125,-14.920455932617188,2.9321441650390625
1715093486337178600,6.4221787109375,11.02911376953125,-13.778427124023438,3.1284637451171875
1715093486347158000,6.432157958984375,8.414657592773438,-11.5853271484375,3.940093994140625
1715093486357106700,6.442106689453125,3.9135589599609375,-10.2733154296875,3.57379150390625
1715093486367085800,6.4520859375,1.165008544921875,-9.806442260742188,3.712646484375
1715093486377065200,6.462065185546875,0.6981353759765625,-12.406539916992188,3.3966217041015625
1715093486387014000,6.472013916015625,0.3318328857421875,-14.135162353515625,2.42218017578125
1715093486396993000,6.481992919921875,-1.708038330078125,-15.246063232421875,1.043121337890625
1715093486406972400,6.491972412109375,-1.655364990234375,-17.312255859375,-1.260101318359375
1715093486416921000,6.501921142578125,0.9184112548828125,-18.667388916015625,-1.7796478271484375
1715093486426900500,6.511900390625,1.6055450439453125,-19.024124145507812,-1.248138427734375
1715093486436879600,6.521879638671875,2.3022613525390625,-15.966720581054688,0.358367919921875
1715093486446828300,6.531828369140625,1.3110504150390625,-12.626815795898438,0.727081298828125
1715093486456807700,6.5418076171875,1.0333251953125,-10.651596069335938,0.7462310791015625
1715093486466786800,6.551786865234375,0.3797149658203125,-9.303665161132812,1.46209716796875
1715093486476735500,6.561735595703125,-1.0663909912109375,-8.575820922851562,1.837982177734375
1715093486486715000,6.57171484375,-2.1342010498046875,-8.693130493164062,1.7589874267578125
1715093486496694000,6.581694091796875,-2.62261962890625,-9.246200561523438,1.1484527587890625
1715093486506642700,6.591642578125,-2.110260009765625,-9.763351440429688,0.6624298095703125
1715093486516622000,6.6016220703125,0.1474761962890625,-10.072189331054688,0.569061279296875
1715093486526601200,6.611601318359375,2.1657867431640625,-10.393020629882812,0.463714599609375
1715093486536550100,6.621550048828125,4.16973876953125,-10.6324462890625,-0.2808837890625
1715093486546529300,6.631529296875,5.1872711181640625,-10.63482666015625,-0.4532623291015625
1715093486556508400,6.64150830078125,4.9861602783203125,-10.235000610351562,-0.340728759765625
1715093486566487800,6.65148779296875,3.7938385009765625,-9.574203491210938,-0.9752044677734375
1715093486576436500,6.6614365234375,2.6158905029296875,-8.554275512695312,-1.5258636474609375
1715093486586415600,6.67141552734375,2.0819854736328125,-7.3715362548828125,-1.413330078125
1715093486596395000,6.68139501953125,2.623077392578125,-6.6365203857421875,0.609771728515625
1715093486606374100,6.6913740234375,2.833770751953125,-6.200775146484375,2.4413299560546875
1715093486616353500,6.701353515625,0.28155517578125,-5.6644744873046875,3.1548004150390625
1715093486626302200,6.71130224609375,1.102752685546875,-5.25506591796875,1.4812469482421875
1715093486636281300,6.72128125,2.316619873046875,-4.9940948486328125,1.2921142578125
1715093486646260700,6.7312607421875,1.275146484375,-5.3963165283203125,0.9401702880859375
1715093486656209400,6.74120947265625,0.990234375,-6.0499420166015625,0.8779144287109375
1715093486666188800,6.751188720703125,1.1817626953125,-6.392303466796875,1.572235107421875
1715093486676168000,6.76116796875,0.4515380859375,-6.6269378662109375,2.7429962158203125
1715093486686116600,6.77111669921875,1.0141754150390625,-6.634124755859375,3.2697296142578125
1715093486696096000,6.781095947265625,2.273529052734375,-7.2015533447265625,2.7406005859375
1715093486706075100,6.7910751953125,1.25360107421875,-7.4194183349609375,2.7406005859375
1715093486716023800,6.80102392578125,0.5880126953125,-7.9988250732421875,2.810028076171875
1715093486726003200,6.811003173828125,1.3254241943359375,-8.726654052734375,1.835601806640625
1715093486735982300,6.820982421875,2.1035308837890625,-9.531112670898438,1.878692626953125
1715093486745931000,6.830930908203125,2.16339111328125,-9.995574951171875,1.9720611572265625
1715093486755910400,6.840910400390625,1.9287567138671875,-10.38104248046875,1.962493896484375
1715093486765889500,6.8508896484375,1.9335479736328125,-10.704269409179688,2.1468353271484375
1715093486775838500,6.86083837890625,2.4411163330078125,-10.819183349609375,2.1181182861328125
1715093486785817600,6.870817626953125,3.743560791015625,-10.404983520507812,1.8667144775390625
1715093486795796700,6.880796630859375,5.244720458984375,-9.219863891601562,1.392669677734375
1715093486805745700,6.89074560546875,6.0324249267578125,-7.5128021240234375,1.038330078125
1715093486815724800,6.900724853515625,6.0491790771484375,-5.7482757568359375,0.74383544921875
1715093486825704200,6.9107041015625,5.158538818359375,-4.4601898193359375,0.6073760986328125
1715093486835652900,6.92065283203125,3.8417205810546875,-3.7275543212890625,0.62652587890625
1715093486845632000,6.930632080078125,2.3932342529296875,-3.9310760498046875,0.9329833984375
1715093486855611400,6.940611328125,1.545684814453125,-5.2478790283203125,1.61053466796875
1715093486865560000,6.95056005859375,0.6119537353515625,-8.173599243164062,2.7693328857421875
1715093486875539200,6.960539306640625,1.8641204833984375,-10.986785888671875,4.2178192138671875
1715093486885518600,6.9705185546875,3.183319091796875,-11.896575927734375,3.9113616943359375
1715093486895497700,6.980497802734375,3.652587890625,-12.667510986328125,3.327178955078125
1715093486905477000,6.99047705078125,3.563995361328125,-13.555755615234375,3.80841064453125
1715093486915425800,7.00042578125,4.0524139404296875,-12.739334106445312,3.1978912353515625
1715093486925405000,7.010405029296875,3.74835205078125,-10.419357299804688,2.934539794921875
1715093486935384300,7.02038427734375,3.183319091796875,-9.801651000976562,2.407806396484375
1715093486945333000,7.0303330078125,2.084381103515625,-10.515121459960938,2.070220947265625
1715093486955312000,7.04031201171875,1.7491912841796875,-10.692291259765625,2.26416015625
1715093486965291500,7.05029150390625,0.5113983154296875,-10.658782958984375,2.1779632568359375
1715093486975240200,7.060240234375,-0.28826904296875,-10.785675048828125,1.6632080078125
1715093486985219300,7.07021923828125,-1.487762451171875,-10.850311279296875,1.045501708984375
1715093486995198700,7.08019873046875,-1.930694580078125,-10.742568969726562,-0.0414581298828125
1715093487005147400,7.0901474609375,-1.176513671875,-11.1519775390625,-1.0877227783203125
1715093487015126800,7.100126708984375,-0.2643280029296875,-12.136001586914062,-2.7780303955078125
1715093487025106000,7.11010595703125,0.2121124267578125,-13.567733764648438,-3.455596923828125
1715093487035054600,7.1200546875,1.1578216552734375,-15.164657592773438,-2.6248016357421875
1715093487045034000,7.130033935546875,1.44512939453125,-17.091995239257812,-1.6958465576171875
1715093487055013000,7.14001318359375,2.2088775634765625,-18.341766357421875,-1.9544219970703125
1715093487064961800,7.1499619140625,1.7851104736328125,-19.024124145507812,-1.734161376953125
1715093487074941200,7.159941162109375,0.94952392578125,-18.377685546875,0.3009185791015625
1715093487084920300,7.16992041015625,-0.7335968017578125,-16.584426879882812,2.9704437255859375
1715093487094869000,7.179868896484375,-2.23236083984375,-14.508651733398438,6.389373779296875
1715093487104848400,7.189848388671875,-3.5850830078125,-12.31317138671875,9.367752075195312
1715093487114827500,7.19982763671875,-5.7255096435546875,-10.2733154296875,10.500213623046875
1715093487124776400,7.2097763671875,-5.1676483154296875,-8.113739013671875,8.570480346679688
1715093487134755600,7.219755615234375,-2.4095306396484375,-5.2957611083984375,8.14910888671875
1715093487144734700,7.229734619140625,-1.054412841796875,-3.9478302001953125,8.048553466796875
1715093487154714000,7.239714111328125,1.9431304931640625,-3.2606964111328125,6.2935943603515625
1715093487164662800,7.249662841796875,4.631805419921875,-3.9741668701171875,3.4468994140625
1715093487174642200,7.25964208984375,4.8448944091796875,-4.6038360595703125,-0.0630035400390625
1715093487184621300,7.269621337890625,4.430694580078125,-4.7834014892578125,-1.861053466796875
1715093487194600400,7.279600341796875,3.9303131103515625,-4.8624114990234375,-2.7564849853515625
1715093487204549400,7.28954931640625,3.985382080078125,-4.7379150390625,-3.0892791748046875
1715093487214528500,7.299528564453125,3.9805908203125,-4.43145751953125,-3.2544708251953125
1715093487224508000,7.3095078125,3.5711822509765625,-4.5559539794921875,-3.1587066650390625
1715093487234456600,7.31945654296875,2.7164459228515625,-4.9605712890625,-2.3494720458984375
1715093487244435700,7.329435791015625,1.5696258544921875,-5.5279998779296875,-1.6527557373046875
1715093487254415000,7.3394150390625,0.6406707763671875,-6.3635711669921875,-1.375030517578125
1715093487264363800,7.34936376953125,0.4850616455078125,-7.426605224609375,-1.3247528076171875
1715093487274343000,7.359343017578125,1.143463134765625,-8.470474243164062,-0.9512481689453125
1715093487284322300,7.369322265625,1.55047607421875,-9.382659912109375,-0.4748077392578125
1715093487294271000,7.37927099609375,1.1410675048828125,-9.986007690429688,-0.4412841796875
1715093487304250000,7.38925,1.40203857421875,-9.737014770507812,0.109375
1715093487314229500,7.3992294921875,2.560821533203125,-9.033111572265625,0.83721923828125
1715093487324178200,7.40917822265625,3.38922119140625,-8.247817993164062,1.8188323974609375
1715093487334157300,7.4191572265625,3.7363739013671875,-7.5199737548828125,3.169158935546875
1715093487344136700,7.42913671875,4.112274169921875,-6.88311767578125,4.4500579833984375
1715093487354085400,7.43908544921875,4.9286956787109375,-6.160064697265625,5.534637451171875
1715093487364064800,7.449064697265625,5.548797607421875,-5.5375823974609375,6.5234375
1715093487374044000,7.4590439453125,5.8336944580078125,-5.355621337890625,6.9855194091796875
1715093487383992600,7.46899267578125,5.29022216796875,-6.2199249267578125,6.0876922607421875
1715093487393972000,7.478971923828125,5.9653778076171875,-7.563079833984375,6.0350189208984375
1715093487403951000,7.488951171875,8.019607543945312,-10.608505249023438,5.13720703125
1715093487413899800,7.498899658203125,10.011581420898438,-13.041000366210938,3.9664306640625
1715093487423879200,7.508879150390625,10.066650390625,-13.31634521484375,3.6671600341796875
1715093487433858300,7.5188583984375,7.97412109375,-12.358657836914062,4.0909271240234375
1715093487443837700,7.528837646484375,5.3548583984375,-11.216629028320312,3.6312408447265625
1715093487453816800,7.53881689453125,4.018890380859375,-10.649200439453125,3.6049041748046875
1715093487463765500,7.548765625,2.771514892578125,-11.9755859375,4.6344146728515625
1715093487473745000,7.558744873046875,1.4594879150390625,-14.029815673828125,4.1053009033203125
1715093487483724000,7.56872412109375,-0.8030242919921875,-15.803909301757812,1.95770263671875
1715093487493672700,7.578672607421875,-1.708038330078125,-18.152633666992188,0.1333160400390625
1715093487503652000,7.588652099609375,-1.3441162109375,-19.94110107421875,-1.12603759765625
1715093487513631200,7.59863134765625,-0.271514892578125,-19.546051025390625,-0.096527099609375
1715093487523580200,7.608580078125,1.4427337646484375,-16.8238525390625,0.293731689453125
1715093487533559300,7.618559326171875,1.0333251953125,-13.531814575195312,0.030364990234375
1715093487543538400,7.628538330078125,0.0277557373046875,-11.52069091796875,0.779754638671875
1715093487553487400,7.6384873046875,-0.7503509521484375,-10.500762939453125,1.4261932373046875
1715093487563466500,7.648466552734375,-1.2579193115234375,-9.911788940429688,1.62969970703125
1715093487573446000,7.65844580078125,-1.2411651611328125,-9.866302490234375,1.1101531982421875
1715093487583394600,7.66839453125,-1.559600830078125,-9.811233520507812,0.4828643798828125
1715093487593373700,7.678373779296875,-0.7982330322265625,-9.65081787109375,0.05670166015625
1715093487603353000,7.68835302734375,0.499420166015625,-9.284500122070312,-0.000762939453125
1715093487613301800,7.6983017578125,1.9598846435546875,-9.68194580078125,-1.8897857666015625
1715093487623281000,7.708281005859375,5.5152740478515625,-10.0003662109375,-3.2329254150390625
1715093487633260300,7.71826025390625,5.6589202880859375,-9.82080078125,-2.7732391357421875
1715093487643209000,7.728208984375,5.0819244384765625,-9.58856201171875,-2.5242462158203125
1715093487653188000,7.73818798828125,3.6884918212890625,-8.745803833007812,-1.765289306640625
1715093487663167500,7.74816748046875,2.718841552734375,-7.6109619140625,-0.4053802490234375
1715093487673116200,7.7581162109375,2.785888671875,-6.72509765625,-0.027099609375
1715093487683095600,7.768095458984375,2.5727996826171875,-6.370758056640625,0.8874969482421875
1715093487693074700,7.77807470703125,1.04290771484375,-5.7291107177734375,1.581817626953125
1715093487703023400,7.7880234375,0.985443115234375,-5.28857421875,1.16522216796875
1715093487713002800,7.798002685546875,1.37091064453125,-4.795379638671875,1.3663330078125
1715093487722982000,7.80798193359375,1.0453033447265625,-4.5870819091796875,1.7661590576171875
1715093487732961000,7.8179609375,0.741241455078125,-4.6613006591796875,1.9648895263671875
1715093487742940400,7.8279404296875,0.8824920654296875,-5.101837158203125,2.1923370361328125
1715093487752889000,7.83788916015625,0.2863311767578125,-5.621368408203125,2.5155487060546875
1715093487762868500,7.847868408203125,-0.1254730224609375,-6.0283966064453125,3.07818603515625
1715093487772847600,7.85784765625,-0.9730072021484375,-6.1241607666015625,3.9353179931640625
1715093487782826800,7.86782666015625,1.5528717041015625,-7.7474212646484375,3.93292236328125
1715093487792775700,7.877775634765625,0.8298187255859375,-8.779327392578125,1.943328857421875
1715093487802754800,7.8877548828125,1.002197265625,-9.203094482421875,1.667999267578125
1715093487812734200,7.897734130859375,2.613494873046875,-9.866302490234375,2.2617645263671875
1715093487822683000,7.907682861328125,2.92474365234375,-10.694686889648438,1.9241790771484375
1715093487832662000,7.917662109375,2.6566009521484375,-11.216629028320312,1.593780517578125
1715093487842641400,7.927641357421875,2.6182861328125,-11.523086547851562,1.7972869873046875
1715093487852590000,7.937590087890625,2.6925048828125,-11.321975708007812,2.206695556640625
1715093487862569200,7.9475693359375,3.638214111328125,-10.407379150390625,2.3719024658203125
1715093487872548600,7.957548583984375,4.9861602783203125,-9.033111572265625,2.0199432373046875
1715093487882497300,7.967497314453125,5.93426513671875,-7.2350616455078125,1.8715057373046875
1715093487892476400,7.977476318359375,5.7594757080078125,-5.504058837890625,1.9409332275390625
1715093487902455800,7.987455810546875,4.768280029296875,-4.335693359375,1.921783447265625
1715093487912404500,7.997404541015625,3.425140380859375,-3.8784027099609375,1.79010009765625
1715093487922384000,8.0073837890625,2.022125244140625,-4.19921875,1.636871337890625
1715093487932363000,8.017363037109375,1.62469482421875,-5.3963165283203125,1.756591796875
1715093487942311700,8.027311767578125,1.9814300537109375,-6.7682037353515625,4.1579742431640625
1715093487952291000,8.037291015625,1.006988525390625,-11.410552978515625,1.3040771484375
1715093487962270200,8.047270263671875,3.003753662109375,-13.06494140625,4.6655426025390625
1715093487972219000,8.057218994140625,3.7028656005859375,-13.318740844726562,4.624847412109375
1715093487982198300,8.0671982421875,4.3469085693359375,-13.512664794921875,3.5713958740234375
1715093487992177400,8.077177490234375,4.0835418701171875,-13.330703735351562,3.55462646484375
1715093488002126000,8.0871259765625,4.0093231201171875,-11.702651977539062,3.3223876953125
1715093488012105500,8.09710546875,3.36767578125,-9.52392578125,2.7789154052734375
1715093488022084600,8.107084716796875,2.5775909423828125,-8.666793823242188,2.13726806640625
1715093488032064000,8.11706396484375,1.56243896484375,-9.222259521484375,1.8236236572265625
1715093488042043100,8.127043212890625,0.880096435546875,-9.442520141601562,2.312042236328125
1715093488051991800,8.13699169921875,-0.3265838623046875,-9.224655151367188,2.565826416015625
1715093488061971200,8.14697119140625,-1.1789093017578125,-9.559844970703125,2.2138824462890625
1715093488071950300,8.156950439453125,-1.894775390625,-10.117691040039062,1.45013427734375
1715093488081899300,8.166899169921875,-2.004913330078125,-10.594131469726562,0.2769775390625
1715093488091878400,8.17687841796875,-1.2698974609375,-11.2261962890625,-1.7054290771484375
1715093488101857500,8.186857421875,-1.181304931640625,-12.392181396484375,-3.5800933837890625
1715093488111806500,8.196806396484375,-0.012939453125,-14.57330322265625,-4.535369873046875
1715093488121785600,8.20678564453125,1.651031494140625,-16.974685668945312,-3.6710662841796875
1715093488131764700,8.2167646484375,1.9910125732421875,-19.251571655273438,-2.4236907958984375
1715093488141713700,8.226713623046875,2.613494873046875,-20.453460693359375,-1.6096649169921875
1715093488151692800,8.23669287109375,2.7356109619140625,-20.73358154296875,-1.5569915771484375
1715093488161672200,8.246672119140625,0.868133544921875,-19.737594604492188,-0.69268798828125
1715093488171620900,8.256620849609375,-1.50213623046875,-17.008193969726562,3.2122650146484375
1715093488181600000,8.26660009765625,-1.9163360595703125,-14.297958374023438,7.701385498046875
1715093488191579400,8.276579345703125,-4.75823974609375,-12.174301147460938,9.81787109375
1715093488201528000,8.286528076171875,-6.4892578125,-10.364288330078125,8.996658325195312
1715093488211507200,8.296507080078126,-4.8109130859375,-7.1800079345703125,7.9408111572265625
1715093488221486600,8.306486572265625,-1.31298828125,-4.10345458984375,9.619140625
1715093488231435300,8.316435302734375,-1.0663909912109375,-3.4187164306640625,8.355010986328125
1715093488241414400,8.326414306640626,2.242401123046875,-3.1673126220703125,5.398162841796875
1715093488251393800,8.336393798828125,4.4905548095703125,-4.0795135498046875,2.5634307861328125
1715093488261342500,8.346342529296875,4.808990478515625,-4.2902069091796875,0.231475830078125
1715093488271321900,8.35632177734375,4.34930419921875,-4.469757080078125,-1.808380126953125
1715093488281301000,8.366301025390625,3.836944580078125,-4.352447509765625,-2.8666229248046875
1715093488291280100,8.376280029296876,3.86566162109375,-4.0938720703125,-3.414886474609375
1715093488301229000,8.38622900390625,3.880035400390625,-4.2399139404296875,-4.2672271728515625
1715093488311208200,8.396208251953125,3.6406097412109375,-4.553558349609375,-4.3414459228515625
1715093488321187600,8.4061875,2.6733551025390625,-4.6182098388671875,-3.3167266845703125
1715093488331166700,8.416166748046875,1.4954071044921875,-5.0252227783203125,-1.956817626953125
1715093488341145900,8.426145751953126,0.415618896484375,-5.810516357421875,-1.54022216796875
1715093488351094800,8.4360947265625,0.2647857666015625,-6.7801666259765625,-1.30560302734375
1715093488361074000,8.446073974609375,1.1266937255859375,-7.9533233642578125,-0.9512481689453125
1715093488371053300,8.45605322265625,1.6917266845703125,-8.860733032226562,-0.6424102783203125
1715093488381002000,8.466001953125,1.5744171142578125,-9.279708862304688,-0.5849456787109375
1715093488390981000,8.475981201171875,2.0029754638671875,-9.7154541015625,-0.2952423095703125
1715093488400929800,8.4859296875,3.2910614013671875,-9.569412231445312,0.8156585693359375
1715093488410909200,8.4959091796875,3.765106201171875,-8.992416381835938,2.3144378662109375
1715093488420888300,8.505888427734375,3.8513031005859375,-8.38427734375,4.1771240234375
1715093488430837200,8.515837158203125,4.588714599609375,-7.6995391845703125,5.96319580078125
1715093488440816400,8.52581640625,5.3309173583984375,-6.8639678955078125,7.0621337890625
1715093488450795500,8.53579541015625,5.6110382080078125,-6.1097869873046875,7.8402557373046875
1715093488460744400,8.545744384765625,5.3452911376953125,-6.085845947265625,7.57928466796875
1715093488470723600,8.5557236328125,4.6964569091796875,-6.91424560546875,6.6575164794921875
1715093488480703000,8.565702880859375,5.115447998046875,-8.111343383789062,6.0350189208984375
1715093488490651600,8.575651611328125,6.4298553466796875,-10.840728759765625,4.52667236328125
1715093488500630800,8.585630859375,8.728286743164062,-13.342681884765625,2.6208953857421875
1715093488510610200,8.595610107421875,10.856735229492188,-13.515060424804688,2.4365386962890625
1715093488520558800,8.605558837890625,9.700332641601562,-12.188674926757812,3.832366943359375
1715093488530538000,8.6155380859375,6.468170166015625,-10.589340209960938,3.6934967041015625
1715093488540517400,8.625517333984375,3.9566497802734375,-9.562225341796875,3.1859283447265625
1715093488550466000,8.635466064453125,2.95587158203125,-10.934112548828125,3.7940521240234375
1715093488560445200,8.645445068359376,2.5321044921875,-13.809539794921875,3.652801513671875
1715093488570424600,8.655424560546875,0.3892822265625,-15.159881591796875,1.8403778076171875
1715093488580403700,8.66540380859375,-1.36566162109375,-16.989044189453125,0.0782470703125
1715093488590383000,8.675383056640625,-0.874847412109375,-19.045669555664062,-1.025482177734375
1715093488600331800,8.685331787109375,-1.2411651611328125,-19.744766235351562,-0.53466796875
1715093488610311000,8.695310791015626,0.07086181640625,-18.016159057617188,0.6337127685546875
1715093488620290300,8.705290283203125,0.78912353515625,-14.599624633789062,0.7510223388671875
1715093488630269400,8.71526953125,0.1426849365234375,-12.083328247070312,1.2298583984375
1715093488640218000,8.725218017578126,-0.735992431640625,-10.7066650390625,1.6320953369140625
1715093488650197500,8.735197509765625,-0.7072601318359375,-9.890243530273438,1.7326507568359375
1715093488660176600,8.7451767578125,-1.09033203125,-9.5550537109375,1.4333648681640625
1715093488670125600,8.75512548828125,-1.36566162109375,-9.51434326171875,1.023956298828125
1715093488680104700,8.765104736328125,-1.001739501953125,-9.203094482421875,0.6815948486328125
1715093488690083800,8.775083740234376,0.362945556640625,-8.9852294921875,0.19317626953125
1715093488700032800,8.78503271484375,1.502593994140625,-8.877487182617188,-1.078155517578125
1715093488710012000,8.795011962890625,4.3588714599609375,-8.997207641601562,-1.7293701171875
1715093488719991300,8.8049912109375,5.7738494873046875,-9.1217041015625,-1.8203582763671875
1715093488729940000,8.81493994140625,5.1082611083984375,-9.088180541992188,-1.3941802978515625
1715093488739919000,8.824919189453125,3.911163330078125,-8.851150512695312,-1.300811767578125
1715093488749898500,8.8348984375,2.601531982421875,-7.9724884033203125,-0.75732421875
1715093488759847200,8.84484716796875,2.07958984375,-6.94537353515625,0.305694580078125
1715093488769826300,8.854826416015625,2.6685638427734375,-6.5311737060546875,1.55548095703125
1715093488779805700,8.8648056640625,2.3046417236328125,-6.1289520263671875,2.268951416015625
1715093488789754400,8.87475439453125,2.0245208740234375,-5.429840087890625,2.64483642578125
1715093488799733500,8.8847333984375,1.1410675048828125,-4.76904296875,2.8124237060546875
1715093488809713000,8.894712890625,0.8202362060546875,-4.8001708984375,1.6201171875
1715093488819661600,8.90466162109375,0.7915191650390625,-5.132965087890625,1.476470947265625
1715093488829641000,8.914640869140625,0.4970245361328125,-5.451385498046875,1.6799774169921875
1715093488839620000,8.9246201171875,0.2599945068359375,-5.7817840576171875,2.1660003662109375
1715093488849568800,8.93456884765625,0.00860595703125,-6.5096282958984375,2.3695068359375
1715093488859548200,8.944548095703125,-0.0368804931640625,-6.7897491455078125,3.200286865234375
1715093488869527300,8.95452734375,-0.230804443359375,-7.5247650146484375,3.8179931640625
1715093488879506700,8.964506591796875,1.86651611328125,-8.695526123046875,2.6472320556640625
1715093488889455400,8.974455322265625,0.6550445556640625,-9.090576171875,1.409423828125
1715093488899434500,8.9844345703125,1.6630096435546875,-9.363510131835938,2.1133270263671875
1715093488909414000,8.994413818359375,2.47943115234375,-10.1368408203125,2.249786376953125
1715093488919393000,9.00439306640625,2.4099884033203125,-11.0035400390625,1.383087158203125
1715093488929341700,9.014341796875,2.0771942138671875,-11.441680908203125,0.99761962890625
1715093488939321000,9.024321044921875,1.9431304931640625,-11.525482177734375,1.35675048828125
1715093488949300200,9.03430029296875,2.3980255126953125,-10.958053588867188,1.890655517578125
1715093488959249000,9.044248779296876,3.552032470703125,-9.942916870117188,1.5865936279296875
1715093488969228300,9.054228271484375,5.031646728515625,-8.290908813476562,0.990447998046875
1715093488979207400,9.06420751953125,5.8648223876953125,-6.3731536865234375,0.6337127685546875
1715093488989156000,9.074156005859376,5.5464019775390625,-4.71636962890625,0.6983489990234375
1715093488999135500,9.084135498046875,4.8496856689453125,-3.59588623046875,0.7965087890625
1715093489009114600,9.094114501953126,3.7459564208984375,-3.2463226318359375,1.0478973388671875
1715093489019063600,9.1040634765625,3.0899505615234375,-3.9526214599609375,1.1676177978515625
1715093489029042700,9.114042724609375,2.0771942138671875,-5.946990966796875,1.6943359375
1715093489039021800,9.124021728515626,1.694122314453125,-8.8487548828125,3.61688232421875
1715093489048970800,9.133970703125,3.226409912109375,-10.512725830078125,5.809967041015625
1715093489058950000,9.143949951171875,1.92156982421875,-13.29718017578125,2.946502685546875
1715093489068929300,9.15392919921875,3.6813201904296875,-14.068115234375,4.6416015625
1715093489078878000,9.1638779296875,3.923126220703125,-14.446395874023438,4.8810272216796875
1715093489088857000,9.173857177734375,3.97100830078125,-13.364227294921875,3.9353179931640625
1715093489098836500,9.18383642578125,3.604705810546875,-10.31640625,3.4660491943359375
1715093489108785200,9.19378515625,2.7379913330078125,-8.798477172851562,3.094940185546875
1715093489118764300,9.203764404296875,1.9814300537109375,-9.2078857421875,2.3719024658203125
1715093489128743700,9.21374365234375,1.2440185546875,-9.382659912109375,1.8739013671875
1715093489138692400,9.2236923828125,-0.5229034423828125,-8.96368408203125,1.720672607421875
1715093489148671500,9.23367138671875,-1.1956787109375,-8.97564697265625,1.5435028076171875
1715093489158651000,9.24365087890625,-2.0384368896484375,-9.459274291992188,1.361541748046875
1715093489168630000,9.253630126953125,-2.1988525390625,-10.112899780273438,0.33203125
1715093489178609400,9.263609375,-1.39678955078125,-10.965240478515625,-1.3510894775390625
1715093489188558000,9.27355810546875,-0.822174072265625,-12.243743896484375,-2.837890625
1715093489198537200,9.283537109375,-0.0799713134765625,-14.367401123046875,-3.69500732421875
1715093489208516600,9.2935166015625,1.0261383056640625,-16.737655639648438,-2.9839324951171875
1715093489218495700,9.303495849609375,1.70849609375,-19.450286865234375,-2.1172332763671875
1715093489228444700,9.313444580078125,2.2088775634765625,-20.9658203125,-2.2800445556640625
1715093489238423800,9.323423828125,2.1250762939453125,-20.949050903320312,-2.4596099853515625
1715093489248372500,9.33337255859375,1.4116058349609375,-19.608306884765625,-1.1715240478515625
1715093489258351900,9.343351806640625,-0.8868255615234375,-16.895675659179688,1.68475341796875
1715093489268331000,9.3533310546875,-2.2563018798828125,-14.283599853515625,5.5394287109375
1715093489278279700,9.36327978515625,-2.902740478515625,-11.973190307617188,8.692596435546875
1715093489288259000,9.373259033203125,-4.3679962158203125,-10.024307250976562,9.159454345703125
1715093489298238200,9.38323828125,-4.391937255859375,-7.859954833984375,7.6439361572265625
1715093489308187000,9.393186767578126,-2.5460052490234375,-5.3891448974609375,6.9543914794921875
1715093489318166300,9.403166259765625,1.050079345703125,-3.1409759521484375,8.26641845703125
1715093489328145400,9.4131455078125,2.71405029296875,-3.191253662109375,5.6136474609375
1715093489338094000,9.423093994140626,3.2335968017578125,-3.270263671875,3.87066650390625
1715093489348073500,9.433073486328125,4.0691680908203125,-4.19921875,1.835601806640625
1715093489358052600,9.443052490234376,3.468231201171875,-4.91748046875,-0.381439208984375
1715093489368001500,9.45300146484375,3.4107666015625,-5.04437255859375,-2.0382232666015625
1715093489377980700,9.462980712890625,3.5017547607421875,-4.83367919921875,-3.077301025390625
1715093489387959800,9.472959716796876,3.932708740234375,-4.7307281494140625,-3.6279754638671875
1715093489397908700,9.48290869140625,4.10748291015625,-5.053955078125,-4.0038604736328125
1715093489407888000,9.492887939453125,3.5089263916015625,-5.65728759765625,-4.14990234375
1715093489417867300,9.5028671875,1.9814300537109375,-6.1026153564453125,-2.833099365234375
1715093489427846400,9.512846435546875,0.51617431640625,-6.7634124755859375,-1.3295440673828125
1715093489437795000,9.522795166015625,-0.175750732421875,-7.6253204345703125,-0.687896728515625
1715093489447774500,9.5327744140625,0.437164306640625,-8.618911743164062,-0.0079345703125
1715093489457753600,9.542753662109375,1.397247314453125,-9.313232421875,0.2338714599609375
1715093489467733000,9.55273291015625,1.2200775146484375,-9.543075561523438,0.3009185791015625
1715093489477712100,9.562712158203125,1.2248687744140625,-9.116912841796875,0.6480712890625
1715093489487660800,9.572660888671875,2.2352142333984375,-8.197540283203125,1.3639373779296875
1715093489497640200,9.58264013671875,3.1114959716796875,-7.256622314453125,2.628082275390625
1715093489507619300,9.592619384765625,3.257537841796875,-6.5886383056640625,3.4875946044921875
1715093489517568000,9.602568115234375,4.155364990234375,-5.87994384765625,4.4285125732421875
1715093489527547400,9.61254736328125,5.1465606689453125,-5.18084716796875,5.1563568115234375
1715093489537526500,9.622526611328125,6.23114013671875,-4.6565093994140625,5.8913726806640625
1715093489547475200,9.63247509765625,6.4514007568359375,-4.8312835693359375,5.4316864013671875
1715093489557454600,9.64245458984375,5.929473876953125,-6.30133056640625,4.859466552734375
1715093489567433700,9.652433837890625,6.1545257568359375,-8.757781982421875,5.30718994140625
1715093489577382700,9.662382568359375,7.672454833984375,-12.243743896484375,4.3279571533203125
1715093489587361800,9.67236181640625,9.994827270507812,-13.620407104492188,3.918548583984375
1715093489597341000,9.6823408203125,10.332412719726562,-13.017059326171875,3.9640350341796875
1715093489607289900,9.692289794921875,8.35479736328125,-10.673141479492188,4.627227783203125
1715093489617269000,9.70226904296875,5.242340087890625,-9.097763061523438,3.9041900634765625
1715093489627248400,9.712248291015625,2.453094482421875,-8.053878784179688,4.5027313232421875
1715093489637197000,9.722197021484375,1.2057037353515625,-9.262954711914062,4.943267822265625
1715093489647176200,9.73217626953125,0.4658966064453125,-12.28204345703125,3.97601318359375
1715093489657155600,9.742155517578125,-2.100677490234375,-14.417678833007812,2.1995086669921875
1715093489667104300,9.752104248046875,-3.747894287109375,-17.06805419921875,0.0423431396484375
1715093489677083400,9.76208349609375,-1.475799560546875,-21.052001953125,-0.9177398681640625
1715093489687062800,9.772062744140625,0.8082733154296875,-23.446212768554688,-1.470794677734375
1715093489697011500,9.782011474609375,2.2088775634765625,-22.014480590820312,-0.7693023681640625
1715093489706990600,9.791990478515626,2.328582763671875,-15.899688720703125,-0.3215789794921875
1715093489716970000,9.801969970703125,1.99578857421875,-11.23577880859375,0.6289215087890625
1715093489726949000,9.81194921875,0.202545166015625,-9.373092651367188,0.58343505859375
1715093489736897800,9.821897705078126,-0.894012451171875,-8.630889892578125,1.0742340087890625
1715093489746877200,9.831877197265625,-1.5524139404296875,-8.274154663085938,1.095794677734375
1715093489756856300,9.841856201171876,-2.14617919921875,-8.058670043945312,1.117340087890625
1715093489766835700,9.851835693359375,-2.194061279296875,-7.9796600341796875,0.949737548828125
1715093489776784400,9.861784423828125,-0.429534912109375,-8.10894775390625,0.394287109375
1715093489786763500,9.871763427734376,1.6222991943359375,-9.03790283203125,-0.9177398681640625
1715093489796743000,9.881742919921875,2.9319305419921875,-10.172760009765625,-1.4372711181640625
1715093489806691600,9.891691650390625,5.0244598388671875,-11.302810668945312,-1.406158447265625
1715093489816671000,9.9016708984375,4.4905548095703125,-11.915725708007812,-1.2960205078125
1715093489826650000,9.911650146484375,2.92474365234375,-11.894180297851562,-1.82513427734375
1715093489836598800,9.921598876953125,1.3254241943359375,-10.93890380859375,-1.7317657470703125
1715093489846578200,9.931578125,0.9447479248046875,-9.456893920898438,-1.0661773681640625
1715093489856557300,9.941557373046875,2.6518096923828125,-8.132888793945312,0.1764068603515625
1715093489866506000,9.951506103515625,3.4035797119140625,-6.7682037353515625,1.0263519287109375
1715093489876485400,9.9614853515625,2.4842071533203125,-5.7219390869140625,1.4285736083984375
1715093489886464500,9.971464599609375,2.0987396240234375,-4.8624114990234375,1.488433837890625
1715093489896413200,9.9814130859375,1.397247314453125,-4.1848602294921875,1.2202911376953125
1715093489906392600,9.991392578125,0.731658935546875,-4.108245849609375,1.098175048828125
1715093489916371700,10.001371826171875,0.41082763671875,-4.38836669921875,1.2681732177734375
1715093489926320600,10.011320556640625,-0.4151611328125,-4.541595458984375,2.2881011962890625
1715093489936299800,10.0212998046875,2.613494873046875,-5.6165924072265625,1.055084228515625
1715093489946279000,10.03127880859375,0.8657379150390625,-6.3228759765625,2.386260986328125
1715093489956227800,10.041227783203125,-0.20208740234375,-7.0124053955078125,2.4437255859375
1715093489966207000,10.05120703125,0.1067657470703125,-7.6660308837890625,1.8715057373046875
1715093489976186400,10.061186279296875,-0.4534759521484375,-8.247817993164062,2.4365386962890625
1715093489986135000,10.071135009765625,0.9255828857421875,-9.540679931640625,1.71588134765625
1715093489996114200,10.0811142578125,1.6366729736328125,-10.3594970703125,1.5004119873046875
1715093490006093600,10.091093505859375,2.053253173828125,-11.0777587890625,1.5339202880859375
1715093490016072700,10.10107275390625,2.4028167724609375,-11.709823608398438,1.404632568359375
1715093490026052000,10.111052001953125,2.558441162109375,-12.09051513671875,1.763763427734375
1715093490036000800,10.121000732421875,3.214447021484375,-11.628433227539062,2.4772491455078125
1715093490045980000,10.13097998046875,4.593505859375,-10.225418090820312,2.4532928466796875
1715093490055959300,10.140959228515625,5.97735595703125,-8.312454223632812,1.9122161865234375
1715093490065938400,10.1509384765625,6.542388916015625,-5.9613494873046875,2.3934478759765625
1715093490075887000,10.16088720703125,6.3340911865234375,-4.4601898193359375,1.1436767578125
1715093490085866500,10.170866455078125,4.97418212890625,-3.56475830078125,1.8332061767578125
1715093490095845600,10.180845703125,3.8728485107421875,-2.77227783203125,2.3192291259765625
1715093490105794300,10.190794189453126,2.47943115234375,-3.095489501953125,2.3886566162109375
1715093490115773700,10.200773681640625,1.74200439453125,-4.75946044921875,2.640045166015625
1715093490125752800,10.2107529296875,1.0572662353515625,-8.123321533203125,4.059814453125
1715093490135701500,10.220701416015626,1.5911712646484375,-11.738555908203125,5.62322998046875
1715093490145681000,10.230680908203125,2.8409423828125,-13.220565795898438,5.6423797607421875
1715093490155660000,10.240659912109376,4.1002960205078125,-13.826309204101562,4.8139801025390625
1715093490165609000,10.25060888671875,4.2774658203125,-13.76165771484375,4.541046142578125
1715093490175588000,10.260588134765625,4.164947509765625,-13.189453125,3.9951629638671875
1715093490185567200,10.270567138671876,3.5400543212890625,-11.017913818359375,3.1811370849609375
1715093490195516200,10.28051611328125,2.8170013427734375,-9.42816162109375,2.438934326171875
1715093490205495300,10.290495361328125,1.7803192138671875,-9.37548828125,1.615325927734375
1715093490215474700,10.300474609375,1.121917724609375,-9.547866821289062,0.98565673828125
1715093490225423400,10.31042333984375,0.0205841064453125,-9.021148681640625,1.265777587890625
1715093490235402500,10.320402587890625,-0.9083709716796875,-8.982833862304688,1.1412811279296875
1715093490245382000,10.3303818359375,-2.00970458984375,-9.435333251953125,0.758209228515625
1715093490255330600,10.34033056640625,-2.6106414794921875,-9.883056640625,-0.0989227294921875
1715093490265309700,10.350309814453125,-1.8540802001953125,-10.503158569335938,-1.6240234375
1715093490275289000,10.3602890625,-1.0448455810546875,-11.59490966796875,-3.60882568359375
1715093490285237800,10.37023779296875,-0.38165283203125,-13.905319213867188,-5.1339263916015625
1715093490295217000,10.380216796875,0.9303741455078125,-16.795120239257812,-4.702972412109375
1715093490305196300,10.3901962890625,1.2775421142578125,-19.385635375976562,-3.2808074951171875
1715093490315175400,10.400175537109375,1.55047607421875,-21.140594482421875,-2.998291015625
1715093490325124400,10.410124267578125,1.9167938232421875,-21.945037841796875,-3.6016387939453125
1715093490335103500,10.420103515625,1.9072113037109375,-21.480575561523438,-2.557769775390625
1715093490345082600,10.43008251953125,0.0014190673828125,-18.822998046875,1.2466278076171875
1715093490355062000,10.44006201171875,-2.15814208984375,-15.538162231445312,5.503509521484375
1715093490365010700,10.4500107421875,-2.924285888671875,-12.559768676757812,10.078826904296875
1715093490374990000,10.459989990234375,-5.052734375,-10.151199340820312,12.652603149414062
1715093490384969200,10.46996923828125,-5.7470550537109375,-7.40985107421875,10.437957763671875
1715093490394918000,10.47991796875,-0.82696533203125,-3.9454345703125,9.901657104492188
1715093490404897300,10.489897216796875,-1.8229522705078125,-2.4011688232421875,9.73406982421875
1715093490414876400,10.49987646484375,0.4611053466796875,-2.3628692626953125,7.4763336181640625
1715093490424825000,10.5098251953125,2.1873321533203125,-3.2942047119140625,5.4316864013671875
1715093490434804500,10.519804443359375,4.3061981201171875,-4.50567626953125,2.206695556640625
1715093490444783600,10.52978369140625,4.9861602783203125,-4.74749755859375,-0.2521514892578125
1715093490454732300,10.539732177734376,4.7275848388671875,-4.8312835693359375,-1.9280853271484375
1715093490464711700,10.549711669921875,4.3947906494140625,-4.85284423828125,-2.9935150146484375
1715093490474690800,10.55969091796875,4.059600830078125,-4.9198760986328125,-3.989501953125
1715093490484639700,10.5696396484375,4.2535247802734375,-5.0946502685546875,-4.7053680419921875
1715093490494619000,10.579618896484375,3.585540771484375,-5.367584228515625,-4.461151123046875
1715093490504598000,10.589597900390626,2.0556488037109375,-5.652496337890625,-3.223358154296875
1715093490514547000,10.599546875,0.552093505859375,-6.392303466796875,-2.368621826171875
1715093490524526000,10.609526123046875,0.0157928466796875,-7.299713134765625,-2.1435699462890625
1715093490534505200,10.619505126953126,0.6239166259765625,-8.164016723632812,-1.36065673828125
1715093490544454100,10.6294541015625,1.51934814453125,-8.958892822265625,-0.6280364990234375
1715093490554433300,10.639433349609375,1.5313262939453125,-9.236618041992188,-0.3574981689453125
1715093490564412700,10.64941259765625,1.23443603515625,-9.162399291992188,0.0638885498046875
1715093490574391800,10.659391845703125,2.2471923828125,-8.7003173828125,1.0095977783203125
1715093490584340500,10.669340576171875,2.9008026123046875,-8.008392333984375,2.3192291259765625
1715093490594320000,10.67931982421875,3.3173980712890625,-7.364349365234375,3.770111083984375
1715093490604299000,10.689299072265625,4.3373260498046875,-6.7634124755859375,5.1898651123046875
1715093490614278400,10.6992783203125,5.2782440185546875,-6.011627197265625,6.15234375
1715093490624257500,10.709257568359375,5.5248565673828125,-5.535186767578125,6.5785064697265625
1715093490634206200,10.719206298828125,5.79779052734375,-5.4585723876953125,6.348663330078125
1715093490644185600,10.729185546875,5.158538818359375,-6.296539306640625,4.7277984619140625
1715093490654164700,10.739164794921875,5.7882080078125,-8.089797973632812,4.287261962890625
1715093490664113400,10.749113525390625,9.2430419921875,-10.922134399414062,3.5761871337890625
1715093490674092800,10.7590927734375,12.532684326171875,-12.571746826171875,3.8730621337890625
1715093490684072000,10.769072021484375,11.912582397460938,-11.853485107421875,4.150787353515625
1715093490694020600,10.7790205078125,7.8807373046875,-10.20147705078125,4.107696533203125
1715093490704000000,10.789,3.700469970703125,-9.18634033203125,3.0326995849609375
1715093490713979100,10.798979248046875,2.2926788330078125,-9.22705078125,3.4253387451171875
1715093490723928000,10.808927978515625,1.4642791748046875,-11.400985717773438,6.11163330078125
1715093490733907200,10.8189072265625,-0.135040283203125,-13.167892456054688,5.6591339111328125
1715093490743886300,10.82888623046875,-3.4749603271484375,-14.534988403320312,2.8698883056640625
1715093490753835300,10.838835205078125,-4.14532470703125,-16.864547729492188,0.26739501953125
1715093490763814400,10.848814453125,-0.7431640625,-20.340927124023438,-1.10687255859375
1715093490773793800,10.858793701171875,0.6334991455078125,-21.391983032226562,-0.6902923583984375
1715093490783742500,10.868742431640625,2.991790771484375,-18.62188720703125,0.1021881103515625
1715093490793721600,10.8787216796875,2.4363250732421875,-14.118392944335938,0.612152099609375
1715093490803670300,10.888670166015626,1.4834442138671875,-11.884613037109375,1.0790252685546875
1715093490813649700,10.898649658203125,-0.5109405517578125,-11.374649047851562,1.46209716796875
1715093490823628800,10.90862890625,-1.4518585205078125,-11.460830688476562,1.287322998046875
1715093490833577700,10.91857763671875,-1.7702789306640625,-11.602096557617188,0.5977935791015625
1715093490843556900,10.928556884765625,-2.3185577392578125,-11.544631958007812,-0.2114410400390625
1715093490853536000,10.938535888671876,-1.5667724609375,-10.912567138671875,-0.4532623291015625
1715093490863515400,10.948515380859375,0.2959136962890625,-10.46484375,-1.0829315185546875
1715093490873464000,10.958464111328125,2.49139404296875,-10.31640625,-2.03582763671875
1715093490883443500,10.968443359375,4.430694580078125,-9.72503662109375,-2.1124420166015625
1715093490893422600,10.978422607421875,5.5799102783203125,-9.413787841796875,-2.5457916259765625
1715093490903401700,10.988401611328126,5.30218505859375,-9.578994750976562,-2.390167236328125
1715093490913381000,10.998381103515625,4.5695648193359375,-9.30126953125,-1.6144561767578125
1715093490923329800,11.008329833984375,3.89678955078125,-8.492019653320312,-0.1994781494140625
1715093490933309000,11.018308837890626,3.5400543212890625,-7.6396942138671875,0.621734619140625
1715093490943288300,11.028288330078125,3.2024688720703125,-6.9645233154296875,0.9569244384765625
1715093490953237000,11.038237060546875,1.7539825439453125,-6.3851318359375,1.53631591796875
1715093490963216400,11.04821630859375,0.7340545654296875,-5.8344573974609375,2.0391082763671875
1715093490973195500,11.058195556640625,0.9998016357421875,-5.3795623779296875,1.6488494873046875
1715093490983144200,11.068144287109375,1.33978271484375,-4.9055023193359375,1.8619384765625
1715093490993123600,11.07812353515625,0.9303741455078125,-4.828887939453125,1.905029296875
1715093491003102700,11.088102783203125,0.87530517578125,-5.207183837890625,1.756591796875
1715093491013051400,11.098051513671875,0.0732574462890625,-6.0499420166015625,1.3687286376953125
1715093491023030800,11.10803076171875,0.0995941162109375,-6.878326416015625,2.0247344970703125
1715093491033010000,11.118010009765625,0.0301513671875,-7.479278564453125,3.178741455078125
1715093491042958600,11.12795849609375,0.1953582763671875,-8.037124633789062,3.126068115234375
1715093491052938000,11.13793798828125,0.911224365234375,-8.31005859375,2.9321441650390625
1715093491062917000,11.147917236328125,1.99578857421875,-8.8798828125,2.2090911865234375
1715093491072866000,11.157865966796875,1.4642791748046875,-9.2078857421875,2.8483428955078125
1715093491082845200,11.16784521484375,2.1705780029296875,-9.82080078125,2.4437255859375
1715093491092824300,11.17782421875,2.4578704833984375,-10.14642333984375,1.85235595703125
1715093491102773200,11.187773193359375,2.2663421630859375,-10.026702880859375,1.7446136474609375
1715093491112752400,11.19775244140625,2.3357696533203125,-9.7154541015625,2.079803466796875
1715093491122731800,11.207731689453125,2.972625732421875,-9.373092651367188,2.18035888671875
1715093491132680400,11.217680419921875,3.8513031005859375,-8.580612182617188,1.8403778076171875
1715093491142659600,11.22765966796875,4.9454498291015625,-7.23028564453125,1.56744384765625
1715093491152639000,11.237638916015625,5.3141632080078125,-5.5710906982421875,1.5123748779296875
1715093491162618000,11.2476181640625,5.1944427490234375,-4.1178131103515625,1.1460723876953125
1715093491172566800,11.25756689453125,4.5264739990234375,-3.3037872314453125,0.674407958984375
1715093491182546200,11.267546142578125,3.4131622314453125,-3.23675537109375,0.8611602783203125
1715093491192525300,11.277525390625,3.16656494140625,-3.8736114501953125,2.194732666015625
1715093491202504700,11.287504638671875,0.6670074462890625,-8.16162109375,0.8515777587890625
1715093491212453400,11.297453369140625,1.7491912841796875,-10.840728759765625,4.107696533203125
1715093491222432500,11.3074326171875,2.89361572265625,-12.473587036132812,4.4021759033203125
1715093491232412000,11.317411865234375,3.0971221923828125,-13.548583984375,3.8802490234375
1715093491242360600,11.327360595703125,4.60308837890625,-14.597244262695312,3.8251800537109375
1715093491252339700,11.337339599609376,4.5911102294921875,-13.955596923828125,4.1531829833984375
1715093491262319000,11.347319091796875,3.8943939208984375,-11.293243408203125,3.7150421142578125
1715093491272267800,11.357267822265625,3.1593780517578125,-8.300491333007812,4.059814453125
1715093491282247200,11.3672470703125,1.8186187744140625,-8.032333374023438,3.9664306640625
1715093491292226300,11.377226318359375,1.619903564453125,-9.330001831054688,3.252960205078125
1715093491302175000,11.387175048828125,0.5856170654296875,-10.352325439453125,3.0590362548828125
1715093491312154400,11.397154296875,-0.5947265625,-10.737777709960938,2.7597503662109375
1715093491322133500,11.407133544921875,-1.47100830078125,-10.970016479492188,2.067840576171875
1715093491332082200,11.417082275390625,-2.0719451904296875,-11.166351318359375,0.95452880859375
1715093491342061600,11.4270615234375,-1.4255218505859375,-11.535049438476562,-0.7764739990234375
1715093491352040700,11.437040771484375,-0.4750213623046875,-12.317962646484375,-2.552978515625
1715093491361989400,11.4469892578125,-0.0320892333984375,-13.965164184570312,-4.461151123046875
1715093491371968800,11.45696875,0.4515380859375,-15.81109619140625,-6.218505859375
1715093491381948000,11.466947998046875,0.753204345703125,-17.307479858398438,-5.0022430419921875
1715093491391896600,11.476896484375,1.282318115234375,-18.243606567382812,-3.869781494140625
1715093491401876000,11.4868759765625,2.2232513427734375,-18.571609497070312,-3.1204071044921875
1715093491411855000,11.496855224609375,2.0508575439453125,-18.629074096679688,-1.7317657470703125
1715093491421804000,11.506803955078125,0.415618896484375,-17.336212158203125,0.937774658203125
1715093491431783200,11.516783203125,-0.61627197265625,-15.590835571289062,4.8187713623046875
1715093491441762300,11.52676220703125,-1.50213623046875,-13.392959594726562,9.475494384765625
1715093491451741700,11.53674169921875,-3.9418182373046875,-11.645187377929688,10.9383544921875
1715093491461720800,11.546720947265625,-3.441436767578125,-8.554275512695312,11.797866821289062
1715093491471669800,11.556669677734375,-3.6449432373046875,-5.788970947265625,10.0836181640625
1715093491481649000,11.56664892578125,-3.4965057373046875,-3.9167022705078125,9.078048706054688
1715093491491628000,11.5766279296875,-0.2116546630859375,-3.0715484619140625,7.69659423828125
1715093491501577000,11.586576904296875,1.7635650634765625,-3.2918243408203125,5.3095855712890625
1715093491511556000,11.59655615234375,3.1067047119140625,-4.2303466796875,2.4676666259765625
1715093491521535500,11.606535400390625,4.1218414306640625,-4.57989501953125,-0.15399169921875
1715093491531514600,11.6165146484375,4.5551910400390625,-4.8791656494140625,-2.1435699462890625
1715093491541463300,11.62646337890625,4.68927001953125,-4.67327880859375,-3.3741912841796875
1715093491551442700,11.636442626953125,4.5264739990234375,-4.56793212890625,-3.915283203125
1715093491561421800,11.646421875,4.2750701904296875,-4.9031219482421875,-4.3055267333984375
1715093491571370500,11.65637060546875,3.46343994140625,-5.2694244384765625,-4.2145538330078125
1715093491581350000,11.666349853515625,2.220855712890625,-5.55194091796875,-2.916900634765625
1715093491591329000,11.6763291015625,1.11712646484375,-6.0307769775390625,-1.6264190673828125
1715093491601277700,11.686277587890626,0.556884765625,-6.844818115234375,-1.164337158203125
1715093491611257000,11.696257080078125,1.121917724609375,-7.8336181640625,-0.90576171875
1715093491621236200,11.706236328125,1.8114471435546875,-8.685958862304688,-0.1468048095703125
1715093491631185200,11.71618505859375,1.8377838134765625,-8.978042602539062,-0.0294952392578125
1715093491641164300,11.726164306640625,1.720458984375,-8.877487182617188,0.5139923095703125
1715093491651143400,11.736143310546876,1.5289306640625,-8.611740112304688,1.349578857421875
1715093491661092400,11.74609228515625,2.49139404296875,-8.137680053710938,2.6472320556640625
1715093491671071500,11.756071533203125,3.44189453125,-7.5151824951171875,3.7940521240234375
1715093491681050600,11.766050537109376,4.06439208984375,-6.8639678955078125,4.6775054931640625
1715093491690999600,11.77599951171875,4.662933349609375,-6.143310546875,5.577728271484375
1715093491700978700,11.785978759765625,5.062774658203125,-5.5615234375,6.3869781494140625
1715093491710958000,11.7959580078125,4.926300048828125,-5.8919219970703125,6.0086822509765625
1715093491720906800,11.80590673828125,4.2678985595703125,-7.7665863037109375,5.2209930419921875
1715093491730886000,11.815885986328125,6.891937255859375,-9.883056640625,4.773284912109375
1715093491740865300,11.825865234375,11.297271728515625,-12.05938720703125,4.29443359375
1715093491750844400,11.835844482421875,13.059402465820312,-12.121627807617188,5.2545166015625
1715093491760793000,11.84579296875,10.377899169921875,-10.050643920898438,4.97918701171875
1715093491770772500,11.8557724609375,6.0108795166015625,-7.9820556640625,3.9951629638671875
1715093491780751600,11.865751708984375,2.512939453125,-7.7665863037109375,3.2649383544921875
1715093491790731000,11.87573095703125,1.4858245849609375,-9.605331420898438,4.6655426025390625
1715093491800679700,11.8856796875,1.409210205078125,-12.74652099609375,4.3255615234375
1715093491810658800,11.895658935546875,-1.444671630859375,-14.508651733398438,3.3080291748046875
1715093491820638200,11.90563818359375,-5.522003173828125,-16.182205200195312,0.5714569091796875
1715093491830587000,11.9155869140625,-2.45263671875,-19.56280517578125,-0.826751708984375
1715093491840566000,11.92556591796875,-0.407989501953125,-22.6680908203125,-1.6743011474609375
1715093491850545400,11.93554541015625,1.3182373046875,-22.337692260742188,-0.867462158203125
1715093491860494000,11.945494140625,3.3341522216796875,-16.99383544921875,1.1460723876953125
1715093491870473500,11.955473388671875,3.657379150390625,-11.542236328125,2.5993499755859375
1715093491880452600,11.96545263671875,1.20330810546875,-9.346755981445312,2.343170166015625
1715093491890401300,11.9754013671875,-0.4031982421875,-9.057052612304688,2.163604736328125
1715093491900380700,11.985380615234375,-1.1142730712890625,-9.136062622070312,2.417388916015625
1715093491910359800,11.99535986328125,-1.760711669921875,-8.997207641601562,2.5634307861328125
1715093491920308500,12.00530859375,-1.76788330078125,-8.757781982421875,2.4149932861328125
1715093491930287900,12.015287841796875,-1.190887451171875,-8.872695922851562,1.6201171875
1715093491940267000,12.02526708984375,-0.9777984619140625,-10.065017700195312,-0.350311279296875
1715093491950215700,12.035215576171876,0.8250274658203125,-10.7808837890625,-1.6360015869140625
1715093491960195000,12.045195068359375,3.9686126708984375,-11.233383178710938,-1.121246337890625
1715093491970174200,12.05517431640625,5.9318695068359375,-11.709823608398438,-1.1475830078125
1715093491980123100,12.065123046875,5.3309173583984375,-12.011505126953125,-2.1651153564453125
1715093491990102300,12.075102294921875,5.6708984375,-11.422531127929688,-2.33270263671875
1715093492000081400,12.085081298828126,4.2104339599609375,-9.844741821289062,-1.4731903076171875
1715093492010060800,12.095060791015625,3.279083251953125,-7.9581146240234375,-0.2641143798828125
1715093492020009500,12.105009521484375,2.295074462890625,-6.440185546875,0.3128814697265625
1715093492029988900,12.11498876953125,1.90960693359375,-5.841644287109375,1.4956207275390625
1715093492039968000,12.124968017578125,0.5018157958984375,-5.5327911376953125,0.9353790283203125
1715093492049947100,12.134947021484376,0.42041015625,-5.0323944091796875,0.3966827392578125
1715093492059926500,12.144926513671875,1.047698974609375,-4.6253814697265625,0.4972381591796875
1715093492069875200,12.154875244140625,1.406829833984375,-4.6780548095703125,0.67919921875
1715093492079854300,12.164854248046876,1.3254241943359375,-5.2454833984375,0.84918212890625
1715093492089833700,12.174833740234375,0.4443511962890625,-5.8751678466796875,1.34478759765625
1715093492099782400,12.184782470703125,0.1115570068359375,-6.50244140625,2.036712646484375
1715093492109761800,12.19476171875,0.0157928466796875,-7.1033935546875,2.2976837158203125
1715093492119741000,12.204740966796875,0.118743896484375,-7.5822296142578125,2.8435516357421875
1715093492129689600,12.214689697265625,0.42041015625,-7.9365692138671875,3.346343994140625
1715093492139669000,12.2246689453125,1.002197265625,-8.503997802734375,3.0542449951171875
1715093492149648100,12.234648193359375,1.23443603515625,-9.339569091796875,2.565826416015625
1715093492159596800,12.2445966796875,2.022125244140625,-10.144027709960938,1.43096923828125
1715093492169576200,12.254576171875,2.6087188720703125,-10.268524169921875,1.682373046875
1715093492179555300,12.264555419921875,2.886444091796875,-10.30682373046875,2.07501220703125
1715093492189504000,12.27450390625,3.235992431640625,-9.8399658203125,2.501190185546875
1715093492199483400,12.2844833984375,3.88482666015625,-8.899032592773438,2.41259765625
1715093492209462500,12.294462646484375,4.816162109375,-7.6923675537109375,1.9193878173828125
1715093492219411500,12.304411376953125,5.12261962890625,-6.3204803466796875,1.509979248046875
1715093492229390600,12.314390625,4.7922210693359375,-4.7881927490234375,1.17718505859375
1715093492239369700,12.32436962890625,4.4163360595703125,-3.7730560302734375,0.631317138671875
1715093492249318700,12.334318603515625,3.35809326171875,-3.59588623046875,0.4182281494140625
1715093492259297800,12.3442978515625,3.0396728515625,-4.067535400390625,0.5618743896484375
1715093492269277200,12.354277099609375,0.5137786865234375,-6.686798095703125,1.5147705078125
1715093492279225900,12.364225830078125,0.815460205078125,-10.438507080078125,4.0957183837890625
1715093492289205000,12.374205078125,2.9965667724609375,-11.999526977539062,4.72540283203125
1715093492299184400,12.384184326171875,2.7571563720703125,-12.39697265625,2.8148193359375
1715093492309163500,12.39416357421875,4.3804168701171875,-12.890167236328125,3.8586883544921875
1715093492319112200,12.4041123046875,4.9861602783203125,-13.309158325195312,3.442108154296875
1715093492329091600,12.414091552734375,4.6270294189453125,-11.4368896484375,3.7054595947265625
1715093492339070700,12.42407080078125,3.73876953125,-8.990020751953125,3.590545654296875
1715093492349050000,12.434050048828125,2.907989501953125,-8.539901733398438,3.2984466552734375
1715093492358998800,12.443998779296875,2.2184600830078125,-8.930160522460938,2.776519775390625
1715093492368978000,12.45397802734375,0.741241455078125,-9.188735961914062,2.628082275390625
1715093492378957300,12.463957275390625,-0.7862701416015625,-9.313232421875,2.343170166015625
1715093492388906000,12.473906005859375,-2.41192626953125,-9.89263916015625,2.2138824462890625
1715093492398885000,12.483885009765626,-2.7183837890625,-10.773696899414062,1.550689697265625
1715093492408864500,12.493864501953125,-1.348907470703125,-11.84869384765625,-0.15399169921875
1715093492418813200,12.503813232421875,-0.8772430419921875,-13.146347045898438,-2.031036376953125
1715093492428792600,12.51379248046875,-0.7742919921875,-14.992279052734375,-3.8338775634765625
1715093492438771700,12.523771728515625,0.50421142578125,-17.398452758789062,-4.374969482421875
1715093492448720400,12.533720458984375,2.7954559326171875,-19.751953125,-3.32391357421875
1715093492458699800,12.54369970703125,2.8433380126953125,-20.795822143554688,-2.842681884765625
1715093492468679000,12.553678955078125,1.6965179443359375,-20.53485107421875,-2.7876129150390625
1715093492478627600,12.563627685546875,1.33978271484375,-19.66815185546875,-1.025482177734375
1715093492488607000,12.57360693359375,0.209716796875,-17.297897338867188,2.407806396484375
1715093492498586000,12.583586181640625,-1.14300537109375,-14.783981323242188,5.5106964111328125
1715093492508534800,12.59353466796875,-1.667327880859375,-12.0809326171875,8.1826171875
1715093492518514200,12.60351416015625,-3.1277923583984375,-9.538284301757812,10.007003784179688
1715093492528493300,12.613493408203125,-2.960205078125,-6.6891937255859375,10.995819091796875
1715093492538442000,12.62344189453125,-3.989715576171875,-4.9940948486328125,10.088409423828125
1715093492548421400,12.63342138671875,-2.3305206298828125,-4.07232666015625,8.331069946289062
1715093492558400500,12.643400390625,0.8657379150390625,-3.70123291015625,6.664703369140625
1715093492568349400,12.653349365234375,0.75799560546875,-4.6708831787109375,4.81158447265625
1715093492578328600,12.66332861328125,2.0867767333984375,-5.2454833984375,2.702301025390625
1715093492588307700,12.6733076171875,4.1002960205078125,-5.355621337890625,0.420623779296875
1715093492598287000,12.683287109375,4.947845458984375,-5.2957611083984375,-1.1499786376953125
1715093492608266200,12.693266357421875,5.180084228515625,-5.2311248779296875,-2.17230224609375
1715093492618215200,12.703215087890625,4.6605377197265625,-5.166473388671875,-3.21856689453125
1715093492628194300,12.7131943359375,3.8728485107421875,-5.1377410888671875,-3.4915008544921875
1715093492638173400,12.72317333984375,2.9008026123046875,-5.2215423583984375,-3.21856689453125
1715093492648152800,12.73315283203125,1.66778564453125,-5.58306884765625,-2.1220245361328125
1715093492658088400,12.74308837890625,0.595184326171875,-5.9972686767578125,-1.4444580078125
1715093492668067600,12.753067626953126,0.283935546875,-6.550323486328125,-1.413330078125
1715093492678046700,12.763046630859375,0.805877685546875,-7.0219879150390625,-1.3510894775390625
1715093492687995600,12.77299560546875,1.428375244140625,-7.3547821044921875,-1.3199615478515625
1715093492697974800,12.782974853515626,1.988616943359375,-7.5415191650390625,-0.94647216796875
1715093492707954200,12.7929541015625,2.12030029296875,-7.3356170654296875,-0.7166290283203125
1715093492717902800,12.80290283203125,2.1226959228515625,-6.91424560546875,0.1285247802734375
1715093492727882000,12.812882080078126,2.3980255126953125,-6.2606201171875,1.3591461181640625
1715093492737861400,12.822861328125,2.867279052734375,-5.8895263671875,2.6376495361328125
1715093492747810000,12.83281005859375,3.92791748046875,-5.726715087890625,4.0406494140625
1715093492757789200,12.8427890625,5.2471160888671875,-5.420257568359375,5.2832489013671875
1715093492767738000,12.852738037109376,5.9797515869140625,-5.5926513671875,6.3247222900390625
1715093492777717200,12.86271728515625,6.178466796875,-6.4904632568359375,6.6168212890625
1715093492787696400,12.8726962890625,5.223175048828125,-8.231048583984375,5.867431640625
1715093492797645300,12.882645263671876,4.725189208984375,-9.483230590820312,6.2720489501953125
1715093492807624400,12.89262451171875,5.5535736083984375,-11.566177368164062,6.45880126953125
1715093492817603800,12.902603759765626,8.402679443359375,-14.04656982421875,4.7493438720703125
1715093492827552500,12.912552490234376,11.507965087890625,-14.0992431640625,4.2537384033203125
1715093492837531600,12.92253173828125,10.801666259765625,-11.65716552734375,5.0126953125
1715093492847511000,12.932510986328126,6.6046295166015625,-9.44970703125,5.88897705078125
1715093492857459700,12.942459716796876,2.232818603515625,-8.772140502929688,5.1635284423828125
1715093492867438800,12.95243896484375,0.5496978759765625,-9.00677490234375,4.34710693359375
1715093492877418200,12.962418212890626,0.1809844970703125,-11.264511108398438,2.7286376953125
1715093492887397400,12.9723974609375,-0.0751953125,-12.878204345703125,1.7254638671875
1715093492897376800,12.982376708984376,-1.26031494140625,-14.841445922851562,0.018402099609375
1715093492907325400,12.992325439453126,-0.2475738525390625,-18.3345947265625,-1.88739013671875
1715093492917304600,13.0023046875,2.0771942138671875,-21.131011962890625,-2.378204345703125
1715093492927284000,13.012283935546876,2.9438934326171875,-21.207626342773438,-0.3119964599609375
