time,seconds_elapsed,z,y,x
1715093480076069400,0.1610693359375,2.7915897369384766,2.4174437522888184,-6.140383243560791
1715093480086048500,0.171048583984375,2.8793697357177734,1.365508794784546,-4.7647318840026855
1715093480096028000,0.18102783203125,1.3791007995605469,-1.1766741275787354,1.7596135139465332
1715093480106007000,0.191007080078125,0.2987842559814453,-0.46103835105895996,4.454582214355469
1715093480115986200,0.200986083984375,-0.3263740539550781,0.8096230030059814,3.8931162357330322
1715093480125965600,0.210965576171875,-0.2589092254638672,1.4272549152374268,3.4890010356903076
1715093480135914200,0.220914306640625,-0.21491241455078125,1.1582162380218506,2.902010679244995
1715093480145893600,0.2308935546875,-0.11386680603027344,0.6558241844177246,2.104745388031006
1715093480155872800,0.240872802734375,-0.22925376892089844,0.20805954933166504,1.2669399976730347
1715093480165852000,0.250851806640625,-0.4788055419921875,-0.03592419624328613,0.5069452524185181
1715093480175800800,0.26080078125,-0.752009391784668,0.011786222457885742,0.2860015630722046
1715093480185780000,0.270780029296875,-1.1948814392089844,0.2649557590484619,0.38858920335769653
1715093480195759400,0.28075927734375,-1.6339340209960938,0.7209329605102539,0.6682249307632446
1715093480205738500,0.290738525390625,-1.9053411483764648,1.201603651046753,1.1394989490509033
1715093480215687200,0.300687255859375,-1.8764019012451172,1.377547264099121,1.2283270359039307
1715093480225666600,0.31066650390625,-1.1082878112792969,1.2185921669006348,0.9663944244384766
1715093480235645700,0.320645751953125,-0.4946260452270508,0.7349879741668701,0.6436152458190918
1715093480245594400,0.330594482421875,-0.23726558685302734,0.031002283096313477,0.23502978682518005
1715093480255573800,0.34057373046875,0.12738704681396484,-0.3439497947692871,-0.1597909927368164
1715093480265553000,0.350552978515625,0.3528318405151367,-0.39641809463500977,-0.21266436576843262
1715093480275532300,0.3605322265625,0.607945442199707,-0.26999521255493164,-0.21111422777175903
1715093480285481000,0.37048095703125,1.187112808227539,-0.7914903163909912,-0.3464183807373047
1715093480295460000,0.380460205078125,2.4510459899902344,-1.3744113445281982,-0.892083466053009
1715093480305439500,0.390439453125,2.7419605255126953,-1.1345584392547607,-1.197714924812317
1715093480315418600,0.400418701171875,1.4691553115844727,0.11222386360168457,-0.3490913212299347
1715093480325398000,0.41039794921875,-1.251058578491211,0.8657841682434082,0.6237704157829285
1715093480335346700,0.4203466796875,-3.0474624633789062,0.937037467956543,1.183173418045044
1715093480345325800,0.430325927734375,-3.12042236328125,0.742919921875,1.1368587017059326
1715093480355305200,0.44030517578125,-2.288087844848633,0.5400781631469727,0.7370877861976624
1715093480365254000,0.45025390625,-1.274205207824707,0.1189723014831543,0.5971095561981201
1715093480375233000,0.46023291015625,-0.5786943435668945,-0.4660515785217285,0.7284386157989502
1715093480385212400,0.47021240234375,-0.07003116607666016,-0.6671462059020996,0.6957786083221436
1715093480395161000,0.4801611328125,0.3888378143310547,-1.0344123840332031,0.3926229774951935
1715093480405140500,0.490140380859375,0.6206998825073242,-1.298994541168213,0.03436195105314255
1715093480415119600,0.50011962890625,-0.31730175018310547,-1.179656744003296,0.41001102328300476
1715093480425068300,0.510068359375,-1.0224628448486328,-0.5093507766723633,1.014570951461792
1715093480435047700,0.520047607421875,-2.1998748779296875,-0.6341311931610107,0.7048195004463196
1715093480445026800,0.53002685546875,-3.5970277786254883,-0.9570114612579346,0.06818301975727081
1715093480454975500,0.5399755859375,-4.472352981567383,-1.2159337997436523,-0.44578778743743896
1715093480464955000,0.549954833984375,-4.337327003479004,-1.5682532787322998,-0.6657106876373291
1715093480474903600,0.559903564453125,-3.750861167907715,-2.2325356006622314,-0.06955200433731079
1715093480484882700,0.569882568359375,-2.84860897064209,-2.48195481300354,-1.0518417358398438
1715093480494862000,0.579862060546875,-1.0076208114624023,-2.229891777038574,-3.288917303085327
1715093480504806700,0.589806640625,-0.15460491180419922,-3.0714564323425293,-3.592538833618164
1715093480514785800,0.599785888671875,-0.7610273361206055,-4.08953857421875,-0.45398473739624023
1715093480524765200,0.60976513671875,-6.574562072753906,-1.6280179023742676,-0.2868267297744751
1715093480534713900,0.6197138671875,-6.749703407287598,-0.6513012647628784,-2.612609386444092
1715093480544693200,0.629693359375,-2.020108222961426,-1.0466891527175903,-2.8874971866607666
1715093480554672400,0.63967236328125,-0.5108747482299805,-0.9198322892189026,-2.346121311187744
1715093480564651500,0.649651611328125,0.6782245635986328,-0.9442542791366577,-1.888875126838684
1715093480574600400,0.659600341796875,1.4056768417358398,-1.0127825736999512,-1.619214653968811
1715093480584579600,0.66957958984375,0.8190317153930664,-0.8521183729171753,-1.9220387935638428
1715093480594557400,0.679557373046875,0.2556638717651367,-0.33644282817840576,-1.9440696239471436
1715093480604536600,0.68953662109375,0.144561767578125,-0.15013515949249268,-0.6593704223632812
1715093480614516000,0.699515869140625,-2.2803759574890137,-1.2339332103729248,2.0521347522735596
1715093480624464600,0.709464599609375,-5.835455894470215,-1.8052749633789062,1.033423900604248
1715093480634444000,0.719444091796875,-3.896322250366211,-0.4598653316497803,0.18213272094726562
1715093480644423200,0.729423095703125,9.214128494262695,-0.635134220123291,1.108168125152588
1715093480654371800,0.739371826171875,10.529275894165039,0.6150734424591064,-0.9154853820800781
1715093480664351200,0.749351318359375,6.7649736404418945,0.721076250076294,-1.7391419410705566
1715093480674330400,0.759330322265625,2.661540985107422,0.16515159606933594,-0.8299269676208496
1715093480684279000,0.769279052734375,0.4274740219116211,-0.43324995040893555,-0.14618730545043945
1715093480694258400,0.779258544921875,-0.6374845504760742,-1.059821605682373,-0.01415252685546875
1715093480704237600,0.789237548828125,-0.37747716903686523,-1.0681934356689453,0.32648682594299316
1715093480714186200,0.799186279296875,2.551501750946045,-0.5069093704223633,0.5208621025085449
1715093480724165600,0.80916552734375,5.728989601135254,-0.07485675811767578,-0.062361717224121094
1715093480734144800,0.819144775390625,7.539295196533203,-0.8493008613586426,-0.21738243103027344
1715093480744093400,0.829093505859375,8.992866516113281,-1.468846321105957,-0.23745322227478027
1715093480754072800,0.83907275390625,9.881818771362305,-0.8542494773864746,-1.239159107208252
1715093480764052000,0.849052001953125,8.840340614318848,-0.053974151611328125,0.06313514709472656
1715093480774001000,0.8590009765625,7.022066116333008,-1.1005864143371582,0.2517366409301758
1715093480783980000,0.86897998046875,6.038437843322754,-2.239872932434082,1.036470890045166
1715093480793959200,0.878959228515625,6.1947832107543945,-2.096435070037842,0.0955967903137207
1715093480803908000,0.888908203125,6.209641456604004,-1.722104549407959,-0.6848983764648438
1715093480813887200,0.89888720703125,6.020076274871826,-1.4216008186340332,-1.398641586303711
1715093480823836000,0.9088359375,5.039318084716797,-1.53236722946167,-1.7998013496398926
1715093480833815300,0.918815185546875,5.053583145141602,-2.110778331756592,-0.9606537818908691
1715093480843794400,0.92879443359375,5.393853664398193,-2.3554110527038574,-0.4192519187927246
1715093480853773800,0.93877392578125,5.858852386474609,-2.249929904937744,0.23036623001098633
1715093480863753000,0.9487529296875,6.176283836364746,-1.8984322547912598,0.6855497360229492
1715093480873701600,0.95870166015625,5.760745048522949,-1.509875774383545,1.0658655166625977
1715093480883681000,0.968680908203125,4.813324451446533,-1.0127849578857422,0.6779322624206543
1715093480893660200,0.97866015625,3.4042792320251465,-1.0439410209655762,-0.127655029296875
1715093480903639600,0.9886396484375,2.066429615020752,-1.4378275871276855,-0.40200328826904297
1715093480913588200,0.998588134765625,0.6766448020935059,-1.5048279762268066,0.14708280563354492
1715093480923567400,1.0085673828125,-0.6346616744995117,-1.0690016746520996,0.39873313903808594
1715093480933516300,1.018516357421875,-1.9681053161621094,0.4922003746032715,0.5127487182617188
1715093480943495400,1.028495361328125,-2.8646440505981445,1.5808124542236328,2.6857824325561523
1715093480953474600,1.038474609375,-2.1974921226501465,1.486593246459961,5.001241207122803
1715093480963423500,1.048423583984375,-1.1769084930419922,2.0782532691955566,4.605871200561523
1715093480973402600,1.058402587890625,-0.6119813919067383,2.34902286529541,4.457815170288086
1715093480983382000,1.068382080078125,-0.4755840301513672,2.348583221435547,4.909185886383057
1715093480993330700,1.07833056640625,-0.36603450775146484,2.5083565711975098,5.036886215209961
1715093481003309800,1.088309814453125,-0.7029905319213867,2.775818347930908,5.191807270050049
1715093481013289200,1.098289306640625,-1.0788326263427734,2.682774066925049,5.194311618804932
1715093481023238000,1.10823779296875,-1.9563050270080566,2.0244741439819336,4.9826459884643555
1715093481033217000,1.118217041015625,-3.349276065826416,1.6557745933532715,4.043508529663086
1715093481043196400,1.128196533203125,-4.471558570861816,1.4337153434753418,3.031454563140869
1715093481053145000,1.13814501953125,-4.98959493637085,1.051623821258545,2.3876547813415527
1715093481063124200,1.148124267578125,-4.982183933258057,0.568507194519043,2.0728845596313477
1715093481073103600,1.158103515625,-4.112908840179443,0.26239538192749023,1.4767303466796875
1715093481083052300,1.16805224609375,-2.283083915710449,-0.08376693725585938,1.0218839645385742
1715093481093031400,1.178031494140625,-0.21373748779296875,-0.8141012191772461,0.6431436538696289
1715093481103010800,1.1880107421875,0.8338003158569336,-0.861903190612793,0.3038196563720703
1715093481112959500,1.19795947265625,0.7390556335449219,-1.295234203338623,-0.40480613708496094
1715093481122939000,1.20793896484375,-0.6433844566345215,-1.7089533805847168,-0.8722090721130371
1715093481132918000,1.21791796875,-2.8199548721313477,-1.8316292762756348,-0.08813333511352539
1715093481142897200,1.227897216796875,-4.398536682128906,-1.2168331146240234,1.4420557022094727
1715093481152846000,1.23784619140625,-4.008968830108643,-0.43917226791381836,2.866306781768799
1715093481162825200,1.2478251953125,-1.9603776931762695,-0.17994928359985352,3.787785053253174
1715093481172804600,1.2578046875,0.375424861907959,-0.7289681434631348,3.9819183349609375
1715093481182783700,1.26778369140625,1.8376550674438477,-1.6186566352844238,2.7707033157348633
1715093481192732400,1.277732421875,1.6385555267333984,-1.3107070922851562,1.9433236122131348
1715093481202711800,1.2877119140625,1.2525858879089355,-1.8664798736572266,2.041140556335449
1715093481212691000,1.29769091796875,-0.7921018600463867,-1.1797194480895996,2.9607741832733154
1715093481222670300,1.30767041015625,-1.9767100811004639,-0.8249988555908203,4.397159576416016
1715093481232619000,1.317618896484375,-2.561868190765381,-1.4377293586730957,5.372992038726807
1715093481242598100,1.32759814453125,-3.6822779178619385,-2.2171268463134766,6.113319396972656
1715093481252591900,1.337591796875,-3.741318464279175,-2.058138847351074,5.104032516479492
1715093481262540500,1.34754052734375,-0.9038288593292236,-2.003711700439453,3.568852186203003
1715093481272520000,1.35752001953125,8.600950241088867,-5.190681457519531,-3.6987686157226562
1715093481282499000,1.3674990234375,4.761606216430664,-11.314679145812988,-18.651824951171875
1715093481292447700,1.37744775390625,-7.039980888366699,-7.567148208618164,-9.65606689453125
1715093481302427100,1.38742724609375,-5.935008525848389,1.2233552932739258,7.573287010192871
1715093481312375800,1.397375732421875,-3.1397695541381836,-0.2992687225341797,1.2360641956329346
1715093481322355200,1.407355224609375,0.40586352348327637,-4.6654052734375,-2.1587047576904297
1715093481332334300,1.417334228515625,-1.1696298122406006,-3.630685806274414,-2.9057416915893555
1715093481342281200,1.42728125,1.3156604766845703,-0.971613883972168,0.5522181987762451
1715093481352260600,1.437260498046875,0.6272279024124146,-1.9967079162597656,-0.3001890182495117
1715093481362239700,1.44723974609375,0.4292701482772827,-1.898122787475586,-0.8505241870880127
1715093481372188400,1.4571884765625,0.694110631942749,-1.7133121490478516,-0.11574769020080566
1715093481382167800,1.467167724609375,0.03590500354766846,-1.4103307723999023,-0.17522096633911133
1715093481392147000,1.47714697265625,-0.02839362621307373,-1.3904218673706055,-0.054753780364990234
1715093481402095600,1.487095703125,-0.8430012464523315,-1.0757322311401367,-0.1691725254058838
1715093481412075000,1.497074951171875,-0.7958771586418152,-0.2853565216064453,0.13852882385253906
1715093481422054100,1.50705419921875,-0.9044716954231262,-0.015610694885253906,0.15478110313415527
1715093481432033500,1.517033447265625,-2.3401403427124023,-0.08182334899902344,-0.21948552131652832
1715093481442012700,1.5270126953125,-1.4473371505737305,-0.6548728942871094,0.40752124786376953
1715093481451961300,1.53696142578125,-1.3517543077468872,-1.5001230239868164,0.16875672340393066
1715093481461940700,1.546940673828125,-1.0026874542236328,-3.374368667602539,0.8162763118743896
1715093481471919900,1.556919921875,-0.08359891176223755,-3.4020729064941406,1.4214270114898682
1715093481481899300,1.566899169921875,-0.018244564533233643,-3.5253114700317383,1.4700701236724854
1715093481491848000,1.576847900390625,-1.023500919342041,-2.462268829345703,-0.39829349517822266
1715093481501827000,1.5868271484375,-1.4708172082901,-3.383981704711914,1.7128963470458984
1715093481511803100,1.59680322265625,-0.7125403881072998,-1.360189437866211,5.015708923339844
1715093481521752000,1.606751953125,-2.159233570098877,-0.212188720703125,6.237059593200684
1715093481531731200,1.616731201171875,-0.2902553081512451,-1.133723258972168,-6.033980369567871
1715093481541710600,1.626710693359375,1.2115371227264404,-0.677943229675293,-2.267946720123291
1715093481551659300,1.6366591796875,0.6201215982437134,0.31856441497802734,2.958167552947998
1715093481561638400,1.646638427734375,0.0687023401260376,2.008138656616211,0.08979344367980957
1715093481571617800,1.65661767578125,0.4445704221725464,1.1452980041503906,-2.4306657314300537
1715093481581566500,1.66656640625,-0.46303701400756836,3.3490123748779297,-0.8638737201690674
1715093481591545600,1.676545654296875,-0.7546907663345337,4.174304962158203,-2.040156364440918
1715093481601525000,1.68652490234375,0.16967272758483887,4.635684967041016,0.06773042678833008
1715093481611473700,1.6964736328125,0.5523245334625244,5.269199371337891,1.0839558839797974
1715093481621452800,1.706452880859375,0.8006128072738647,4.257423400878906,0.92787766456604
1715093481631432200,1.71643212890625,0.9570072889328003,3.9360857009887695,1.0852305889129639
1715093481641380900,1.726380859375,1.2702245712280273,3.9332265853881836,1.6947177648544312
1715093481651360300,1.7363603515625,-1.0793242454528809,4.395169258117676,2.554689884185791
1715093481661309000,1.746308837890625,-0.15322589874267578,4.969788551330566,-0.0019621849060058594
1715093481671288000,1.7562880859375,-0.30783653259277344,5.405961036682129,0.2559829354286194
1715093481681267500,1.766267333984375,-1.642229437828064,5.12799072265625,1.2870793342590332
1715093481691216100,1.776216064453125,-2.1170036792755127,6.806748390197754,3.7319889068603516
1715093481701195300,1.7861953125,-1.570637822151184,4.942078590393066,2.0779330730438232
1715093481711174700,1.796174560546875,0.811072826385498,2.6534652709960938,1.6072348356246948
1715093481721153800,1.80615380859375,0.5495868921279907,2.019235610961914,1.764556646347046
1715093481731133200,1.81613330078125,-0.6417176723480225,0.2768592834472656,1.8665823936462402
1715093481741081900,1.826081787109375,0.22131717205047607,-1.7459354400634766,0.8822836875915527
1715093481751061000,1.83606103515625,0.6253329515457153,-1.4737129211425781,0.9910712242126465
1715093481761040400,1.846040283203125,0.9029386043548584,-4.996286392211914,0.4652293920516968
1715093481771019500,1.85601953125,0.07584607601165771,-2.2598819732666016,0.7042464017868042
1715093481780968200,1.86596826171875,3.194478988647461,-8.846433639526367,-3.9484474658966064
1715093481790947600,1.875947509765625,1.6942877769470215,-14.018729209899902,-3.826948642730713
1715093481800926700,1.8859267578125,0.08888554573059082,-12.331097602844238,-5.326806545257568
1715093481810875400,1.89587548828125,1.0042033195495605,-12.415836334228516,-3.3991284370422363
1715093481820854800,1.905854736328125,0.06673407554626465,-6.196630477905273,-0.3631250858306885
1715093481830834000,1.915833984375,-0.8160574436187744,-3.1559648513793945,1.7549026012420654
1715093481840782800,1.925782958984375,-1.9577465057373047,-2.3245668411254883,2.280425548553467
1715093481850762000,1.935761962890625,-0.9955844879150391,-1.2763605117797852,1.5480585098266602
1715093481860741000,1.9457412109375,-4.252749443054199,1.911759376525879,0.5676907300949097
1715093481870690000,1.95568994140625,-7.0117034912109375,1.6058387756347656,0.10230755805969238
1715093481880669200,1.965669189453125,-7.2011237144470215,1.404043197631836,-0.02672445774078369
1715093481890648600,1.975648681640625,-2.7146525382995605,1.112431526184082,0.6041898727416992
1715093481900597200,1.98559716796875,5.764701843261719,0.8386602401733398,3.619849681854248
1715093481910576400,1.995576416015625,7.986154079437256,1.2184133529663086,1.4050205945968628
1715093481920555800,2.0055556640625,4.75103759765625,0.30895042419433594,-1.326377511024475
1715093481930504400,2.01550439453125,-0.48819267749786377,-0.41506004333496094,-1.846399188041687
1715093481940483600,2.025483642578125,-0.09868800640106201,-0.41773509979248047,0.6896339654922485
1715093481950432500,2.0354326171875,0.6175624132156372,-0.2687206268310547,1.5100314617156982
1715093481960411600,2.04541162109375,0.28315508365631104,0.07486343383789062,0.6863632202148438
1715093481970390800,2.055390869140625,-0.04581594467163086,0.24750995635986328,0.6106504201889038
1715093481980339700,2.065339599609375,-0.10448205471038818,0.24984073638916016,0.46247243881225586
1715093481990318800,2.07531884765625,-0.6030263900756836,0.481353759765625,0.40571320056915283
1715093482000298200,2.08529833984375,0.07756161689758301,-0.14115428924560547,-0.6095989942550659
1715093482010277400,2.09527734375,-0.3503228425979614,0.3932962417602539,0.024848222732543945
1715093482020256500,2.105256591796875,-0.24225592613220215,0.05814361572265625,0.6622151136398315
1715093482030205400,2.115205322265625,-0.4020286798477173,-0.7156476974487305,1.073988676071167
1715093482040184600,2.1251845703125,0.041300058364868164,-0.9972686767578125,0.8519898653030396
1715093482050156500,2.135156494140625,0.21265149116516113,-0.6853618621826172,0.43014442920684814
1715093482060135700,2.1451357421875,-0.04920530319213867,-0.3063039779663086,0.4748777151107788
1715093482070084400,2.15508447265625,-0.40323734283447266,0.0283050537109375,0.267162561416626
1715093482080063700,2.165063720703125,-0.5414746999740601,0.21686363220214844,-0.013277888298034668
1715093482090043000,2.17504296875,-0.3816145658493042,0.2981691360473633,-0.19963443279266357
1715093482099991600,2.184991455078125,-0.09975850582122803,0.3151054382324219,-0.3072783946990967
1715093482109971000,2.194970947265625,0.09112346172332764,0.2699117660522461,-0.36311042308807373
1715093482119950000,2.2049501953125,-4.231540679931641,14.157919883728027,4.684085369110107
1715093482129899000,2.21489892578125,-13.58419418334961,31.392457962036133,-2.179104804992676
1715093482139878100,2.224878173828125,-1.35712468624115,4.248686790466309,-3.721050262451172
1715093482149857300,2.234857177734375,3.3465428352355957,-16.983226776123047,-1.3983068466186523
1715093482159806200,2.24480615234375,5.641534805297852,-5.822080612182617,0.05155932903289795
1715093482169785300,2.254785400390625,2.051792621612549,-4.919720649719238,-0.6666282415390015
1715093482179764700,2.2647646484375,3.7177584171295166,-5.89344596862793,0.42751753330230713
1715093482189713400,2.27471337890625,2.517902374267578,-6.229920387268066,0.3811832666397095
1715093482199692500,2.284692626953125,0.7194780707359314,-5.125783920288086,-0.15582120418548584
1715093482209672000,2.294671875,-0.017945528030395508,-2.9385995864868164,-0.9958276748657227
1715093482219620600,2.30462060546875,0.4214683771133423,-0.695673942565918,-0.692194938659668
1715093482229599700,2.314599853515625,-0.02056598663330078,-0.20875835418701172,-0.6786715984344482
1715093482239548400,2.32454833984375,-0.17924237251281738,-0.5865449905395508,0.5182892084121704
1715093482249527800,2.33452783203125,-0.322563111782074,-0.4821910858154297,1.2920746803283691
1715093482259507000,2.3445068359375,-0.05579817295074463,-0.14624404907226562,1.4499255418777466
1715093482269456000,2.354455810546875,-0.3063719868659973,-0.1639728546142578,1.1657748222351074
1715093482279435000,2.36443505859375,-0.3036462068557739,-0.3264894485473633,1.009078860282898
1715093482289414100,2.3744140625,-0.044375717639923096,0.09375476837158203,0.9901913404464722
1715093482299393500,2.3843935546875,0.02591976523399353,0.4789848327636719,0.6143492460250854
1715093482309372700,2.39437255859375,-0.04743993282318115,0.5477933883666992,-0.0007772445678710938
1715093482319321600,2.404321533203125,-0.14492756128311157,-0.10467243194580078,0.20041465759277344
1715093482329300700,2.41430078125,-0.11885887384414673,-0.2594766616821289,-0.28633248805999756
1715093482339280000,2.42427978515625,0.33571043610572815,-0.4934368133544922,-0.0004076957702636719
1715093482349228800,2.434228759765625,0.05885860323905945,-1.0112276077270508,0.02844059467315674
1715093482359208000,2.4442080078125,-0.5828540921211243,-1.4014720916748047,0.20086300373077393
1715093482369187300,2.454187255859375,-1.1697766780853271,-1.6406517028808594,0.24363970756530762
1715093482379166500,2.46416650390625,-1.3995269536972046,-2.050403594970703,0.1330488920211792
1715093482389115100,2.474115234375,-1.4697962999343872,-2.8601789474487305,0.11907029151916504
1715093482399094500,2.484094482421875,-0.9797097444534302,-3.142465591430664,0.04149520397186279
1715093482409073700,2.49407373046875,-0.09951267391443253,-3.4405107498168945,0.34034180641174316
1715093482419022300,2.504022216796875,-0.8266653418540955,-4.724308967590332,0.242148756980896
1715093482429001700,2.514001708984375,-0.4701003432273865,-3.6947145462036133,0.5151299238204956
1715093482438980900,2.52398095703125,0.5024892091751099,-2.6422176361083984,0.7584555149078369
1715093482448929500,2.533929443359375,0.3383786976337433,-0.753596305847168,1.8117536306381226
1715093482458909000,2.543908935546875,-0.2766847610473633,1.9755640029907227,0.8486223220825195
1715093482468888000,2.55388818359375,-1.4367197751998901,3.7693347930908203,-1.824365258216858
1715093482478837000,2.5638369140625,1.1164602041244507,4.21018123626709,3.5002388954162598
1715093482488816000,2.573816162109375,-0.380626380443573,3.6437835693359375,1.890175700187683
1715093482498764800,2.583764892578125,-1.0207252502441406,4.199309349060059,-0.5108354091644287
1715093482508744200,2.593744140625,-1.334425449371338,4.608048439025879,-0.9600361585617065
1715093482518723300,2.603723388671875,-1.3657097816467285,4.076992034912109,-0.5369703769683838
1715093482528672000,2.613672119140625,-0.4405837655067444,2.683506965637207,0.1883227825164795
1715093482538651400,2.6236513671875,0.2827252149581909,1.1926631927490234,0.15594053268432617
1715093482548630500,2.633630615234375,-0.2630816698074341,-0.37574291229248047,-0.4656621217727661
1715093482558579200,2.6435791015625,-0.08549374341964722,-0.42211341857910156,-0.7999188899993896
1715093482568558600,2.65355859375,0.2560867667198181,-0.7316265106201172,-0.8275257349014282
1715093482578537700,2.663537841796875,0.10259640216827393,-1.1002464294433594,-0.7183833122253418
1715093482588517000,2.67351708984375,-0.16627848148345947,-1.431900978088379,-0.5624550580978394
1715093482598496300,2.683496337890625,-0.2736874222755432,-1.537999153137207,-0.29206109046936035
1715093482608445000,2.69344482421875,-0.3484567403793335,-1.2835636138916016,0.07639837265014648
1715093482618424300,2.70342431640625,-0.41933298110961914,-0.7630577087402344,0.30867958068847656
1715093482628403500,2.713403564453125,-0.3056946396827698,-0.23750591278076172,0.37096965312957764
1715093482638382800,2.7233828125,-0.2511948347091675,0.2356719970703125,0.4006854295730591
1715093482648331500,2.73333154296875,-0.3571600317955017,0.6327829360961914,0.33769381046295166
1715093482658315300,2.743315185546875,-0.4239810109138489,0.8927698135375977,0.10195469856262207
1715093482668294400,2.75329443359375,-0.20068806409835815,1.1328248977661133,0.0739448070526123
1715093482678243000,2.7632431640625,-0.22538471221923828,1.2004241943359375,-0.0031393766403198242
1715093482688222500,2.773222412109375,-0.23509198427200317,1.1177740097045898,-0.016211509704589844
1715093482698201600,2.78320166015625,-0.20889705419540405,0.8613901138305664,0.08453786373138428
1715093482708150300,2.793150390625,-0.1966342329978943,0.5438213348388672,0.0034911632537841797
1715093482718129700,2.803129638671875,-0.19382166862487793,0.18189525604248047,-0.12426567077636719
1715093482728108800,2.81310888671875,-0.31520193815231323,-0.18366718292236328,-0.1910109519958496
1715093482738057500,2.823057373046875,-0.4359794855117798,-0.5478048324584961,-0.2985870838165283
1715093482748036900,2.833036865234375,-0.45559996366500854,-0.8051900863647461,-0.2569533586502075
1715093482758016000,2.84301611328125,-0.3486524820327759,-0.8631486892700195,-0.050246596336364746
1715093482767965000,2.85296484375,-0.14167261123657227,-0.7725391387939453,0.20581305027008057
1715093482777944000,2.862944091796875,0.18871724605560303,-0.576970100402832,0.5031720399856567
1715093482787923200,2.872923095703125,0.30613595247268677,-0.2387256622314453,0.8573486804962158
1715093482797872000,2.8828720703125,0.5740574598312378,0.08635425567626953,1.1526787281036377
1715093482807851300,2.892851318359375,0.6561701893806458,0.3645353317260742,1.2774558067321777
1715093482817800000,2.902800048828125,0.49826580286026,0.5339345932006836,1.2199920415878296
1715093482827779300,2.912779296875,0.28259825706481934,0.4329404830932617,1.009857416152954
1715093482837758500,2.922758544921875,0.022734224796295166,0.19145965576171875,0.7146921157836914
1715093482847737900,2.93273779296875,-0.036055147647857666,-0.18997478485107422,0.49048471450805664
1715093482857686500,2.9426865234375,0.0010165572166442871,-0.5390892028808594,0.2618674039840698
1715093482867665700,2.952665771484375,0.022659778594970703,-0.755742073059082,0.09927821159362793
1715093482877645000,2.96264501953125,0.0339391827583313,-0.7543954849243164,0.06545281410217285
1715093482887624200,2.972624267578125,0.12893104553222656,-0.5380868911743164,0.20557844638824463
1715093482897603600,2.982603515625,0.22672027349472046,-0.20063114166259766,0.33271682262420654
1715093482907552300,2.99255224609375,0.2315935492515564,0.17878437042236328,0.4082002639770508
1715093482917531400,3.002531494140625,0.24605804681777954,0.47101593017578125,0.47196078300476074
1715093482927510800,3.0125107421875,0.18433094024658203,0.7001256942749023,0.5346561670303345
1715093482937459500,3.02245947265625,0.12625575065612793,0.7947607040405273,0.49574851989746094
1715093482947438600,3.0324384765625,0.13589036464691162,0.7625942230224609,0.39903724193573
1715093482957418000,3.04241796875,0.3208712935447693,0.5658359527587891,0.3602849245071411
1715093482967366700,3.05236669921875,0.44317173957824707,0.3745584487915039,0.39728593826293945
1715093482977345800,3.062345703125,0.35926347970962524,0.3080873489379883,0.46654725074768066
1715093482987325200,3.0723251953125,0.18584507703781128,0.2919940948486328,0.49973058700561523
1715093482997273900,3.08227392578125,0.1924625039100647,0.18995189666748047,0.5603548288345337
1715093483007253200,3.092253173828125,0.32012975215911865,0.026092529296875,0.6104875206947327
1715093483017232400,3.102232421875,0.37486040592193604,-0.09438323974609375,0.7126777768135071
1715093483027181000,3.11218115234375,0.33851081132888794,-0.028333663940429688,0.797844648361206
1715093483037160400,3.122160400390625,0.14366090297698975,0.16159534454345703,0.7846036553382874
1715093483047139600,3.1321396484375,-0.14840847253799438,0.3366260528564453,0.7107039093971252
1715093483057088300,3.142088134765625,-0.25983095169067383,0.32485389709472656,0.5452862977981567
1715093483067067600,3.152067626953125,-0.5123291015625,0.15546035766601562,0.5198706388473511
1715093483077046800,3.162046875,-0.7385526895523071,-0.18050193786621094,0.4490697383880615
1715093483086995500,3.171995361328125,-0.7164921164512634,-0.4221467971801758,0.15631049871444702
1715093483096974800,3.181974853515625,-0.3523496389389038,-0.4289884567260742,-0.0948975682258606
1715093483106954000,3.1919541015625,0.11548233032226562,-0.29262638092041016,-0.13118165731430054
1715093483116903000,3.20190283203125,0.45612573623657227,-0.03271961212158203,-0.040908634662628174
1715093483126882000,3.211882080078125,0.639864981174469,0.264373779296875,-0.004529297351837158
1715093483136861200,3.221861083984375,1.152193307876587,0.6197376251220703,-0.06702560186386108
1715093483146810000,3.23181005859375,1.052471399307251,0.7726402282714844,0.25354522466659546
1715093483156789200,3.241789306640625,1.158977746963501,0.8285560607910156,0.4933067560195923
1715093483166768600,3.2517685546875,2.3236098289489746,0.4004240036010742,0.44293469190597534
1715093483176747800,3.261747802734375,1.49553382396698,0.19456005096435547,-0.04125106334686279
1715093483186727000,3.271726806640625,0.8341946601867676,-0.23478317260742188,-0.42004668712615967
1715093483196675800,3.28167578125,0.4397507905960083,-0.7165107727050781,-0.6503713130950928
1715093483206655000,3.291655029296875,-0.032127976417541504,-1.123392105102539,-0.6829389929771423
1715093483216634400,3.30163427734375,-0.4501553177833557,-1.30938720703125,-0.6271483898162842
1715093483226583000,3.3115830078125,-0.3241155743598938,-1.1917743682861328,-0.8526824116706848
1715093483236562200,3.321562255859375,0.08045727014541626,-0.9157400131225586,-0.978914201259613
1715093483246541600,3.33154150390625,0.8767354488372803,-0.7383012771606445,-0.7783802151679993
1715093483256490200,3.341490234375,1.4661386013031006,-0.5596752166748047,-0.4948609471321106
1715093483266469400,3.351469482421875,1.596482515335083,-0.28214550018310547,-0.26666247844696045
1715093483276448800,3.36144873046875,1.7008455991744995,0.10350608825683594,0.12395608425140381
1715093483286397400,3.3713974609375,1.3129308223724365,0.4873323440551758,0.49894797801971436
1715093483296376600,3.38137646484375,0.8201653957366943,0.7885341644287109,0.6386154890060425
1715093483306356000,3.39135595703125,0.5328185558319092,1.0242900848388672,0.7006846070289612
1715093483316304600,3.4013046875,0.4643250107765198,1.2640762329101562,0.7584709525108337
1715093483326284000,3.411283935546875,0.43113189935684204,1.4337987899780273,0.8956196904182434
1715093483336263200,3.42126318359375,0.6635974645614624,1.5406208038330078,1.1371805667877197
1715093483346211800,3.4312119140625,0.8921345472335815,1.5248603820800781,1.3514435291290283
1715093483356191200,3.441191162109375,1.138620138168335,1.2365694046020508,1.1163113117218018
1715093483366170400,3.45117041015625,1.0035725831985474,0.9106292724609375,1.1592644453048706
1715093483376119000,3.461119140625,1.0586493015289307,0.6834840774536133,1.1856603622436523
1715093483386098400,3.471098388671875,1.2053300142288208,0.6576004028320312,1.3927209377288818
1715093483396077600,3.48107763671875,1.2802817821502686,0.6033143997192383,1.4522522687911987
1715093483406026200,3.491026123046875,1.5242552757263184,0.5327272415161133,1.2071774005889893
1715093483416005600,3.501005615234375,1.5474648475646973,0.4722261428833008,1.0584224462509155
1715093483425984800,3.51098486328125,1.4751718044281006,0.44089508056640625,1.1112768650054932
1715093483435933400,3.520933349609375,1.3794314861297607,0.4005002975463867,1.1583786010742188
1715093483445912800,3.530912841796875,1.2066484689712524,0.2938385009765625,1.21365487575531
1715093483455892000,3.54089208984375,1.2193189859390259,0.2188425064086914,1.0710554122924805
1715093483465871400,3.550871337890625,1.3973453044891357,0.1464986801147461,0.806232213973999
1715093483475850500,3.5608505859375,1.4325366020202637,0.08141231536865234,0.3525080680847168
1715093483485799200,3.570799072265625,1.5366586446762085,0.06647300720214844,-0.0488143265247345
1715093483495778600,3.580778564453125,1.8690521717071533,0.09189891815185547,-0.4968196749687195
1715093483505757700,3.5907578125,2.2570507526397705,0.16712474822998047,-0.8244686126708984
1715093483515706600,3.60070654296875,2.652660369873047,0.15845394134521484,-1.1152504682540894
1715093483525685800,3.610685791015625,3.0856857299804688,0.29530811309814453,-1.02750825881958
1715093483535665000,3.620664794921875,3.263505458831787,0.48649120330810547,-0.7085295915603638
1715093483545613800,3.63061376953125,3.4067583084106445,0.6339359283447266,-0.3752741813659668
1715093483555593000,3.640593017578125,3.218844175338745,0.6255912780761719,0.12539872527122498
1715093483565572400,3.650572265625,3.2419326305389404,0.5692529678344727,0.7820473313331604
1715093483575521000,3.66052099609375,3.202972412109375,0.1928997039794922,1.1958891153335571
1715093483585500200,3.670500244140625,3.4958102703094482,-0.21610260009765625,1.5301192998886108
1715093483595479600,3.6804794921875,3.99643611907959,-0.5527439117431641,2.0539541244506836
1715093483605428200,3.69042822265625,4.324583053588867,-0.8127775192260742,2.935797691345215
1715093483615407400,3.700407470703125,4.265448570251465,-1.1034307479858398,2.9104928970336914
1715093483625386800,3.71038671875,4.170321941375732,-0.9800148010253906,3.0067038536071777
1715093483635335400,3.72033544921875,3.9863266944885254,-0.620030403137207,2.882751941680908
1715093483645314600,3.730314453125,3.6529953479766846,-0.4278135299682617,2.369418144226074
1715093483655294000,3.7402939453125,3.0377132892608643,-0.4770021438598633,2.2294228076934814
1715093483665242600,3.75024267578125,2.961792469024658,-0.4759979248046875,2.434427261352539
1715093483675222000,3.760221923828125,3.09140682220459,-0.4183492660522461,2.223236083984375
1715093483685201200,3.770201171875,2.6612753868103027,-0.7612457275390625,1.8799536228179932
1715093483695149800,3.78014990234375,2.3279075622558594,-1.0895986557006836,1.7496494054794312
1715093483705129200,3.790129150390625,1.1991671323776245,-1.2658271789550781,1.670362949371338
1715093483715108400,3.8001083984375,-0.35910773277282715,-1.1539573669433594,1.7443994283676147
1715093483725087700,3.810087646484375,-1.7942858934402466,-0.8061752319335938,1.20720374584198
1715093483735036400,3.820036376953125,-2.4260172843933105,-0.31775379180908203,0.4792622923851013
1715093483745015600,3.830015625,-3.0948047637939453,0.33786678314208984,0.2758585214614868
1715093483754995000,3.839994873046875,-2.934570789337158,0.5376453399658203,-0.0030933618545532227
1715093483764974000,3.84997412109375,-2.245948314666748,0.05171966552734375,-0.7770135402679443
1715093483774922800,3.8599228515625,-0.7732433080673218,-0.4224205017089844,-2.62113094329834
1715093483784902100,3.869902099609375,0.9815487861633301,-1.0612049102783203,-4.0763678550720215
1715093483794881300,3.87988134765625,0.7282136678695679,-2.003978729248047,-4.195097923278809
1715093483804830000,3.889829833984375,1.162926435470581,-2.6886186599731445,-4.644434928894043
1715093483814809300,3.899809326171875,1.1844300031661987,-3.8102245330810547,-5.73081636428833
1715093483824788500,3.90978857421875,2.4069628715515137,-4.458583831787109,-3.864037275314331
1715093483834737200,3.919737060546875,2.3929059505462646,-3.995333671569824,-0.63518887758255
1715093483844716500,3.929716552734375,-0.08241772651672363,-4.12117862701416,1.613590955734253
1715093483854695700,3.93969580078125,0.03325653076171875,-3.8452577590942383,4.02570915222168
1715093483864644600,3.94964453125,-1.5989222526550293,-2.3345956802368164,6.609572887420654
1715093483874623700,3.959623779296875,-4.093207359313965,-0.9175729751586914,5.901801586151123
1715093483884603000,3.969602783203125,-5.967702865600586,0.4097471237182617,5.174314498901367
1715093483894551800,3.9795517578125,-5.567493438720703,1.3583507537841797,3.7689762115478516
1715093483904531000,3.989531005859375,-3.747192621231079,1.9312028884887695,1.8397685289382935
1715093483914510300,3.99951025390625,-2.037631034851074,1.9002857208251953,0.3023498058319092
1715093483924459000,4.009458984375,-0.7322897911071777,1.7233543395996094,-1.1908894777297974
1715093483934438100,4.019438232421875,0.18087553977966309,1.8667011260986328,-2.131180763244629
1715093483944417500,4.02941748046875,0.7290463447570801,2.280491828918457,-3.1927061080932617
1715093483954366200,4.0393662109375,0.9697251319885254,2.6119375228881836,-3.881296157836914
1715093483964345300,4.049345458984375,0.6164450645446777,2.785122871398926,-4.197635650634766
1715093483974324700,4.05932470703125,-0.06775188446044922,2.77520751953125,-4.089376449584961
1715093483984273400,4.0692734375,-1.0656938552856445,2.4542617797851562,-3.699280023574829
1715093483994252500,4.07925244140625,-1.4021310806274414,1.8748655319213867,-3.5451316833496094
1715093484004232000,4.08923193359375,-1.4373514652252197,1.6783771514892578,-3.0835938453674316
1715093484014211000,4.099211181640625,-1.3015892505645752,1.6202898025512695,-2.6146128177642822
1715093484024160000,4.109159912109375,-0.9169778823852539,1.531723976135254,-2.418430805206299
1715093484034139100,4.11913916015625,-0.7359583377838135,1.4560480117797852,-2.526319742202759
1715093484044118300,4.1291181640625,-0.5343174934387207,1.6685676574707031,-2.604789972305298
1715093484054097700,4.13909765625,-0.2657797336578369,1.920090675354004,-1.8120307922363281
1715093484064046300,4.14904638671875,-0.5241241455078125,2.059882164001465,-0.7841379642486572
1715093484074025700,4.159025634765625,-0.04064488410949707,2.1357078552246094,0.3576035499572754
1715093484084004900,4.1690048828125,0.946624755859375,2.551057815551758,1.2170565128326416
1715093484093953500,4.17895361328125,1.3303720951080322,3.180628776550293,2.2226433753967285
1715093484103933000,4.188932861328125,1.6010527610778809,3.9571094512939453,3.0754218101501465
1715093484113912000,4.198912109375,2.1051981449127197,4.004426002502441,3.6384267807006836
1715093484123860700,4.20886083984375,1.839728593826294,3.242023468017578,3.264571189880371
1715093484133840100,4.218840087890625,1.6830627918243408,1.7097644805908203,2.6789984703063965
1715093484143819300,4.2288193359375,2.443511962890625,-0.6233615875244141,2.5408942699432373
1715093484153768000,4.238767822265625,2.871072769165039,-4.690647125244141,1.033212661743164
1715093484163747300,4.248747314453125,3.9493415355682373,-6.504378318786621,-0.3114464282989502
1715093484173726500,4.2587265625,5.389493942260742,-6.237308502197266,0.6288948059082031
1715093484183675100,4.268675048828125,4.163478374481201,-4.533259391784668,2.026371479034424
1715093484193654500,4.278654541015625,1.9900236129760742,-2.3543739318847656,2.3358705043792725
1715093484203633700,4.288633544921875,-0.20059466361999512,-0.5246448516845703,1.1631989479064941
1715093484213582600,4.29858251953125,-0.767509937286377,-0.7503728866577148,-0.5853421688079834
1715093484223561700,4.308561767578125,-0.49326324462890625,-2.4103689193725586,-1.3800902366638184
1715093484233540900,4.318540771484375,-2.148709297180176,-3.5929183959960938,-2.0201075077056885
1715093484243489800,4.32848974609375,-3.1937496662139893,-5.506839752197266,-2.8217430114746094
1715093484253469000,4.338468994140625,-2.800626754760742,-7.45551872253418,-3.697349786758423
1715093484263448300,4.3484482421875,-2.9017136096954346,-8.7760648727417,-3.808161973953247
1715093484273397000,4.35839697265625,-2.8719801902770996,-8.844161987304688,-2.257263660430908
1715093484283376000,4.368376220703125,-2.83548641204834,-6.776832580566406,-1.8118793964385986
1715093484293355500,4.37835546875,-3.125687837600708,-4.057610511779785,-0.9222636222839355
1715093484303334700,4.388334716796875,-3.01883602142334,-2.0944948196411133,-0.09342098236083984
1715093484313283300,4.398283447265625,-3.4500892162323,-0.8708324432373047,0.4484982490539551
1715093484323262700,4.4082626953125,-3.4905753135681152,-0.07501888275146484,0.3226454257965088
1715093484333241900,4.418241943359375,-3.465360164642334,0.39919376373291016,-0.19522833824157715
1715093484343221200,4.42822119140625,-3.473064422607422,0.43852901458740234,-0.7749574184417725
1715093484353170000,4.438169921875,-2.5605766773223877,0.4531402587890625,-1.640150547027588
1715093484363149000,4.448149169921875,-0.5854361057281494,0.07252311706542969,-2.7222073078155518
1715093484373128400,4.45812841796875,0.7287079095840454,-0.8035602569580078,-3.5674405097961426
1715093484383077000,4.4680771484375,2.6087374687194824,-0.5435905456542969,-2.5780460834503174
1715093484393056300,4.47805615234375,4.27012825012207,-0.4842948913574219,-3.2679860591888428
1715093484403035600,4.48803564453125,6.345329761505127,-0.7686138153076172,-4.169647216796875
1715093484412984300,4.497984375,4.937613487243652,-0.07065010070800781,-3.5416719913482666
1715093484422963700,4.507963623046875,1.822961449623108,1.0516843795776367,-3.0211551189422607
1715093484432942800,4.51794287109375,-0.5265204906463623,2.117823600769043,-1.649595022201538
1715093484442891500,4.5278916015625,-3.643700122833252,2.394648551940918,-2.162520170211792
1715093484452871000,4.537870849609375,-3.3652992248535156,3.188375473022461,-1.3441057205200195
1715093484462850000,4.54785009765625,-0.6671481132507324,3.945852279663086,-1.4770090579986572
1715093484472798700,4.557798828125,0.40508830547332764,4.327899932861328,-0.7737569808959961
1715093484482778000,4.567778076171875,-0.5500240325927734,4.203244209289551,-0.7404565811157227
1715093484492757200,4.57775732421875,-1.5637692213058472,4.030387878417969,-0.4257946014404297
1715093484502706000,4.587705810546875,-1.7309383153915405,4.091000556945801,0.9993159770965576
1715093484512685300,4.597685302734375,-0.6926867961883545,3.299880027770996,0.03123629093170166
1715093484522664400,4.60766455078125,-1.3195143938064575,2.670241355895996,0.7530324459075928
1715093484532613400,4.61761328125,-1.7997390031814575,1.9379711151123047,0.9062135219573975
1715093484542592500,4.627592529296875,-0.7884434461593628,1.086766242980957,0.49280858039855957
1715093484552571600,4.637571533203125,-1.0080989599227905,0.7642412185668945,0.6255921125411987
1715093484562520600,4.6475205078125,2.683166980743408,-0.5121994018554688,-0.760654091835022
1715093484572499700,4.657499755859375,1.905874252319336,-0.7150354385375977,-0.32289326190948486
1715093484582478800,4.667478759765625,2.5262320041656494,-0.7634820938110352,-0.45571625232696533
1715093484592458200,4.677458251953125,2.5309715270996094,-1.002934455871582,-0.8019793033599854
1715093484602437400,4.687437255859375,2.1819238662719727,-0.9899082183837891,-0.7312185764312744
1715093484612386300,4.69738623046875,2.6424379348754883,-0.3072977066040039,-0.42426908016204834
1715093484622365400,4.707365478515625,3.903839111328125,0.8628435134887695,-0.38960325717926025
1715093484632344600,4.717344482421875,4.710064888000488,2.0907211303710938,-0.5785847902297974
1715093484642293500,4.72729345703125,4.75584077835083,3.3440933227539062,-0.7197921276092529
1715093484652272600,4.737272705078125,3.880995035171509,4.458987236022949,-0.7955383062362671
1715093484662252000,4.747251953125,2.693361759185791,5.236222267150879,-0.7237731218338013
1715093484672200700,4.75720068359375,1.1273781061172485,4.970788955688477,-0.34615302085876465
1715093484682179800,4.767179931640625,0.687094509601593,3.4816999435424805,0.4405914545059204
1715093484692159200,4.7771591796875,0.2582895755767822,1.0312118530273438,1.3936213254928589
1715093484702108000,4.78710791015625,0.7684164047241211,-1.4680404663085938,2.461181640625
1715093484712087000,4.797087158203125,3.1246070861816406,-3.554762840270996,2.2787723541259766
1715093484722066400,4.80706640625,3.8575940132141113,-5.045770645141602,1.2495521306991577
1715093484732015000,4.81701513671875,3.515904426574707,-6.077838897705078,1.977185845375061
1715093484741994200,4.826994140625,3.898171901702881,-5.798705101013184,1.8065104484558105
1715093484751973600,4.8369736328125,4.022313117980957,-3.5166826248168945,1.4725533723831177
1715093484761922300,4.84692236328125,2.6916184425354004,-1.0070886611938477,1.4817246198654175
1715093484771901700,4.856901611328125,1.8559439182281494,-0.2203998565673828,1.1561282873153687
1715093484781880800,4.866880859375,1.2309383153915405,0.24989986419677734,0.9889544248580933
1715093484791829500,4.87682958984375,0.5347778797149658,0.9118795394897461,0.8295812606811523
1715093484801809000,4.886808837890625,-0.9550693035125732,1.077322006225586,0.7774970531463623
1715093484811788000,4.8967880859375,-1.9127613306045532,0.6180133819580078,0.3527686595916748
1715093484821736700,4.90673681640625,-2.6928584575653076,0.23470306396484375,-0.255704402923584
1715093484831716000,4.916716064453125,-3.3724424839019775,-0.2893543243408203,-1.2686271667480469
1715093484841695200,4.9266953125,-3.3789234161376953,-0.9017400741577148,-2.728952169418335
1715093484851674600,4.936674560546875,-3.2116312980651855,-1.7623825073242188,-4.4763665199279785
1715093484861623300,4.946623291015625,-2.015976667404175,-3.6153717041015625,-5.840096473693848
1715093484871602400,4.9566025390625,-0.5897421836853027,-5.537067413330078,-5.661713600158691
1715093484881581800,4.966581787109375,0.3331449031829834,-7.185016632080078,-5.740461349487305
1715093484891561000,4.97656103515625,1.0616602897644043,-8.610280990600586,-5.276132583618164
1715093484901509600,4.986509521484375,-1.097965955734253,-8.804840087890625,-3.704279899597168
1715093484911489000,4.996489013671875,-3.067767858505249,-8.633905410766602,-2.1366641521453857
1715093484921468200,5.00646826171875,-2.9477736949920654,-6.95662784576416,-0.3136024475097656
1715093484931417000,5.0164169921875,-5.139710903167725,-4.09019660949707,3.856231689453125
1715093484941396200,5.026396240234375,-4.853841304779053,-1.1171369552612305,7.085086822509766
1715093484951375400,5.036375244140625,-3.2049026489257812,1.8134641647338867,8.216025352478027
1715093484961324300,5.04632421875,-2.5861153602600098,4.092685699462891,9.607419967651367
1715093484971303400,5.056303466796875,-3.6332736015319824,5.411701202392578,8.365813255310059
1715093484981282600,5.066282470703125,-4.435391426086426,5.160655975341797,5.717973232269287
1715093484991231500,5.0762314453125,-3.7941770553588867,3.7415781021118164,2.913130283355713
1715093485001210600,5.086210693359375,-2.18070650100708,2.748687744140625,-0.07352054119110107
1715093485011190000,5.09618994140625,-0.43917226791381836,3.011411666870117,-1.945180892944336
1715093485021138700,5.106138671875,0.10720634460449219,3.3924121856689453,-3.1153225898742676
1715093485031117800,5.116117919921875,1.2306859493255615,3.518688201904297,-3.885108232498169
1715093485041097200,5.12609716796875,1.6631169319152832,3.4594717025756836,-4.530638217926025
1715093485051046000,5.1360458984375,1.1795899868011475,3.1310482025146484,-5.183484077453613
1715093485061025000,5.14602490234375,0.04201817512512207,2.8430728912353516,-4.887012958526611
1715093485071004400,5.15600439453125,-1.3579685688018799,2.521881103515625,-4.248307228088379
1715093485080953000,5.165953125,-2.276886463165283,2.1476268768310547,-4.096127986907959
1715093485090932200,5.17593212890625,-2.8502840995788574,1.7105522155761719,-3.408435821533203
1715093485100911600,5.18591162109375,-2.840654134750366,1.268594741821289,-2.7313549518585205
1715093485110860300,5.1958603515625,-2.414684772491455,0.7970066070556641,-2.668642520904541
1715093485120839700,5.205839599609375,-1.941734790802002,0.4513282775878906,-2.8916537761688232
1715093485130818800,5.21581884765625,-1.1699168682098389,0.34125518798828125,-2.6123929023742676
1715093485140798000,5.2257978515625,-0.5156965255737305,0.6186103820800781,-1.9124350547790527
1715093485150747000,5.235746826171875,-0.04622840881347656,1.031193733215332,-0.717442512512207
1715093485160726000,5.24572607421875,-0.07235050201416016,1.4129180908203125,0.6741633415222168
1715093485170705400,5.255705322265625,1.3052632808685303,2.0397872924804688,2.3585681915283203
1715093485180684500,5.2656845703125,2.16087007522583,2.6533288955688477,3.438317060470581
1715093485190633200,5.27563330078125,2.397890567779541,2.8014211654663086,3.9101905822753906
1715093485200612600,5.285612548828125,2.073831081390381,2.4732770919799805,3.7652575969696045
1715093485210591700,5.295591796875,1.2309808731079102,1.9321203231811523,3.6021623611450195
1715093485220571100,5.305571044921875,0.936213493347168,1.471445083618164,4.204919815063477
1715093485230519800,5.315519775390625,2.1197926998138428,0.22103118896484375,4.749771595001221
1715093485240499000,5.3254990234375,4.040363311767578,-2.7537927627563477,3.7311933040618896
1715093485250478300,5.335478271484375,5.898775100708008,-4.429739952087402,2.384718418121338
1715093485260427000,5.345427001953125,6.395532608032227,-4.6856584548950195,2.2219064235687256
1715093485270406100,5.35540625,4.426781177520752,-4.232388496398926,2.3139922618865967
1715093485280385500,5.365385498046875,1.2396421432495117,-4.092513084411621,2.5396738052368164
1715093485290334200,5.375334228515625,-0.7306215763092041,-4.5126848220825195,2.007786512374878
1715093485300313300,5.385313232421875,-1.8667163848876953,-5.535390853881836,1.0297818183898926
1715093485310262300,5.39526220703125,-2.0660722255706787,-6.156925201416016,-0.8731245994567871
1715093485320241400,5.405241455078125,-2.712956428527832,-6.257220268249512,-2.806028366088867
1715093485330220800,5.415220703125,-3.070117235183716,-6.6716461181640625,-4.7504730224609375
1715093485340169500,5.42516943359375,-2.0169684886932373,-6.835864067077637,-5.389980316162109
1715093485350148600,5.435148681640625,-0.8497037887573242,-5.707147598266602,-3.5492513179779053
1715093485360128000,5.4451279296875,-1.4782590866088867,-3.4580087661743164,-1.69171142578125
1715093485370076700,5.45507666015625,-2.2427597045898438,-2.215743064880371,-2.3174500465393066
1715093485380055800,5.465055908203125,-2.861192464828491,-1.7281522750854492,-2.0951638221740723
1715093485390035200,5.47503515625,-3.405555486679077,-1.4207468032836914,-1.0785479545593262
1715093485399983900,5.48498388671875,-4.408731460571289,-1.3536853790283203,-0.800898551940918
1715093485409963000,5.494962890625,-5.211359024047852,-1.2700433731079102,-1.0465593338012695
1715093485419942400,5.5049423828125,-4.421604156494141,-0.880894660949707,-0.3195221424102783
1715093485429921500,5.514921630859375,-3.8060593605041504,-0.8828601837158203,-0.4783613681793213
1715093485439870200,5.5248701171875,-2.598123788833618,-1.1747894287109375,-0.9178206920623779
1715093485449849600,5.534849609375,-1.0287492275238037,-1.7374515533447266,-1.6112799644470215
1715093485459828700,5.544828857421875,0.708341121673584,-1.8350324630737305,-2.2848381996154785
1715093485469808000,5.55480810546875,2.5422112941741943,-1.0805835723876953,-2.241894245147705
1715093485479787300,5.564787353515625,4.790902137756348,-0.004496574401855469,-2.2381303310394287
1715093485489736000,5.57473583984375,5.4535040855407715,1.2279348373413086,-3.1097614765167236
1715093485499715300,5.58471533203125,3.602461099624634,2.4014511108398438,-3.6411118507385254
1715093485509694500,5.594694580078125,0.05124068260192871,2.4119062423706055,-3.380589246749878
1715093485519643400,5.604643310546875,-1.7423943281173706,2.840456008911133,-1.121088981628418
1715093485529622500,5.61462255859375,-1.3719085454940796,3.281538963317871,-0.4395846128463745
1715093485539601700,5.6246015625,-1.287116289138794,3.9663047790527344,-0.9411935806274414
1715093485549550600,5.634550537109375,-0.12272608280181885,4.337222099304199,-1.5913819074630737
1715093485559529700,5.64452978515625,0.8192325830459595,4.371316909790039,-1.2002261877059937
1715093485569509000,5.654509033203125,1.4356889724731445,4.060667037963867,-0.6088019609451294
1715093485579457800,5.664457763671875,1.192154049873352,3.2525386810302734,-1.5558781623840332
1715093485589437000,5.67443701171875,-0.22651875019073486,2.998075485229492,-0.7807235717773438
1715093485599416300,5.684416259765625,-0.8001389503479004,2.8768224716186523,0.3604559898376465
1715093485609365000,5.694364990234375,-0.9635237455368042,2.729219436645508,1.5430487394332886
1715093485619344100,5.70434423828125,-0.8769360780715942,2.432225227355957,1.9372692108154297
1715093485629323500,5.714323486328125,-0.4292949438095093,2.22135066986084,1.258476734161377
1715093485639272200,5.724272216796875,0.11622226238250732,1.5605049133300781,1.8894683122634888
1715093485649251300,5.734251220703125,-0.016147613525390625,0.7695856094360352,0.5572364330291748
1715093485659230700,5.744230712890625,0.006392955780029297,0.5935955047607422,0.23573660850524902
1715093485669179400,5.754179443359375,1.7836283445358276,-0.27373409271240234,-0.048087477684020996
1715093485679158800,5.76415869140625,1.8152201175689697,-0.6251983642578125,0.5527830123901367
1715093485689138000,5.774137939453125,1.9223544597625732,-0.8433322906494141,0.4807248115539551
1715093485699086600,5.784086669921875,2.364190101623535,-0.5711393356323242,0.9393643140792847
1715093485709066000,5.79406591796875,3.5965542793273926,0.24144363403320312,0.7420997619628906
1715093485719045000,5.804045166015625,4.881889820098877,1.3719863891601562,0.4042748212814331
1715093485729024500,5.8140244140625,5.402797222137451,2.7736425399780273,-0.061647891998291016
1715093485738973200,5.82397314453125,4.506134033203125,4.043862342834473,-0.4061274528503418
1715093485748952300,5.833952392578125,3.2278048992156982,4.955937385559082,-0.3942955732345581
1715093485758931700,5.843931640625,2.140813112258911,5.076803207397461,-0.39223718643188477
1715093485768910800,5.853910888671875,1.280996561050415,4.264391899108887,-0.1471405029296875
1715093485778859500,5.863859619140625,0.16690152883529663,2.0176992416381836,0.7201783657073975
1715093485788839000,5.8738388671875,0.8422495126724243,-0.8381757736206055,2.0980119705200195
1715093485798818000,5.883818115234375,2.178981065750122,-2.8517255783081055,2.943561553955078
1715093485808766700,5.8937666015625,2.700033664703369,-4.304944038391113,2.666842460632324
1715093485818746000,5.90374609375,3.4399173259735107,-4.801297187805176,2.5811381340026855
1715093485828725200,5.913725341796875,3.8075108528137207,-4.7645416259765625,2.6606292724609375
1715093485838674000,5.923673828125,4.27488899230957,-2.46993350982666,1.9490370750427246
1715093485848653300,5.9336533203125,3.4555656909942627,0.11308765411376953,1.593284010887146
1715093485858632400,5.943632568359375,2.406585454940796,0.9891252517700195,0.7972034215927124
1715093485868581400,5.953581298828125,1.5725173950195312,0.6790695190429688,0.016069769859313965
1715093485878560500,5.963560546875,0.7783360481262207,0.85614013671875,-0.4898570775985718
1715093485888539600,5.97353955078125,-1.2315683364868164,1.3207054138183594,-0.5987890958786011
1715093485898488600,5.983488525390625,-2.0198593139648438,1.060537338256836,-0.7484828233718872
1715093485908467700,5.9934677734375,-2.271256923675537,0.6200790405273438,-1.1304274797439575
1715093485918447000,6.003447021484375,-2.999885320663452,-0.0947265625,-1.9237107038497925
1715093485928395800,6.013395751953125,-3.3741421699523926,-1.1578426361083984,-3.5912137031555176
1715093485938375000,6.023375,-3.341548204421997,-2.6586761474609375,-4.9744157791137695
1715093485948354300,6.033354248046875,-1.9762771129608154,-4.310999870300293,-5.73616886138916
1715093485958303000,6.043302978515625,-0.1261730194091797,-6.48084831237793,-5.023071765899658
1715093485968282000,6.0532822265625,1.4892749786376953,-9.444846153259277,-4.399003028869629
1715093485978261500,6.063261474609375,1.300475835800171,-11.4365234375,-5.082503318786621
1715093485988210200,6.073210205078125,-0.13856720924377441,-12.041519165039062,-3.1247477531433105
1715093485998189300,6.083189208984375,-2.1854846477508545,-11.088818550109863,-0.45473599433898926
1715093486008168700,6.093168701171875,-5.741184234619141,-8.152572631835938,3.441175937652588
1715093486018147800,6.10314794921875,-6.073439598083496,-5.311264991760254,6.7929158210754395
1715093486028096800,6.1130966796875,-8.497102737426758,-2.8725690841674805,6.621580600738525
1715093486038076000,6.123075927734375,-7.9457197189331055,0.9293556213378906,8.82911491394043
1715093486048055000,6.133054931640625,-4.954281806945801,4.633638381958008,10.714960098266602
1715093486058034400,6.143034423828125,-3.372474431991577,5.399636268615723,7.364780426025391
1715093486067983000,6.152983154296875,-3.236907482147217,5.078624725341797,3.9543936252593994
1715093486077962500,6.16296240234375,0.21401596069335938,3.839322090148926,1.0217586755752563
1715093486087941600,6.172941650390625,0.9782211780548096,3.5635557174682617,-1.0363813638687134
1715093486097890300,6.182890380859375,0.4128420352935791,3.942898750305176,-2.672340154647827
1715093486107869700,6.19286962890625,0.5213279724121094,4.133342742919922,-3.7569169998168945
1715093486117848800,6.202848876953125,0.5737953186035156,4.726754188537598,-4.037131309509277
1715093486127797500,6.212797607421875,0.21659398078918457,4.800031661987305,-4.606259346008301
1715093486137777000,6.22277685546875,-0.32983875274658203,4.247900009155273,-5.343306064605713
1715093486147756000,6.232756103515625,-1.1423449516296387,3.535593032836914,-5.623963356018066
1715093486157704700,6.24270458984375,-2.1692006587982178,2.6215972900390625,-5.089784622192383
1715093486167684000,6.25268408203125,-2.9366774559020996,1.9214916229248047,-4.571801662445068
1715093486177663200,6.262663330078125,-2.919504404067993,1.374460220336914,-3.98081636428833
1715093486187612000,6.27261181640625,-2.4939746856689453,0.5984592437744141,-3.338872194290161
1715093486197591300,6.28259130859375,-2.7407751083374023,-0.1849651336669922,-2.895909309387207
1715093486207570400,6.2925703125,-2.1679799556732178,-0.3794975280761719,-2.830561876296997
1715093486217519400,6.302519287109375,-0.973759651184082,0.08388423919677734,-2.2766082286834717
1715093486227498500,6.31249853515625,-0.07939267158508301,1.2137374877929688,-1.059748888015747
1715093486237477600,6.3224775390625,-0.19335699081420898,1.8183183670043945,0.09980893135070801
1715093486247426600,6.332426513671875,0.7210700511932373,2.5122833251953125,1.880861520767212
1715093486257405700,6.34240576171875,1.6070797443389893,3.368043899536133,3.1198995113372803
1715093486267385000,6.352385009765625,2.501991033554077,4.020620346069336,4.151965141296387
1715093486277333800,6.362333740234375,3.1086456775665283,4.068148612976074,4.843045234680176
1715093486287313000,6.37231298828125,2.6432533264160156,3.3176488876342773,4.808941841125488
1715093486297292300,6.382292236328125,1.977625846862793,1.930405616760254,4.615853786468506
1715093486307271400,6.392271484375,2.869509220123291,-0.7750568389892578,4.299211502075195
1715093486317250800,6.402250732421875,4.316306114196777,-4.862537384033203,2.1232986450195312
1715093486327199500,6.412199462890625,6.536721706390381,-6.028445243835449,0.8486120700836182
1715093486337178600,6.4221787109375,7.620401382446289,-4.926510810852051,0.9354982376098633
1715093486347158000,6.432157958984375,4.932123184204102,-2.7736682891845703,1.6512579917907715
1715093486357106700,6.442106689453125,0.40720462799072266,-1.4827213287353516,1.2222025394439697
1715093486367085800,6.4520859375,-2.302729845046997,-1.0073843002319336,1.3313391208648682
1715093486377065200,6.462065185546875,-2.6846022605895996,-3.5734806060791016,0.9928891658782959
1715093486387014000,6.472013916015625,-2.9465227127075195,-5.258207321166992,-0.0029196739196777344
1715093486396993000,6.481992919921875,-4.869333267211914,-6.320362091064453,-1.3972094058990479
1715093486406972400,6.491972412109375,-4.691477298736572,-8.334169387817383,-3.7198266983032227
1715093486416921000,6.501921142578125,-1.9926822185516357,-9.642271995544434,-4.289522171020508
1715093486426900500,6.511900390625,-1.192293643951416,-9.95854663848877,-3.817181348800659
1715093486436879600,6.521879638671875,-0.4118313789367676,-6.874142646789551,-2.258699893951416
1715093486446828300,6.531828369140625,-1.3299267292022705,-3.515915870666504,-1.9232721328735352
1715093486456807700,6.5418076171875,-1.5338513851165771,-1.524764060974121,-1.926285982131958
1715093486466786800,6.551786865234375,-2.1125640869140625,-0.16170120239257812,-1.2229292392730713
1715093486476735500,6.561735595703125,-3.476161479949951,0.5837106704711914,-0.8475353717803955
1715093486486715000,6.57171484375,-4.448143482208252,0.49030590057373047,-0.913020133972168
1715093486496694000,6.581694091796875,-4.825651168823242,-0.03127479553222656,-1.4952962398529053
1715093486506642700,6.591642578125,-4.19249963760376,-0.5121335983276367,-1.9435889720916748
1715093486516622000,6.6016220703125,-1.82429039478302,-0.7852687835693359,-1.9941785335540771
1715093486526601200,6.611601318359375,0.2808103561401367,-1.07305908203125,-2.0496621131896973
1715093486536550100,6.621550048828125,2.3374617099761963,-1.282240867614746,-2.7296130657196045
1715093486546529300,6.631529296875,3.3742265701293945,-1.257939338684082,-2.824505090713501
1715093486556508400,6.64150830078125,3.1726760864257812,-0.8369960784912109,-2.634758949279785
1715093486566487800,6.65148779296875,1.9807841777801514,-0.15895652770996094,-3.1954758167266846
1715093486576436500,6.6614365234375,0.819873571395874,0.8769760131835938,-3.6742842197418213
1715093486586415600,6.67141552734375,0.3250541687011719,2.07625675201416,-3.4894845485687256
1715093486596395000,6.68139501953125,0.9154515266418457,2.825958251953125,-1.4059317111968994
1715093486606374100,6.6913740234375,1.1740880012512207,3.270991325378418,0.4645564556121826
1715093486616353500,6.701353515625,-1.3083744049072266,3.8133420944213867,1.1952794790267944
1715093486626302200,6.71130224609375,-0.4120359420776367,4.228818893432617,-0.4550514221191406
1715093486636281300,6.72128125,0.8597898483276367,4.492850303649902,-0.6183700561523438
1715093486646260700,6.7312607421875,-0.13169920444488525,4.092877388000488,-0.9428567886352539
1715093486656209400,6.74120947265625,-0.374491810798645,3.442683219909668,-0.9719315767288208
1715093486666188800,6.751188720703125,-0.15259242057800293,3.103762626647949,-0.24092280864715576
1715093486676168000,6.76116796875,-0.8533408641815186,2.8721160888671875,0.9612045288085938
1715093486686116600,6.77111669921875,-0.26142311096191406,2.866969108581543,1.512850046157837
1715093486696096000,6.781095947265625,1.0130778551101685,2.3017797470092773,1.0120234489440918
1715093486706075100,6.7910751953125,0.014369964599609375,2.0864477157592773,1.0369739532470703
1715093486716023800,6.80102392578125,-0.6124790906906128,1.5106449127197266,1.1182525157928467
1715093486726003200,6.811003173828125,0.177118182182312,0.7895727157592773,0.1560879945755005
1715093486735982300,6.820982421875,1.016465663909912,-0.004755973815917969,0.21367383003234863
1715093486745931000,6.830930908203125,1.1487197875976562,-0.45705604553222656,0.3219360113143921
1715093486755910400,6.840910400390625,1.000983715057373,-0.8280649185180664,0.33072149753570557
1715093486765889500,6.8508896484375,1.1045916080474854,-1.1351890563964844,0.5369608402252197
1715093486775838500,6.86083837890625,1.715656042098999,-1.2339839935302734,0.5327016115188599
1715093486785817600,6.870817626953125,3.1132874488830566,-0.8062705993652344,0.30649566650390625
1715093486795796700,6.880796630859375,4.686079502105713,0.38707923889160156,-0.14180850982666016
1715093486805745700,6.89074560546875,5.514566421508789,2.0957469940185547,-0.4707214832305908
1715093486815724800,6.900724853515625,5.5409979820251465,3.8545379638671875,-0.746147871017456
1715093486825704200,6.9107041015625,4.637763977050781,5.13007926940918,-0.8780412673950195
1715093486835652900,6.92065283203125,3.297791004180908,5.844552040100098,-0.8739956617355347
1715093486845632000,6.930632080078125,1.8296878337860107,5.619931221008301,-0.604732871055603
1715093486855611400,6.940611328125,0.9747753143310547,4.2840166091918945,0.023372411727905273
1715093486865560000,6.95056005859375,0.05239051580429077,1.349522590637207,1.143261194229126
1715093486875539200,6.960539306640625,1.3158354759216309,-1.4597759246826172,2.581684112548828
1715093486885518600,6.9705185546875,2.636091947555542,-2.3586692810058594,2.2961745262145996
1715093486895497700,6.980497802734375,3.0950543880462646,-3.1155738830566406,1.7456846237182617
1715093486905477000,6.99047705078125,2.984832286834717,-3.990671157836914,2.2455339431762695
1715093486915425800,7.00042578125,3.4328532218933105,-3.166484832763672,1.6420015096664429
1715093486925405000,7.010405029296875,3.065845251083374,-0.847381591796875,1.379741907119751
1715093486935384300,7.02038427734375,2.418053150177002,-0.2353992462158203,0.8475879430770874
1715093486945333000,7.0303330078125,1.2257909774780273,-0.9550075531005859,0.5033515691757202
1715093486955312000,7.04031201171875,0.7899044156074524,-1.1385116577148438,0.6967129707336426
1715093486965291500,7.05029150390625,-0.544795036315918,-1.111257553100586,0.6171497106552124
1715093486975240200,7.060240234375,-1.440695881843567,-1.24462890625,0.11423969268798828
1715093486985219300,7.07021923828125,-2.7374143600463867,-1.3169755935668945,-0.48902738094329834
1715093486995198700,7.08019873046875,-3.2801921367645264,-1.2182502746582031,-1.5551345348358154
1715093487005147400,7.0901474609375,-2.63507342338562,-1.6373443603515625,-2.5739641189575195
1715093487015126800,7.100126708984375,-1.8440051078796387,-2.6301870346069336,-4.223241806030273
1715093487025106000,7.11010595703125,-1.4955021142959595,-4.068942070007324,-4.851391792297363
1715093487035054600,7.1200546875,-0.6845183372497559,-5.673576354980469,-3.9858617782592773
1715093487045034000,7.130033935546875,-0.5373351573944092,-7.609787940979004,-3.0450079441070557
1715093487055013000,7.14001318359375,0.06695318222045898,-8.871889114379883,-3.2943429946899414
1715093487064961800,7.1499619140625,-0.5414268970489502,-9.57319164276123,-3.058974266052246
1715093487074941200,7.159941162109375,-1.581772804260254,-8.95676326751709,-1.0115182399749756
1715093487084920300,7.16992041015625,-3.4667935371398926,-7.203824996948242,1.659185528755188
1715093487094869000,7.179868896484375,-5.147454261779785,-5.175206184387207,5.0572123527526855
1715093487104848400,7.189848388671875,-6.652687072753906,-3.0301294326782227,7.991652011871338
1715093487114827500,7.19982763671875,-8.887170791625977,-1.0314655303955078,9.071340560913086
1715093487124776400,7.2097763671875,-8.36671257019043,1.1001873016357422,7.091997146606445
1715093487134755600,7.219755615234375,-5.6127729415893555,3.894354820251465,6.6069159507751465
1715093487144734700,7.229734619140625,-4.23373556137085,5.222082138061523,6.421806812286377
1715093487154714000,7.239714111328125,-1.2008121013641357,5.889327049255371,4.566017150878906
1715093487164662800,7.249662841796875,1.5128569602966309,5.153459548950195,1.6157927513122559
1715093487174642200,7.25964208984375,1.7427442073822021,4.498883247375488,-1.9901559352874756
1715093487184621300,7.269621337890625,1.3377082347869873,4.2899885177612305,-3.883378505706787
1715093487194600400,7.279600341796875,0.837024450302124,4.177370071411133,-4.870372295379639
1715093487204549400,7.28954931640625,0.8701813220977783,4.263206481933594,-5.278554916381836
1715093487214528500,7.299528564453125,0.8132307529449463,4.524016380310059,-5.497810363769531
1715093487224508000,7.3095078125,0.3236527442932129,4.347970008850098,-5.436374187469482
1715093487234456600,7.31945654296875,-0.6262779235839844,3.8884658813476562,-4.651200771331787
1715093487244435700,7.329435791015625,-1.8667082786560059,3.2676210403442383,-3.9729418754577637
1715093487254415000,7.3394150390625,-2.871584415435791,2.387618064880371,-3.706669569015503
1715093487264363800,7.34936376953125,-3.0775556564331055,1.295454978942871,-3.6560120582580566
1715093487274343000,7.359343017578125,-2.44620943069458,0.23911762237548828,-3.2677388191223145
1715093487284322300,7.369322265625,-2.044677257537842,-0.6697301864624023,-2.7615673542022705
1715093487294271000,7.37927099609375,-2.4300506114959717,-1.252232551574707,-2.68158221244812
1715093487304250000,7.38925,-2.1129860877990723,-0.9662952423095703,-2.07059645652771
1715093487314229500,7.3992294921875,-0.8754587173461914,-0.2150707244873047,-1.271871566772461
1715093487324178200,7.40917822265625,0.04586219787597656,0.6222009658813477,-0.21335291862487793
1715093487334157300,7.4191572265625,0.49375247955322266,1.4024038314819336,1.2149776220321655
1715093487344136700,7.42913671875,0.9690661430358887,2.0879735946655273,2.5718953609466553
1715093487354085400,7.43908544921875,1.8704628944396973,2.851181983947754,3.727466106414795
1715093487364064800,7.449064697265625,2.5508177280426025,3.5012760162353516,4.775972843170166
1715093487374044000,7.4590439453125,2.8606936931610107,3.6952028274536133,5.280783176422119
1715093487383992600,7.46899267578125,2.301682949066162,2.8268795013427734,4.4055938720703125
1715093487393972000,7.478971923828125,2.9149298667907715,1.460287094116211,4.33373498916626
1715093487403951000,7.488951171875,4.865230560302734,-1.6247100830078125,3.3646841049194336
1715093487413899800,7.498899658203125,6.734928131103516,-4.104461669921875,2.091315746307373
1715093487423879200,7.508879150390625,6.675381660461426,-4.426272392272949,1.6905057430267334
1715093487433858300,7.5188583984375,4.500292778015137,-3.5067453384399414,2.0240161418914795
1715093487443837700,7.528837646484375,1.8473753929138184,-2.38718318939209,1.4891746044158936
1715093487453816800,7.53881689453125,0.5225358009338379,-1.822718620300293,1.4085416793823242
1715093487463765500,7.548765625,-0.6833138465881348,-3.1336727142333984,2.3997273445129395
1715093487473745000,7.558744873046875,-1.937960147857666,-5.162653923034668,1.834390640258789
1715093487483724000,7.56872412109375,-4.120037078857422,-6.902563095092773,-0.3498256206512451
1715093487493672700,7.578672607421875,-4.916211128234863,-9.20638656616211,-2.220482349395752
1715093487503652000,7.588652099609375,-4.414148807525635,-10.941544532775879,-3.5411477088928223
1715093487513631200,7.59863134765625,-3.1928024291992188,-10.493462562561035,-2.5790891647338867
1715093487523580200,7.608580078125,-1.353215217590332,-7.728827476501465,-2.238877773284912
1715093487533559300,7.618559326171875,-1.650883436203003,-4.403557777404785,-2.532334089279175
1715093487543538400,7.628538330078125,-2.5390050411224365,-2.362071990966797,-1.805049180984497
1715093487553487400,7.6384873046875,-3.187514305114746,-1.3110361099243164,-1.1747558116912842
1715093487563466500,7.648466552734375,-3.5529661178588867,-0.6885948181152344,-0.9778532981872559
1715093487573446000,7.65844580078125,-3.3880887031555176,-0.6067600250244141,-1.489405632019043
1715093487583394600,7.66839453125,-3.5538668632507324,-0.5142335891723633,-2.0970520973205566
1715093487593373700,7.678373779296875,-2.645113468170166,-0.31848716735839844,-2.497170925140381
1715093487603353000,7.68835302734375,-1.2154865264892578,0.07735061645507812,-2.5294570922851562
1715093487613301800,7.6983017578125,0.3561042547225952,-0.29051685333251953,-4.373806476593018
1715093487623281000,7.708281005859375,3.966658592224121,-0.5803489685058594,-5.640467643737793
1715093487633260300,7.71826025390625,4.115623474121094,-0.37638092041015625,-5.08469295501709
1715093487643209000,7.728208984375,3.5114188194274902,-0.12423229217529297,-4.729389667510986
1715093487653188000,7.73818798828125,2.0852439403533936,0.7335910797119141,-3.8663408756256104
1715093487663167500,7.74816748046875,1.0977692604064941,1.8792638778686523,-2.4169809818267822
1715093487673116200,7.7581162109375,1.1671714782714844,2.7746200561523438,-1.9589895009994507
1715093487683095600,7.768095458984375,0.9787123203277588,3.1374568939208984,-0.9830039739608765
1715093487693074700,7.77807470703125,-0.49485087394714355,3.786785125732422,-0.24637067317962646
1715093487703023400,7.7880234375,-0.47358500957489014,4.235556602478027,-0.6264325380325317
1715093487713002800,7.798002685546875,-0.0012507438659667969,4.735202789306641,-0.3952488899230957
1715093487722982000,7.80798193359375,-0.24038422107696533,4.947453498840332,0.028429388999938965
1715093487732961000,7.8179609375,-0.4655507802963257,4.875274658203125,0.24921000003814697
1715093487742940400,7.8279404296875,-0.2622917890548706,4.435813903808594,0.5013680458068848
1715093487752889000,7.83788916015625,-0.8094890117645264,3.917351722717285,0.8530457019805908
1715093487762868500,7.847868408203125,-1.1797677278518677,3.511507034301758,1.4447321891784668
1715093487772847600,7.85784765625,-1.9764609336853027,3.4167184829711914,2.3230440616607666
1715093487782826800,7.86782666015625,0.5847904086112976,1.7954835891723633,2.3310115337371826
1715093487792775700,7.877775634765625,-0.11016911268234253,0.766754150390625,0.35439586639404297
1715093487802754800,7.8877548828125,0.09422129392623901,0.34681129455566406,0.08832776546478271
1715093487812734200,7.897734130859375,1.7363837957382202,-0.31237220764160156,0.6801367998123169
1715093487822683000,7.907682861328125,2.084653377532959,-1.135422706604004,0.33390557765960693
1715093487832662000,7.917662109375,1.869746446609497,-1.649580955505371,-0.004061341285705566
1715093487842641400,7.927641357421875,1.9027562141418457,-1.9449424743652344,0.2005460262298584
1715093487852590000,7.937590087890625,2.0638322830200195,-1.7307281494140625,0.6224905252456665
1715093487862569200,7.9475693359375,3.0994505882263184,-0.8044157028198242,0.8088420629501343
1715093487872548600,7.957548583984375,4.521483421325684,0.5777902603149414,0.4865528345108032
1715093487882497300,7.967497314453125,5.515171527862549,2.3782501220703125,0.37324297428131104
1715093487892476400,7.977476318359375,5.357750415802002,4.105768203735352,0.47729170322418213
1715093487902455800,7.987455810546875,4.361435890197754,5.264919281005859,0.48169445991516113
1715093487912404500,7.997404541015625,2.9997737407684326,5.708099365234375,0.3535827398300171
1715093487922384000,8.0073837890625,1.5761408805847168,5.370208740234375,0.18094396591186523
1715093487932363000,8.017363037109375,1.160598874092102,4.156023025512695,0.2614126205444336
1715093487942311700,8.027311767578125,1.5020160675048828,2.767439842224121,2.598700523376465
1715093487952291000,8.037291015625,0.5269567966461182,-1.8741455078125,-0.2785683870315552
1715093487962270200,8.047270263671875,2.5208563804626465,-3.518402099609375,3.08206844329834
1715093487972219000,8.057218994140625,3.21535325050354,-3.7585344314575195,3.058469772338867
1715093487982198300,8.0671982421875,3.8576838970184326,-3.937432289123535,2.0292305946350098
1715093487992177400,8.077177490234375,3.5911834239959717,-3.7434310913085938,2.022120952606201
1715093488002126000,8.0871259765625,3.4973630905151367,-2.11051082611084,1.7862944602966309
1715093488012105500,8.09710546875,2.8124876022338867,0.06561565399169922,1.237011194229126
1715093488022084600,8.107084716796875,1.9550228118896484,0.9157381057739258,0.5883558988571167
1715093488032064000,8.11706396484375,0.8560467958450317,0.35372447967529297,0.2740013599395752
1715093488042043100,8.127043212890625,0.07963114976882935,0.12804222106933594,0.7746657133102417
1715093488051991800,8.13699169921875,-1.2250423431396484,0.3401613235473633,1.051512598991394
1715093488061971200,8.14697119140625,-2.182921886444092,-0.0010557174682617188,0.7299432754516602
1715093488071950300,8.156950439453125,-3.0151560306549072,-0.5659418106079102,0.001181483268737793
1715093488081899300,8.166899169921875,-3.2512543201446533,-1.051187515258789,-1.1341782808303833
1715093488091878400,8.17687841796875,-2.6518383026123047,-1.6933841705322266,-3.072751522064209
1715093488101857500,8.186857421875,-2.698490858078003,-2.8678741455078125,-4.892918109893799
1715093488111806500,8.196806396484375,-1.6643545627593994,-5.052122116088867,-5.779811859130859
1715093488121785600,8.20678564453125,-0.13790452480316162,-7.453146934509277,-4.851739883422852
1715093488131764700,8.2167646484375,0.06965351104736328,-9.72781753540039,-3.565812587738037
1715093488141713700,8.226713623046875,0.5539669990539551,-10.929686546325684,-2.7345168590545654
1715093488151692800,8.23669287109375,0.5076732635498047,-11.218415260314941,-2.667013168334961
1715093488161672200,8.246672119140625,-1.5540144443511963,-10.243642807006836,-1.783774495124817
1715093488171620900,8.256620849609375,-4.120621681213379,-7.5499677658081055,2.120089054107666
1715093488181600000,8.26660009765625,-4.729458808898926,-4.889670372009277,6.570735931396484
1715093488191579400,8.276579345703125,-7.732135772705078,-2.819856643676758,8.623744010925293
1715093488201528000,8.286528076171875,-9.560945510864258,-1.0515317916870117,7.746719837188721
1715093488211507200,8.296507080078126,-7.925832748413086,2.1012039184570312,6.635968208312988
1715093488221486600,8.306486572265625,-4.444785118103027,5.146666526794434,8.232982635498047
1715093488231435300,8.316435302734375,-4.172027587890625,5.808587074279785,6.863945960998535
1715093488241414400,8.326414306640626,-0.8179624080657959,6.041072845458984,3.788797378540039
1715093488251393800,8.336393798828125,1.4734916687011719,5.110342025756836,0.834834098815918
1715093488261342500,8.346342529296875,1.8269069194793701,4.8764543533325195,-1.6156156063079834
1715093488271321900,8.35632177734375,1.3900415897369385,4.667558670043945,-3.7715346813201904
1715093488281301000,8.366301025390625,0.8840012550354004,4.749625205993652,-4.935209274291992
1715093488291280100,8.376280029296876,0.8918704986572266,4.966211318969727,-5.570187091827393
1715093488301229000,8.38622900390625,0.851992130279541,4.772334098815918,-6.482878684997559
1715093488311208200,8.396208251953125,0.5270347595214844,4.405180931091309,-6.595520973205566
1715093488321187600,8.4061875,-0.5417683124542236,4.282173156738281,-5.600611686706543
1715093488331166700,8.416166748046875,-1.819300889968872,3.8178138732910156,-4.266435623168945
1715093488341145900,8.426145751953126,-2.979548215866089,2.9843082427978516,-3.8677139282226562
1715093488351094800,8.4360947265625,-3.1832902431488037,1.9822072982788086,-3.638005018234253
1715093488361074000,8.446073974609375,-2.352587938308716,0.7933282852172852,-3.271857261657715
1715093488371053300,8.45605322265625,-1.801274061203003,-0.11524772644042969,-2.9336342811584473
1715093488381002000,8.466001953125,-1.9088201522827148,-0.5206823348999023,-2.8295795917510986
1715093488390981000,8.475981201171875,-1.4441266059875488,-0.9266109466552734,-2.475691318511963
1715093488400929800,8.4859296875,-0.10168743133544922,-0.7399930953979492,-1.2887871265411377
1715093488410909200,8.4959091796875,0.441622257232666,-0.11699485778808594,0.29084229469299316
1715093488420888300,8.505888427734375,0.6087965965270996,0.5388288497924805,2.231499433517456
1715093488430837200,8.515837158203125,1.4293386936187744,1.2677745819091797,4.084178924560547
1715093488440816400,8.52581640625,2.2444231510162354,2.139096260070801,5.237489700317383
1715093488450795500,8.53579541015625,2.5750956535339355,2.916579246520996,6.0570759773254395
1715093488460744400,8.545744384765625,2.329002618789673,2.9500646591186523,5.8246355056762695
1715093488470723600,8.5557236328125,1.6644856929779053,2.1159677505493164,4.908454895019531
1715093488480703000,8.565702880859375,2.029575824737549,0.895751953125,4.253110885620117
1715093488490651600,8.575651611328125,3.265001058578491,-1.8677539825439453,2.667771816253662
1715093488500630800,8.585630859375,5.4820966720581055,-4.406154632568359,0.6512601375579834
1715093488510610200,8.595610107421875,7.538601875305176,-4.611945152282715,0.3538360595703125
1715093488520558800,8.605558837890625,6.328408718109131,-3.3159494400024414,1.6437389850616455
1715093488530538000,8.6155380859375,3.0728049278259277,-1.7378454208374023,1.4234192371368408
1715093488540517400,8.625517333984375,0.5737569332122803,-0.7137842178344727,0.8743655681610107
1715093488550466000,8.635466064453125,-0.38712263107299805,-2.071333885192871,1.4573249816894531
1715093488560445200,8.645445068359376,-0.7601184844970703,-4.923215866088867,1.2861435413360596
1715093488570424600,8.655424560546875,-2.841613531112671,-6.245741844177246,-0.5537993907928467
1715093488580403700,8.66540380859375,-4.5142974853515625,-8.039779663085938,-2.3486196994781494
1715093488590383000,8.675383056640625,-3.911869525909424,-10.053834915161133,-3.5085103511810303
1715093488600331800,8.685331787109375,-4.135032653808594,-10.703975677490234,-3.087385892868042
1715093488610311000,8.695310791015626,-2.6823983192443848,-8.929628372192383,-1.978652000427246
1715093488620290300,8.705290283203125,-1.8392829895019531,-5.476278305053711,-1.8997678756713867
1715093488630269400,8.71526953125,-2.3628838062286377,-2.928792953491211,-1.4482815265655518
1715093488640218000,8.725218017578126,-3.111544132232666,-1.521773338317871,-1.063988447189331
1715093488650197500,8.735197509765625,-2.949998378753662,-0.6741514205932617,-0.9678893089294434
1715093488660176600,8.7451767578125,-3.1942009925842285,-0.30519866943359375,-1.2567057609558105
1715093488670125600,8.75512548828125,-3.324003219604492,-0.2281017303466797,-1.6423404216766357
1715093488680104700,8.765104736328125,-2.814110040664673,0.11820793151855469,-1.9547159671783447
1715093488690083800,8.775083740234376,-1.3175952434539795,0.3670625686645508,-2.409156084060669
1715093488700032800,8.78503271484375,-0.06341254711151123,0.5039100646972656,-3.6331310272216797
1715093488710012000,8.795011962890625,2.868525743484497,0.41190242767333984,-4.216867923736572
1715093488719991300,8.8049912109375,4.310494899749756,0.3119392395019531,-4.222621917724609
1715093488729940000,8.81493994140625,3.6393513679504395,0.3659553527832031,-3.7037112712860107
1715093488739919000,8.824919189453125,2.4282705783843994,0.6210813522338867,-3.5143141746520996
1715093488749898500,8.8348984375,1.1172657012939453,1.515934944152832,-2.877253770828247
1715093488759847200,8.84484716796875,0.6180551052093506,2.55731201171875,-1.7327122688293457
1715093488769826300,8.854826416015625,1.2442121505737305,2.9834394454956055,-0.41884279251098633
1715093488779805700,8.8648056640625,0.9262901544570923,3.393890380859375,0.34079134464263916
1715093488789754400,8.87475439453125,0.6929572820663452,4.09580135345459,0.7455470561981201
1715093488799733500,8.8847333984375,-0.1378556489944458,4.75518798828125,0.9276680946350098
1715093488809713000,8.894712890625,-0.4032694101333618,4.722853660583496,-0.24631750583648682
1715093488819661600,8.90466162109375,-0.3808509111404419,4.389080047607422,-0.3700038194656372
1715093488829641000,8.914640869140625,-0.63106369972229,4.069551467895508,-0.14573121070861816
1715093488839620000,8.9246201171875,-0.8327770233154297,3.7375431060791016,0.3597465753555298
1715093488849568800,8.93456884765625,-1.0547691583633423,3.0092391967773438,0.5832651853561401
1715093488859548200,8.944548095703125,-1.0683326721191406,2.729403495788574,1.431406021118164
1715093488869527300,8.95452734375,-1.2191433906555176,1.9965991973876953,2.0599660873413086
1715093488879506700,8.964506591796875,0.9110848903656006,0.8296127319335938,0.8992823362350464
1715093488889455400,8.974455322265625,-0.2583167552947998,0.44036197662353516,-0.3221639394760132
1715093488899434500,8.9844345703125,0.7990662455558777,0.17438316345214844,0.39515626430511475
1715093488909414000,8.994413818359375,1.672713279724121,-0.5896768569946289,0.543797492980957
1715093488919393000,9.00439306640625,1.672443151473999,-1.4434013366699219,-0.3027517795562744
1715093488929341700,9.014341796875,1.4205294847488403,-1.8655500411987305,-0.6569249629974365
1715093488939321000,9.024321044921875,1.375307321548462,-1.9319267272949219,-0.2578545808792114
1715093488949300200,9.03430029296875,1.9198607206344604,-1.349013328552246,0.3173103332519531
1715093488959249000,9.044248779296876,3.1524343490600586,-0.3224983215332031,0.0543442964553833
1715093488969228300,9.054228271484375,4.686821460723877,1.334712028503418,-0.5022697448730469
1715093488979207400,9.06420751953125,5.543172359466553,3.250250816345215,-0.8264765739440918
1715093488989156000,9.074156005859376,5.219156742095947,4.89687442779541,-0.7476223707199097
1715093488999135500,9.084135498046875,4.496536731719971,5.999788284301758,-0.6611840724945068
1715093489009114600,9.094114501953126,3.360013008117676,6.325901985168457,-0.451873779296875
1715093489019063600,9.1040634765625,2.6737253665924072,5.593878746032715,-0.39806830883026123
1715093489029042700,9.114042724609375,1.6457786560058594,3.5779857635498047,0.056629180908203125
1715093489039021800,9.124021728515626,1.2655532360076904,0.6651687622070312,1.9191538095474243
1715093489048970800,9.133970703125,2.800363302230835,-1.0015792846679688,4.070335388183594
1715093489058950000,9.143949951171875,1.5110899209976196,-3.7721023559570312,1.223783016204834
1715093489068929300,9.15392919921875,3.2787065505981445,-4.523372650146484,2.954326629638672
1715093489078878000,9.1638779296875,3.511091947555542,-4.8834381103515625,3.219999313354492
1715093489088857000,9.173857177734375,3.5252585411071777,-3.789242744445801,2.289613723754883
1715093489098836500,9.18383642578125,3.099871873855591,-0.739649772644043,1.8300526142120361
1715093489108785200,9.19378515625,2.1532607078552246,0.7737522125244141,1.4648438692092896
1715093489118764300,9.203764404296875,1.2986992597579956,0.35930633544921875,0.7524194717407227
1715093489128743700,9.21374365234375,0.451211154460907,0.17940425872802734,0.27584004402160645
1715093489138692400,9.2236923828125,-1.422170877456665,0.5931425094604492,0.15855252742767334
1715093489148671500,9.23367138671875,-2.2042059898376465,0.576380729675293,0.03190124034881592
1715093489158651000,9.24365087890625,-3.1637864112854004,0.08733558654785156,-0.09321832656860352
1715093489168630000,9.253630126953125,-3.450406789779663,-0.573420524597168,-1.0646356344223022
1715093489178609400,9.263609375,-2.7868423461914062,-1.434525489807129,-2.686367988586426
1715093489188558000,9.27355810546875,-2.3587772846221924,-2.722184181213379,-4.108284950256348
1715093489198537200,9.283537109375,-1.7673044204711914,-4.852866172790527,-4.898455619812012
1715093489208516600,9.2935166015625,-0.8113901615142822,-7.228706359863281,-4.140539646148682
1715093489218495700,9.303495849609375,-0.2735581398010254,-9.945351600646973,-3.263392925262451
1715093489228444700,9.313444580078125,0.0808870792388916,-11.46573257446289,-3.4341955184936523
1715093489238423800,9.323423828125,-0.1670069694519043,-11.459759712219238,-3.614208698272705
1715093489248372500,9.33337255859375,-1.0657825469970703,-10.14040470123291,-2.315545082092285
1715093489258351900,9.343351806640625,-3.547884225845337,-7.461007118225098,0.5439642667770386
1715093489268331000,9.3533310546875,-5.080277442932129,-4.88981819152832,4.372776031494141
1715093489278279700,9.36327978515625,-5.860860824584961,-2.6235103607177734,7.470620155334473
1715093489288259000,9.373259033203125,-7.414963722229004,-0.7125692367553711,7.879777908325195
1715093489298238200,9.38323828125,-7.481858730316162,1.4229774475097656,6.313904762268066
1715093489308187000,9.393186767578126,-5.64401912689209,3.8708887100219727,5.570800304412842
1715093489318166300,9.403166259765625,-2.0525615215301514,6.091204643249512,6.804839611053467
1715093489328145400,9.4131455078125,-0.39261484146118164,6.011847496032715,4.066049098968506
1715093489338094000,9.423093994140626,0.1290454864501953,5.902183532714844,2.22135853767395
1715093489348073500,9.433073486328125,0.9716520309448242,4.943316459655762,0.07471215724945068
1715093489358052600,9.443052490234376,0.3819894790649414,4.19590950012207,-2.2510595321655273
1715093489368001500,9.45300146484375,0.32958436012268066,4.037688255310059,-4.0075531005859375
1715093489377980700,9.462980712890625,0.40914440155029297,4.211932182312012,-5.134145259857178
1715093489387959800,9.472959716796876,0.801069974899292,4.271227836608887,-5.757204532623291
1715093489397908700,9.48290869140625,0.9053504467010498,3.897562026977539,-6.186581611633301
1715093489407888000,9.492887939453125,0.21336746215820312,3.240680694580078,-6.363735675811768
1715093489417867300,9.5028671875,-1.409165382385254,2.7431411743164062,-5.06682014465332
1715093489427846400,9.512846435546875,-2.9515562057495117,2.038041114807129,-3.579115152359009
1715093489437795000,9.522795166015625,-3.6903536319732666,1.1475591659545898,-2.9432308673858643
1715093489447774500,9.5327744140625,-3.0976288318634033,0.14356613159179688,-2.2529137134552
1715093489457753600,9.542753662109375,-2.137540817260742,-0.5455589294433594,-1.9826395511627197
1715093489467733000,9.55273291015625,-2.2868475914001465,-0.7542953491210938,-1.8696088790893555
1715093489477712100,9.562712158203125,-2.218946933746338,-0.2906808853149414,-1.4612369537353516
1715093489487660800,9.572660888671875,-1.1174890995025635,0.6769132614135742,-0.6754429340362549
1715093489497640200,9.58264013671875,-0.13091254234313965,1.6707792282104492,0.659965991973877
1715093489507619300,9.592619384765625,0.13695931434631348,2.3921051025390625,1.5894488096237183
1715093489517568000,9.602568115234375,1.1510460376739502,3.1481637954711914,2.5953001976013184
1715093489527547400,9.61254736328125,2.2382516860961914,3.883800506591797,3.380619764328003
1715093489537526500,9.622526611328125,3.381100654602051,4.428516387939453,4.158923149108887
1715093489547475200,9.63247509765625,3.6105315685272217,4.255947113037109,3.7279930114746094
1715093489557454600,9.64245458984375,3.0486114025115967,2.77114200592041,3.1605019569396973
1715093489567433700,9.652433837890625,3.192230701446533,0.28382301330566406,3.5649683475494385
1715093489577382700,9.662382568359375,4.608518600463867,-3.24008846282959,2.4983911514282227
1715093489587361800,9.67236181640625,6.825963020324707,-4.657182693481445,1.9804704189300537
1715093489597341000,9.6823408203125,7.071128845214844,-4.092535018920898,1.9214813709259033
1715093489607289900,9.692289794921875,5.031607627868652,-1.783534049987793,2.488025188446045
1715093489617269000,9.70226904296875,1.904665470123291,-0.2274923324584961,1.6942598819732666
1715093489627248400,9.712248291015625,-0.8518965244293213,0.8190727233886719,2.2603871822357178
1715093489637197000,9.722197021484375,-2.031690835952759,-0.3648977279663086,2.698760986328125
1715093489647176200,9.73217626953125,-2.6763479709625244,-3.341158866882324,1.7382121086120605
1715093489657155600,9.742155517578125,-5.1211724281311035,-5.423218727111816,-0.028376102447509766
1715093489667104300,9.752104248046875,-6.629909515380859,-8.012742042541504,-2.1769919395446777
1715093489677083400,9.76208349609375,-4.213217258453369,-11.934842109680176,-3.1682639122009277
1715093489687062800,9.772062744140625,-1.7848832607269287,-14.274674415588379,-3.8003058433532715
1715093489697011500,9.782011474609375,-0.26100683212280273,-12.803343772888184,-3.192286252975464
1715093489706990600,9.791990478515626,-0.0384979248046875,-6.6655168533325195,-2.814720869064331
1715093489716970000,9.801969970703125,-0.2774348258972168,-1.9902839660644531,-1.9218571186065674
1715093489726949000,9.81194921875,-1.9669747352600098,-0.11684036254882812,-2.0100247859954834
1715093489736897800,9.821897705078126,-2.9489314556121826,0.6407737731933594,-1.5418944358825684
1715093489746877200,9.831877197265625,-3.4890706539154053,1.0183849334716797,-1.517127275466919
1715093489756856300,9.841856201171876,-3.9643807411193848,1.2577199935913086,-1.4738349914550781
1715093489766835700,9.851835693359375,-3.896028995513916,1.3608160018920898,-1.6107759475708008
1715093489776784400,9.861784423828125,-2.033392906188965,1.2528085708618164,-2.1316518783569336
1715093489786763500,9.871763427734376,0.08670675754547119,0.34543800354003906,-3.394087314605713
1715093489796743000,9.881742919921875,1.432327151298523,-0.7663087844848633,-3.8471693992614746
1715093489806691600,9.891691650390625,3.514051914215088,-1.8742971420288086,-3.736581563949585
1715093489816671000,9.9016708984375,2.9440808296203613,-2.467585563659668,-3.5431838035583496
1715093489826650000,9.911650146484375,1.3532578945159912,-2.4253854751586914,-3.9846551418304443
1715093489836598800,9.921598876953125,-0.2304997444152832,-1.4467897415161133,-3.8047847747802734
1715093489846578200,9.931578125,-0.5493735074996948,0.060420989990234375,-3.058476686477661
1715093489856557300,9.941557373046875,1.2394795417785645,1.406580924987793,-1.7495604753494263
1715093489866506000,9.951506103515625,2.076324462890625,2.786959648132324,-0.8484879732131958
1715093489876485400,9.9614853515625,1.2454544305801392,3.8429183959960938,-0.4089200496673584
1715093489886464500,9.971464599609375,0.9429378509521484,4.706630706787109,-0.3203240633010864
1715093489896413200,9.9814130859375,0.31688976287841797,5.384730339050293,-0.5596117973327637
1715093489906392600,9.991392578125,-0.2808966636657715,5.460772514343262,-0.648719072341919
1715093489916371700,10.001371826171875,-0.5429477691650391,5.179941177368164,-0.4423326253890991
1715093489926320600,10.011320556640625,-1.3122888803482056,5.024928092956543,0.6079533100128174
1715093489936299800,10.0212998046875,1.732954502105713,3.9497690200805664,-0.5785897970199585
1715093489946279000,10.03127880859375,-0.012555062770843506,3.242950439453125,0.7944645881652832
1715093489956227800,10.041227783203125,-1.0691287517547607,2.5539445877075195,0.8870663642883301
1715093489966207000,10.05120703125,-0.7355412244796753,1.9028711318969727,0.34675610065460205
1715093489976186400,10.061186279296875,-1.2464078664779663,1.324873924255371,0.9293904304504395
1715093489986135000,10.071135009765625,0.1942821741104126,0.03901386260986328,0.2219449281692505
1715093489996114200,10.0811142578125,0.9755958318710327,-0.7707586288452148,0.01829981803894043
1715093490006093600,10.091093505859375,1.468623161315918,-1.4783916473388672,0.06293201446533203
1715093490016072700,10.10107275390625,1.896782398223877,-2.098116874694824,-0.05067801475524902
1715093490026052000,10.111052001953125,2.13126540184021,-2.465160369873047,0.3303096294403076
1715093490036000800,10.121000732421875,2.863776206970215,-1.990804672241211,1.0678094625473022
1715093490045980000,10.13097998046875,4.309407711029053,-0.579768180847168,1.0692522525787354
1715093490055959300,10.140959228515625,5.74086856842041,1.3355836868286133,0.555740237236023
1715093490065938400,10.1509384765625,6.330455303192139,3.6811723709106445,1.054427981376648
1715093490075887000,10.16088720703125,6.120011806488037,5.171255111694336,-0.18329012393951416
1715093490085866500,10.170866455078125,4.741787433624268,6.050153732299805,0.4961414337158203
1715093490095845600,10.180845703125,3.6124870777130127,6.8195343017578125,0.9406191110610962
1715093490105794300,10.190794189453126,2.1945183277130127,6.469887733459473,0.9419146776199341
1715093490115773700,10.200773681640625,1.4423928260803223,4.781550407409668,1.1130053997039795
1715093490125752800,10.2107529296875,0.7576881647109985,1.4037599563598633,2.4625649452209473
1715093490135701500,10.220701416015626,1.2981739044189453,-2.209713935852051,3.991827964782715
1715093490145681000,10.230680908203125,2.5516390800476074,-3.679384231567383,4.017431259155273
1715093490155660000,10.240659912109376,3.8071043491363525,-4.267768859863281,3.2195615768432617
1715093490165609000,10.25060888671875,3.9697952270507812,-4.187614440917969,2.970362901687622
1715093490175588000,10.260588134765625,3.8266172409057617,-3.603734016418457,2.4388904571533203
1715093490185567200,10.270567138671876,3.1502153873443604,-1.4270086288452148,1.6408904790878296
1715093490195516200,10.28051611328125,2.3506665229797363,0.16241931915283203,0.9165222644805908
1715093490205495300,10.290495361328125,1.2156941890716553,0.21257495880126953,0.11242496967315674
1715093490215474700,10.300474609375,0.4453439712524414,0.03740692138671875,-0.48721635341644287
1715093490225423400,10.31042333984375,-0.771370530128479,0.5594034194946289,-0.16923213005065918
1715093490235402500,10.320402587890625,-1.8196017742156982,0.5916318893432617,-0.24947130680084229
1715093490245382000,10.3303818359375,-3.0453977584838867,0.13203048706054688,-0.5840559005737305
1715093490255330600,10.34033056640625,-3.7734506130218506,-0.32405853271484375,-1.3899073600769043
1715093490265309700,10.350309814453125,-3.1507489681243896,-0.9536952972412109,-2.859710216522217
1715093490275289000,10.3602890625,-2.4824719429016113,-2.0549745559692383,-4.781617164611816
1715093490285237800,10.37023779296875,-1.964025855064392,-4.371228218078613,-6.233183860778809
1715093490295217000,10.380216796875,-0.8000019788742065,-7.2634687423706055,-5.739444732666016
1715093490305196300,10.3901962890625,-0.5938423871994019,-9.855217933654785,-4.296947479248047
1715093490315175400,10.400175537109375,-0.45787930488586426,-11.611763954162598,-4.027691841125488
1715093490325124400,10.410124267578125,-0.24539589881896973,-12.421294212341309,-4.640872955322266
1715093490335103500,10.420103515625,-0.4432041645050049,-11.971585273742676,-3.586028814315796
1715093490345082600,10.43008251953125,-2.5557525157928467,-9.344559669494629,0.22951602935791016
1715093490355062000,10.44006201171875,-4.911649703979492,-6.103277206420898,4.474445819854736
1715093490365010700,10.4500107421875,-5.848188400268555,-3.175692558288574,9.002159118652344
1715093490374990000,10.459989990234375,-8.09468936920166,-0.8140926361083984,11.506413459777832
1715093490384969200,10.46996923828125,-8.844158172607422,1.892317771911621,9.23144817352295
1715093490394918000,10.47991796875,-3.969376564025879,5.3193359375,8.6320219039917
1715093490404897300,10.489897216796875,-4.97869873046875,6.828099250793457,8.375357627868652
1715093490414876400,10.49987646484375,-2.682251214981079,6.837424278259277,6.01207160949707
1715093490424825000,10.5098251953125,-0.9199917316436768,5.883878707885742,3.8433732986450195
1715093490434804500,10.519804443359375,1.241008996963501,4.653660774230957,0.4931986331939697
1715093490444783600,10.52978369140625,1.9539146423339844,4.3887434005737305,-2.0875816345214844
1715093490454732300,10.539732177734376,1.7083134651184082,4.274205207824707,-3.8776869773864746
1715093490464711700,10.549711669921875,1.3626515865325928,4.214320182800293,-5.042086124420166
1715093490474690800,10.55969091796875,0.9882233142852783,4.103178024291992,-6.115349769592285
1715093490484639700,10.5696396484375,1.112957239151001,3.8789854049682617,-6.8839616775512695
1715093490494619000,10.579618896484375,0.3554096221923828,3.5531768798828125,-6.673470973968506
1715093490504598000,10.589597900390626,-1.2638351917266846,3.2159881591796875,-5.4624505043029785
1715093490514547000,10.599546875,-2.8380534648895264,2.432344436645508,-4.628392696380615
1715093490524526000,10.609526123046875,-3.4185574054718018,1.495926856994629,-4.410923004150391
1715093490534505200,10.619505126953126,-2.832350730895996,0.6181468963623047,-3.6210312843322754
1715093490544454100,10.6294541015625,-1.9439480304718018,-0.17648887634277344,-2.8637170791625977
1715093490554433300,10.639433349609375,-1.9192373752593994,-0.4401521682739258,-2.547767162322998
1715093490564412700,10.64941259765625,-2.171135902404785,-0.3351249694824219,-2.0617897510528564
1715093490574391800,10.659391845703125,-1.0852923393249512,0.17120075225830078,-1.0377213954925537
1715093490584340500,10.669340576171875,-0.33635854721069336,0.9148979187011719,0.3561664819717407
1715093490594320000,10.67931982421875,0.18877530097961426,1.6131296157836914,1.8932383060455322
1715093490604299000,10.689299072265625,1.3159537315368652,2.2646827697753906,3.395789384841919
1715093490614278400,10.6992783203125,2.3518052101135254,3.058452606201172,4.432765960693359
1715093490624257500,10.709257568359375,2.6744608879089355,3.565845489501953,4.92020320892334
1715093490634206200,10.719206298828125,2.9912405014038086,3.658806800842285,4.732152938842773
1715093490644185600,10.729185546875,2.360255241394043,2.823275566101074,3.1328320503234863
1715093490654164700,10.739164794921875,2.957166910171509,1.0166406631469727,2.6684985160827637
1715093490664113400,10.749113525390625,6.3339924812316895,-1.8438844680786133,1.8799567222595215
1715093490674092800,10.7590927734375,9.515480041503906,-3.532830238342285,2.0645127296447754
1715093490684072000,10.769072021484375,8.783793449401855,-2.860940933227539,2.2249460220336914
1715093490694020600,10.7790205078125,4.658866882324219,-1.2562036514282227,2.0783636569976807
1715093490704000000,10.789,0.4238436222076416,-0.2772636413574219,0.9261062145233154
1715093490713979100,10.798979248046875,-0.9990227222442627,-0.33402252197265625,1.2720789909362793
1715093490723928000,10.808927978515625,-1.8163416385650635,-2.504317283630371,3.9277772903442383
1715093490733907200,10.8189072265625,-3.3846898078918457,-4.255400657653809,3.454009532928467
1715093490743886300,10.82888623046875,-6.66213321685791,-5.595632553100586,0.648139476776123
1715093490753835300,10.838835205078125,-7.238335609436035,-7.886074066162109,-1.9789955615997314
1715093490763814400,10.848814453125,-3.723735809326172,-11.315146446228027,-3.4076197147369385
1715093490773793800,10.858793701171875,-2.2197864055633545,-12.319938659667969,-3.07554292678833
1715093490783742500,10.868742431640625,0.2434239387512207,-9.516092300415039,-2.3618624210357666
1715093490793721600,10.8787216796875,-0.22402048110961914,-4.99211311340332,-1.9127516746520996
1715093490803670300,10.888670166015626,-1.0931684970855713,-2.743335723876953,-1.496218204498291
1715093490813649700,10.898649658203125,-2.988307476043701,-2.2151594161987305,-1.1550602912902832
1715093490823628800,10.90862890625,-3.8118174076080322,-2.274346351623535,-1.3515830039978027
1715093490833577700,10.91857763671875,-4.001391410827637,-2.38063907623291,-2.038440465927124
1715093490843556900,10.928556884765625,-4.408648490905762,-2.282172203063965,-2.823683023452759
1715093490853536000,10.938535888671876,-3.515941858291626,-1.6097383499145508,-3.0310375690460205
1715093490863515400,10.948515380859375,-1.5295997858047485,-1.1252784729003906,-3.6165931224823
1715093490873464000,10.958464111328125,0.7542928457260132,-0.9434213638305664,-4.5064592361450195
1715093490883443500,10.968443359375,2.735414505004883,-0.3241729736328125,-4.501713275909424
1715093490893422600,10.978422607421875,3.8791213035583496,0.010166168212890625,-4.8331780433654785
1715093490903401700,10.988401611328126,3.566744327545166,-0.13554954528808594,-4.565647125244141
1715093490913381000,10.998381103515625,2.7950382232666016,0.15798187255859375,-3.6822588443756104
1715093490923329800,11.008329833984375,2.0976738929748535,0.9794940948486328,-2.1759819984436035
1715093490933309000,11.018308837890626,1.7390928268432617,1.8424367904663086,-1.279471755027771
1715093490943288300,11.028288330078125,1.4241141080856323,2.5283374786376953,-0.8804886341094971
1715093490953237000,11.038237060546875,0.029823780059814453,3.1191539764404297,-0.2520400285720825
1715093490963216400,11.04821630859375,-0.9032493829727173,3.681896209716797,0.28411829471588135
1715093490973195500,11.058195556640625,-0.5349655151367188,4.1488494873046875,-0.07526659965515137
1715093490983144200,11.068144287109375,-0.09756982326507568,4.631344795227051,0.164747953414917
1715093490993123600,11.07812353515625,-0.4243723154067993,4.712197303771973,0.23057544231414795
1715093491003102700,11.088102783203125,-0.4206019639968872,4.335474967956543,0.10725033283233643
1715093491013051400,11.098051513671875,-1.1811996698379517,3.494887351989746,-0.24616193771362305
1715093491023030800,11.10803076171875,-1.1262789964675903,2.669515609741211,0.446746826171875
1715093491033010000,11.118010009765625,-1.1684300899505615,2.0717811584472656,1.6291675567626953
1715093491042958600,11.12795849609375,-0.9658405780792236,1.518977165222168,1.600658893585205
1715093491052938000,11.13793798828125,-0.19568920135498047,1.253570556640625,1.4302663803100586
1715093491062917000,11.147917236328125,0.9493023157119751,0.6939764022827148,0.7369881868362427
1715093491072866000,11.157865966796875,0.49707967042922974,0.3774099349975586,1.3985028266906738
1715093491082845200,11.16784521484375,1.2944669723510742,-0.22232723236083984,1.0151715278625488
1715093491092824300,11.17782421875,1.679257869720459,-0.5337629318237305,0.4505743980407715
1715093491102773200,11.187773193359375,1.5902801752090454,-0.4000883102416992,0.37606310844421387
1715093491112752400,11.19775244140625,1.7662233114242554,-0.07596206665039062,0.7489490509033203
1715093491122731800,11.207731689453125,2.5068297386169434,0.2769126892089844,0.8865410089492798
1715093491132680400,11.217680419921875,3.4778029918670654,1.0751819610595703,0.5763809680938721
1715093491142659600,11.22765966796875,4.643009185791016,2.424502372741699,0.31978118419647217
1715093491152639000,11.237638916015625,5.054586410522461,4.074887275695801,0.2626866102218628
1715093491162618000,11.2476181640625,4.9467926025390625,5.5120086669921875,-0.1259784698486328
1715093491172566800,11.25756689453125,4.264568328857422,6.303951263427734,-0.6420570611953735
1715093491182546200,11.267546142578125,3.1253321170806885,6.344574928283691,-0.5249919891357422
1715093491192525300,11.277525390625,2.8472084999084473,5.679501533508301,0.7183138132095337
1715093491202504700,11.287504638671875,0.33852618932724,1.3787717819213867,-0.6801326274871826
1715093491212453400,11.297453369140625,1.4203921556472778,-1.3000249862670898,2.5506675243377686
1715093491222432500,11.3074326171875,2.561582088470459,-2.9227733612060547,2.854475498199463
1715093491232412000,11.317411865234375,2.7598538398742676,-3.9819374084472656,2.3628270626068115
1715093491242360600,11.327360595703125,4.241973876953125,-5.012879371643066,2.3378193378448486
1715093491252339700,11.337339599609376,4.185246467590332,-4.358591079711914,2.6790294647216797
1715093491262319000,11.347319091796875,3.429950714111328,-1.6928825378417969,2.2441229820251465
1715093491272267800,11.357267822265625,2.6231203079223633,1.2934293746948242,2.5836000442504883
1715093491282247200,11.3672470703125,1.2036876678466797,1.5529289245605469,2.4824531078338623
1715093491292226300,11.377226318359375,0.9184086322784424,0.2500190734863281,1.772076964378357
1715093491302175000,11.387175048828125,-0.202833890914917,-0.7736005783081055,1.5974265336990356
1715093491312154400,11.397154296875,-1.467736005783081,-1.1586551666259766,1.3290599584579468
1715093491322133500,11.407133544921875,-2.429802894592285,-1.3909273147583008,0.6713807582855225
1715093491332082200,11.417082275390625,-3.1194262504577637,-1.5885753631591797,-0.4072122573852539
1715093491342061600,11.4270615234375,-2.573265552520752,-1.9602813720703125,-2.1020216941833496
1715093491352040700,11.437040771484375,-1.7430758476257324,-2.7482709884643555,-3.841148853302002
1715093491361989400,11.4469892578125,-1.440696120262146,-4.401060104370117,-5.70809268951416
1715093491371968800,11.45696875,-1.1169283390045166,-6.252776145935059,-7.416512489318848
1715093491381948000,11.466947998046875,-0.9858872890472412,-7.758152961730957,-6.172126770019531
1715093491391896600,11.476896484375,-0.6292728185653687,-8.706721305847168,-5.0344648361206055
1715093491401876000,11.4868759765625,0.1322469711303711,-9.050332069396973,-4.279551029205322
1715093491411855000,11.496855224609375,-0.23068928718566895,-9.12840461730957,-2.879547595977783
1715093491421804000,11.506803955078125,-2.051111936569214,-7.8629560470581055,-0.20442771911621094
1715093491431783200,11.516783203125,-3.2528789043426514,-6.151121139526367,3.6607766151428223
1715093491441762300,11.52676220703125,-4.290291786193848,-3.993769645690918,8.267236709594727
1715093491451741700,11.53674169921875,-6.847105026245117,-2.285161018371582,9.675224304199219
1715093491461720800,11.546720947265625,-6.443227767944336,0.7648334503173828,10.484428405761719
1715093491471669800,11.556669677734375,-6.718542575836182,3.486283302307129,8.705933570861816
1715093491481649000,11.56664892578125,-6.599402904510498,5.3189802169799805,7.6097588539123535
1715093491491628000,11.5766279296875,-3.318572759628296,6.128573417663574,6.115433216094971
1715093491501577000,11.586576904296875,-1.325439453125,5.877817153930664,3.6034791469573975
1715093491511556000,11.59655615234375,0.052538156509399414,4.914581298828125,0.6350075006484985
1715093491521535500,11.606535400390625,1.1060125827789307,4.540065765380859,-2.112464427947998
1715093491531514600,11.6165146484375,1.5651860237121582,4.211530685424805,-4.2198638916015625
1715093491541463300,11.62646337890625,1.6999704837799072,4.381818771362305,-5.54835319519043
1715093491551442700,11.636442626953125,1.5051448345184326,4.444706916809082,-6.16333532333374
1715093491561421800,11.646421875,1.1879620552062988,4.061367988586426,-6.602701187133789
1715093491571370500,11.65637060546875,0.288928747177124,3.644338607788086,-6.538748741149902
1715093491581350000,11.666349853515625,-1.045238971710205,3.311598777770996,-5.2575554847717285
1715093491591329000,11.6763291015625,-2.227973699569702,2.7880067825317383,-3.9801416397094727
1715093491601277700,11.686277587890626,-2.8425111770629883,1.9413175582885742,-3.5250093936920166
1715093491611257000,11.696257080078125,-2.30718994140625,0.9360466003417969,-3.2594099044799805
1715093491621236200,11.706236328125,-1.6262891292572021,0.0828847885131836,-2.47792649269104
1715093491631185200,11.71618505859375,-1.5840387344360352,-0.1951732635498047,-2.321181535720825
1715093491641164300,11.726164306640625,-1.654834270477295,-0.06538009643554688,-1.724128246307373
1715093491651143400,11.736143310546876,-1.7623846530914307,0.24554443359375,-0.8233861923217773
1715093491661092400,11.74609228515625,-0.6913158893585205,0.7738723754882812,0.5446794033050537
1715093491671071500,11.756071533203125,0.3795926570892334,1.4526309967041016,1.76300048828125
1715093491681050600,11.766050537109376,1.122523546218872,2.1572771072387695,2.719783306121826
1715093491690999600,11.77599951171875,1.8269360065460205,2.923100471496582,3.69217586517334
1715093491700978700,11.785978759765625,2.3013269901275635,3.535524368286133,4.562629699707031
1715093491710958000,11.7959580078125,2.196009397506714,3.2186012268066406,4.226954460144043
1715093491720906800,11.80590673828125,1.5261085033416748,1.3411855697631836,3.445590019226074
1715093491730886000,11.815885986328125,4.089000701904297,-0.7966947555541992,2.950361728668213
1715093491740865300,11.825865234375,8.387221336364746,-3.0108747482299805,2.3764376640319824
1715093491750844400,11.835844482421875,10.021354675292969,-3.1239824295043945,3.2146782875061035
1715093491760793000,11.84579296875,7.229465961456299,-1.1077213287353516,2.821953535079956
1715093491770772500,11.8557724609375,2.8006937503814697,0.9158010482788086,1.7393171787261963
1715093491780751600,11.865751708984375,-0.698054313659668,1.1106138229370117,0.9409122467041016
1715093491790731000,11.87573095703125,-1.6927261352539062,-0.7264337539672852,2.2968223094940186
1715093491800679700,11.8856796875,-1.7324395179748535,-3.8500595092773438,1.9382405281066895
1715093491810658800,11.895658935546875,-4.5301995277404785,-5.583248138427734,0.915679931640625
1715093491820638200,11.90563818359375,-8.51362419128418,-7.2133684158325195,-1.814115047454834
1715093491830587000,11.9155869140625,-5.3385114669799805,-10.54232120513916,-3.2232444286346436
1715093491840566000,11.92556591796875,-3.1724743843078613,-13.592813491821289,-4.115658283233643
1715093491850545400,11.93554541015625,-1.3263485431671143,-13.214076042175293,-3.37190842628479
1715093491860494000,11.945494140625,0.7812919616699219,-7.841424942016602,-1.4178836345672607
1715093491870473500,11.955473388671875,1.1714763641357422,-2.379840850830078,-0.0182802677154541
1715093491880452600,11.96545263671875,-1.212174654006958,-0.1794271469116211,-0.32065796852111816
1715093491890401300,11.9754013671875,-2.734463691711426,0.12097644805908203,-0.5298473834991455
1715093491900380700,11.985380615234375,-3.3516886234283447,0.06066322326660156,-0.28365325927734375
1715093491910359800,11.99535986328125,-3.8997397422790527,0.22272014617919922,-0.1282186508178711
1715093491920308500,12.00530859375,-3.8129119873046875,0.4854011535644531,-0.25778675079345703
1715093491930287900,12.015287841796875,-3.147698402404785,0.39348316192626953,-1.0271940231323242
1715093491940267000,12.02526708984375,-2.8385987281799316,-0.7684907913208008,-2.954566478729248
1715093491950215700,12.035215576171876,-0.9382246732711792,-1.4465713500976562,-4.173302173614502
1715093491960195000,12.045195068359375,2.2780137062072754,-1.8605690002441406,-3.5770866870880127
1715093491970174200,12.05517431640625,4.2714385986328125,-2.303675651550293,-3.515798330307007
1715093491980123100,12.065123046875,3.6726694107055664,-2.5764684677124023,-4.439517974853516
1715093491990102300,12.075102294921875,3.99135160446167,-1.9642391204833984,-4.509793758392334
1715093492000081400,12.085081298828126,2.5047590732574463,-0.37040233612060547,-3.558642625808716
1715093492010060800,12.095060791015625,1.561420202255249,1.5261669158935547,-2.2734620571136475
1715093492020009500,12.105009521484375,0.5987237691879272,3.052435874938965,-1.6353899240493774
1715093492029988900,12.11498876953125,0.26407182216644287,3.659001350402832,-0.41148459911346436
1715093492039968000,12.124968017578125,-1.0608410835266113,3.97762393951416,-0.9382160902023315
1715093492049947100,12.134947021484376,-1.0410374402999878,4.488158226013184,-1.4440268278121948
1715093492059926500,12.144926513671875,-0.31756043434143066,4.9025774002075195,-1.311248779296875
1715093492069875200,12.154875244140625,0.1169196367263794,4.85408878326416,-1.095577359199524
1715093492079854300,12.164854248046876,0.08666408061981201,4.289482116699219,-0.8866361379623413
1715093492089833700,12.174833740234375,-0.7572034597396851,3.662838935852051,-0.3472926616668701
1715093492099782400,12.184782470703125,-1.0581883192062378,3.039590835571289,0.3894941806793213
1715093492109761800,12.19476171875,-1.1184005737304688,2.4449262619018555,0.6985119581222534
1715093492119741000,12.204740966796875,-0.9678728580474854,1.974654197692871,1.2912960052490234
1715093492129689600,12.214689697265625,-0.6029711961746216,1.629659652709961,1.8308099508285522
1715093492139669000,12.2246689453125,0.05700010061264038,1.0726032257080078,1.5667598247528076
1715093492149648100,12.234648193359375,0.3851590156555176,0.2493305206298828,1.100648283958435
1715093492159596800,12.2445966796875,1.275638222694397,-0.5406789779663086,-0.005758166313171387
1715093492169576200,12.254576171875,1.9646351337432861,-0.6513137817382812,0.27531206607818604
1715093492179555300,12.264555419921875,2.337956666946411,-0.6770944595336914,0.6977752447128296
1715093492189504000,12.27450390625,2.774034261703491,-0.2008800506591797,1.1492328643798828
1715093492199483400,12.2844833984375,3.4986867904663086,0.7446489334106445,1.0779141187667847
1715093492209462500,12.294462646484375,4.488770961761475,1.9501523971557617,0.5917738676071167
1715093492219411500,12.304411376953125,4.83396577835083,3.3145360946655273,0.17621052265167236
1715093492229390600,12.314390625,4.524228096008301,4.831813812255859,-0.18333077430725098
1715093492239369700,12.32436962890625,4.150665760040283,5.82530403137207,-0.7785344123840332
1715093492249318700,12.334318603515625,3.083498477935791,5.9766845703125,-1.0604835748672485
1715093492259297800,12.3442978515625,2.7467169761657715,5.477985382080078,-0.9960842132568359
1715093492269277200,12.354277099609375,0.21729671955108643,2.840102195739746,-0.11127710342407227
1715093492279225900,12.364225830078125,0.5196084976196289,-0.9136676788330078,2.437917947769165
1715093492289205000,12.374205078125,2.6844146251678467,-2.4651565551757812,3.081023693084717
1715093492299184400,12.384184326171875,2.4334490299224854,-2.8463563919067383,1.2221969366073608
1715093492309163500,12.39416357421875,4.03856897354126,-3.323887825012207,2.3065929412841797
1715093492319112200,12.4041123046875,4.610029220581055,-3.730595588684082,1.9086672067642212
1715093492329091600,12.414091552734375,4.198302745819092,-1.8551521301269531,2.1682839393615723
1715093492339070700,12.42407080078125,3.2392032146453857,0.5852651596069336,2.0360279083251953
1715093492349050000,12.434050048828125,2.312730312347412,1.0243663787841797,1.7192256450653076
1715093492358998800,12.443998779296875,1.5022685527801514,0.6211233139038086,1.173840880393982
1715093492368978000,12.45397802734375,-0.10477417707443237,0.34906482696533203,1.0112258195877075
1715093492378957300,12.463957275390625,-1.7595458030700684,0.21207618713378906,0.7282438278198242
1715093492388906000,12.473906005859375,-3.5066404342651367,-0.3775463104248047,0.6154567003250122
1715093492398885000,12.483885009765626,-3.9351425170898438,-1.2668476104736328,-0.019588351249694824
1715093492408864500,12.493864501953125,-2.6992688179016113,-2.349013328552246,-1.683570384979248
1715093492418813200,12.503813232421875,-2.3659048080444336,-3.652545928955078,-3.510413646697998
1715093492428792600,12.51379248046875,-2.3962435722351074,-5.500236511230469,-5.252262115478516
1715093492438771700,12.523771728515625,-1.2495847940444946,-7.903681755065918,-5.731622695922852
1715093492448720400,12.533720458984375,0.8958109617233276,-10.255522727966309,-4.643504619598389
1715093492458699800,12.54369970703125,0.7864944934844971,-11.303114891052246,-4.149553298950195
1715093492468679000,12.553678955078125,-0.5250148773193359,-11.05125617980957,-4.079289436340332
1715093492478627600,12.563627685546875,-1.0620486736297607,-10.20139217376709,-2.2942850589752197
1715093492488607000,12.57360693359375,-2.383601427078247,-7.861956596374512,1.149402379989624
1715093492498586000,12.583586181640625,-3.923675298690796,-5.390885353088379,4.242171764373779
1715093492508534800,12.59353466796875,-4.625158309936523,-2.7397985458374023,6.890380859375
1715093492518514200,12.60351416015625,-6.235559463500977,-0.25173282623291016,8.684652328491211
1715093492528493300,12.613493408203125,-6.188683032989502,2.5409011840820312,9.6259126663208
1715093492538442000,12.62344189453125,-7.288405418395996,4.186939239501953,8.649694442749023
1715093492548421400,12.63342138671875,-5.654358863830566,5.070897102355957,6.807605743408203
1715093492558400500,12.643400390625,-2.4637255668640137,5.409934043884277,5.0457282066345215
1715093492568349400,12.653349365234375,-2.545353651046753,4.4182634353637695,3.085869789123535
1715093492578328600,12.66332861328125,-1.167717456817627,3.8285255432128906,0.8616300821304321
1715093492588307700,12.6733076171875,0.8940045833587646,3.7018260955810547,-1.5366456508636475
1715093492598287000,12.683287109375,1.7714588642120361,3.7383127212524414,-3.2163968086242676
1715093492608266200,12.693266357421875,2.0009822845458984,3.770662307739258,-4.328657150268555
1715093492618215200,12.703215087890625,1.4442591667175293,3.795490264892578,-5.4365715980529785
1715093492628194300,12.7131943359375,0.5934748649597168,3.778848648071289,-5.749025344848633
1715093492638173400,12.72317333984375,-0.45415663719177246,3.647615432739258,-5.500140190124512
1715093492648152800,12.73315283203125,-1.7576050758361816,3.241975784301758,-4.420683860778809
1715093492658101500,12.7431015625,-2.8792080879211426,2.79305362701416,-3.7554101943969727
1715093492668067600,12.753067626953126,-3.211930513381958,2.219611167907715,-3.726682662963867
