time,seconds_elapsed,z,y,x
1715093181167241700,0.26424169921875,-1.0408172607421875,-0.37648916244506836,-0.08564603328704834
1715093181177221000,0.27422119140625,-0.8293333053588867,-0.3203258514404297,-0.18577665090560913
1715093181187200300,0.2842001953125,-0.6643562316894531,-0.30686473846435547,-0.1638588309288025
1715093181197179400,0.294179443359375,-0.4387197494506836,-0.3095989227294922,-0.1309725046157837
1715093181207158800,0.30415869140625,-0.34067821502685547,-0.27675867080688477,-0.106051504611969
1715093181217138000,0.314137939453125,-0.48217010498046875,-0.21908950805664062,-0.1250585913658142
1715093181227117300,0.324117431640625,-0.6582317352294922,-0.11306571960449219,-0.09662669897079468
1715093181237066000,0.33406591796875,-0.7699098587036133,-0.09428215026855469,-0.05870288610458374
1715093181247045000,0.344045166015625,-0.9702339172363281,-0.10894775390625,-0.029134392738342285
1715093181257024500,0.3540244140625,-1.0353708267211914,-0.060306549072265625,0.06787663698196411
1715093181267003600,0.364003662109375,-0.9011783599853516,0.053096771240234375,0.17321383953094482
1715093181276983000,0.373983154296875,-0.8265657424926758,0.08231163024902344,0.15361875295639038
1715093181286962200,0.383962158203125,-0.7588310241699219,0.05191230773925781,0.20576685667037964
1715093181296910800,0.393910888671875,-0.5305423736572266,-0.049163818359375,0.1950412392616272
1715093181306890200,0.40389013671875,-0.3453207015991211,-0.07597970962524414,0.2038220763206482
1715093181316869400,0.413869384765625,-0.3648042678833008,-0.4255681037902832,0.1607503890991211
1715093181326848800,0.423848876953125,-0.3260364532470703,-0.4185457229614258,0.30091267824172974
1715093181336797400,0.43379736328125,-0.20838356018066406,-0.4456939697265625,0.3497357964515686
1715093181346776600,0.443776611328125,-0.05838966369628906,-0.46409082412719727,0.276045024394989
1715093181356756000,0.453755859375,0.01268768310546875,-0.3428807258605957,0.2773882746696472
1715093181366704600,0.46370458984375,0.04912376403808594,-0.19247961044311523,0.15354907512664795
1715093181376684000,0.47368408203125,-0.00585174560546875,-0.3407268524169922,0.19782841205596924
1715093181386663200,0.4836630859375,-0.010958671569824219,-0.31693124771118164,0.06354272365570068
1715093181396611800,0.49361181640625,-0.23495197296142578,-0.2041912078857422,0.36761748790740967
1715093181406591200,0.50359130859375,-0.03082752227783203,0.028139114379882812,-0.08133628964424133
1715093181416570400,0.5135703125,0.03701210021972656,-0.05990314483642578,-0.04611760377883911
1715093181426519000,0.52351904296875,-0.045734405517578125,-0.18247556686401367,0.04151654243469238
1715093181436498400,0.53349853515625,-0.12847232818603516,-0.1853351593017578,0.07226905226707458
1715093181446477600,0.5434775390625,-0.23230838775634766,-0.17427301406860352,0.04923787713050842
1715093181456426200,0.55342626953125,-0.2258586883544922,0.0008897781372070312,-0.1696678102016449
1715093181466405600,0.563405517578125,-0.46216392517089844,-0.06385421752929688,-0.15206781029701233
1715093181476354300,0.573354248046875,-0.569976806640625,-0.12108087539672852,-0.0604129433631897
1715093181486333400,0.58333349609375,-0.5827693939208984,-0.14102840423583984,-0.026170402765274048
1715093181496312800,0.593312744140625,-0.6738529205322266,-0.18927812576293945,0.004169285297393799
1715093181506261500,0.603261474609375,-0.694584846496582,-0.26923274993896484,0.134409099817276
1715093181516241000,0.613240966796875,-0.6749696731567383,-0.34484100341796875,0.14263498783111572
1715093181526220000,0.623219970703125,-0.5031461715698242,-0.3797025680541992,0.12720248103141785
1715093181536168700,0.633168701171875,-0.23030853271484375,-0.3857593536376953,0.09575241804122925
1715093181546148000,0.643148193359375,-0.22136402130126953,-0.5904364585876465,0.2145403027534485
1715093181556127200,0.653127197265625,-0.1758260726928711,-0.7008590698242188,0.3330516517162323
1715093181566076000,0.663075927734375,-0.2426767349243164,-0.8520603179931641,0.19670164585113525
1715093181576055300,0.67305517578125,-0.25745582580566406,-1.3043618202209473,0.16940531134605408
1715093181586034400,0.683034423828125,-0.3299875259399414,-0.772252082824707,0.5979896783828735
1715093181596013800,0.693013916015625,-0.5355710983276367,-0.46492719650268555,0.30762767791748047
1715093181605962500,0.70296240234375,-0.6747817993164062,-0.30003786087036133,0.0541018545627594
1715093181615941600,0.712941650390625,-0.7862720489501953,-0.29395484924316406,-0.10085514187812805
1715093181625921000,0.722921142578125,-0.7074184417724609,-0.2408146858215332,-0.20748430490493774
1715093181635872000,0.7328720703125,-0.6170759201049805,-0.07914352416992188,-0.4074500501155853
1715093181645855500,0.74285546875,-0.5742349624633789,0.11169147491455078,-0.5164626836776733
1715093181655834600,0.752834716796875,-0.4600791931152344,0.09802770614624023,-0.6614862680435181
1715093181665783600,0.762783447265625,-0.2937488555908203,0.15271472930908203,-0.7558419704437256
1715093181675762700,0.7727626953125,-0.14356327056884766,0.3064432144165039,-0.8164011240005493
1715093181685742000,0.7827421875,-0.20972633361816406,0.511049747467041,-0.8263920545578003
1715093181695690800,0.792690673828125,-0.2744417190551758,0.5725240707397461,-0.9743885397911072
1715093181705670000,0.802669921875,-0.11472702026367188,0.2132878303527832,-0.8186317682266235
1715093181715649300,0.812649169921875,-0.3187704086303711,-0.44124364852905273,-0.34836721420288086
1715093181725598000,0.822597900390625,-0.2801952362060547,-0.5197896957397461,-0.20736324787139893
1715093181735577000,0.8325771484375,-0.10619640350341797,-0.2938652038574219,-0.3002748489379883
1715093181745526000,0.842526123046875,0.13204193115234375,-0.14965438842773438,-0.29237252473831177
1715093181755505200,0.852505126953125,0.07686138153076172,-0.35833120346069336,-0.26068562269210815
1715093181765484300,0.862484375,0.23814010620117188,-0.4785346984863281,-0.05412924289703369
1715093181775433200,0.87243310546875,0.6029338836669922,-0.5320277214050293,0.15016621351242065
1715093181785412400,0.882412353515625,0.7931232452392578,-0.6349949836730957,0.29509949684143066
1715093181795391700,0.892391845703125,0.9052295684814453,-0.686835765838623,0.48248904943466187
1715093181805340400,0.90234033203125,0.9479646682739258,-0.7102060317993164,0.662318766117096
1715093181815319600,0.912319580078125,0.8356618881225586,-0.7514514923095703,0.8464959859848022
1715093181825299000,0.922298828125,0.6227502822875977,-0.8016510009765625,0.9906838536262512
1715093181835247600,0.93224755859375,0.660980224609375,-0.8598618507385254,0.9985507726669312
1715093181845226800,0.942226806640625,0.743229866027832,-0.8696002960205078,0.9596221446990967
1715093181855206100,0.9522060546875,0.7491340637207031,-0.8773179054260254,0.9166102409362793
1715093181865185300,0.962185302734375,0.6769847869873047,-0.9603867530822754,1.0044443607330322
1715093181875134000,0.972134033203125,0.7023344039916992,-0.8760151863098145,1.0726666450500488
1715093181885113300,0.98211328125,0.4166727066040039,-0.5421733856201172,1.277891993522644
1715093181895092500,0.992092529296875,-0.45340824127197266,-0.45537471771240234,1.5632667541503906
1715093181905041400,1.00204150390625,-0.9338178634643555,0.3961162567138672,1.635361671447754
1715093181915020500,1.0120205078125,-1.5741920471191406,0.5244946479797363,1.456291913986206
1715093181924999700,1.021999755859375,-1.5008115768432617,0.03493213653564453,1.638998031616211
1715093181934948600,1.031948486328125,-0.5103769302368164,-0.8959074020385742,1.7197576761245728
1715093181944927700,1.041927734375,0.9317331314086914,-1.2797999382019043,1.51073157787323
1715093181954907000,1.051906982421875,2.1412839889526367,-1.5207176208496094,1.3258750438690186
1715093181964855800,1.061855712890625,2.8245773315429688,-1.8068199157714844,1.1816890239715576
1715093181974835000,1.0718349609375,2.6275434494018555,-1.9256677627563477,1.0813274383544922
1715093181984814300,1.081814453125,2.1262617111206055,-1.9029712677001953,0.9644867181777954
1715093181994763000,1.091762939453125,1.2423343658447266,-1.6384758949279785,1.055040717124939
1715093182004742100,1.1017421875,0.1050882339477539,-1.4471197128295898,1.4504883289337158
1715093182014721500,1.111721435546875,-0.34825897216796875,-0.7196478843688965,1.6247305870056152
1715093182024670200,1.121670166015625,-0.7200784683227539,-0.8084335327148438,1.725229024887085
1715093182034649300,1.1316494140625,-0.47858715057373047,-0.6262612342834473,1.882713794708252
1715093182044598300,1.141598388671875,0.06456375122070312,-0.5446987152099609,1.8164211511611938
1715093182054577400,1.151577392578125,0.4519538879394531,-0.820244312286377,1.8638819456100464
1715093182064556500,1.161556640625,0.5733823776245117,-0.9117865562438965,1.8302817344665527
1715093182074505500,1.17150537109375,0.6382598876953125,-0.9550342559814453,1.7714629173278809
1715093182084484600,1.181484619140625,0.7023096084594727,-1.0581917762756348,1.6689379215240479
1715093182094464000,1.191464111328125,0.8111839294433594,-1.074676513671875,1.5301133394241333
1715093182104412700,1.20141259765625,0.8602685928344727,-1.0623884201049805,1.4175726175308228
1715093182114391800,1.211391845703125,0.9421310424804688,-1.01129150390625,1.3470066785812378
1715093182124371200,1.22137109375,0.8923482894897461,-0.9160685539245605,1.1917555332183838
1715093182134319900,1.23131982421875,0.6869640350341797,-0.8862195014953613,1.0441386699676514
1715093182144299000,1.241299072265625,0.48531627655029297,-0.8815546035766602,0.9644677042961121
1715093182154278400,1.2512783203125,0.3129005432128906,-0.8369846343994141,0.8836831450462341
1715093182164257500,1.261257568359375,0.15762615203857422,-0.793276309967041,0.8607673645019531
1715093182174206200,1.271206298828125,-0.04224395751953125,-0.7482461929321289,0.8136871457099915
1715093182184185600,1.281185546875,-0.31480979919433594,-0.7136502265930176,0.7894347310066223
1715093182194164700,1.291164794921875,-0.4477977752685547,-0.6143217086791992,0.8641436100006104
1715093182204113700,1.30111376953125,-0.49648284912109375,-0.5205655097961426,0.9761862754821777
1715093182214092800,1.3110927734375,-0.6567716598510742,-0.36961793899536133,1.0757030248641968
1715093182224072000,1.321072021484375,-0.7693920135498047,-0.2486567497253418,1.0928376913070679
1715093182234020900,1.331020751953125,-0.6897869110107422,-0.19806814193725586,1.1356052160263062
1715093182244000000,1.341,-0.5447788238525391,-0.1873931884765625,1.1261625289916992
1715093182253979400,1.3509794921875,-0.3558073043823242,-0.2811579704284668,0.988957405090332
1715093182263928000,1.360927978515625,-0.19862079620361328,-0.39867067337036133,0.8119258880615234
1715093182273907200,1.3709072265625,-0.1087350845336914,-0.5062351226806641,0.7102357149124146
1715093182283886600,1.380886474609375,-0.016999244689941406,-0.6059017181396484,0.5697280764579773
1715093182293835300,1.390835205078125,0.1096038818359375,-0.6522130966186523,0.4542333781719208
1715093182303814400,1.400814453125,0.22559452056884766,-0.7453708648681641,0.4743884801864624
1715093182313793800,1.410793701171875,0.3757648468017578,-0.8514633178710938,0.40242016315460205
1715093182323742500,1.420742431640625,0.4839048385620117,-0.9540505409240723,0.42833274602890015
1715093182333721600,1.4307216796875,0.7866144180297852,-1.0102272033691406,0.4663887619972229
1715093182343670500,1.44067041015625,0.798548698425293,-1.1544713973999023,0.27968889474868774
1715093182353649700,1.450649658203125,0.3752412796020508,-0.5361223220825195,0.9266315698623657
1715093182363628800,1.46062890625,-0.25864219665527344,-0.6276636123657227,1.0307338237762451
1715093182373577700,1.47057763671875,-0.5213146209716797,-0.7530803680419922,0.847877025604248
1715093182383556900,1.480556884765625,-0.8848772048950195,0.06338977813720703,1.1294288635253906
1715093182393536300,1.490536376953125,-1.6122016906738281,-0.7929844856262207,0.9315436482429504
1715093182403485000,1.50048486328125,-1.7351703643798828,-1.1570487022399902,1.2091155052185059
1715093182413464000,1.510464111328125,-1.1039304733276367,-1.5455255508422852,2.770463705062866
1715093182423443500,1.520443359375,0.7973003387451172,-1.6175875663757324,4.97381067276001
1715093182433392000,1.53039208984375,0.0008611679077148438,-2.287201404571533,4.354789733886719
1715093182443371300,1.540371337890625,-3.405620574951172,-3.029991626739502,3.628016710281372
1715093182453350700,1.5503505859375,-6.634493827819824,-2.6468100547790527,2.7100448608398438
1715093182463329800,1.560329833984375,-8.21786880493164,-2.6425509452819824,2.9487950801849365
1715093182473270000,1.57027001953125,-8.262127876281738,-3.9939322471618652,2.524552822113037
1715093182483249200,1.580249267578125,-7.531464576721191,-1.6798076629638672,4.872885704040527
1715093182493228300,1.590228271484375,-6.0410356521606445,-4.069272994995117,4.7448577880859375
1715093182503177200,1.60017724609375,-8.214871406555176,-6.748517990112305,5.037017822265625
1715093182513156400,1.61015625,-7.365655899047852,-4.857898712158203,4.097767353057861
1715093182523135700,1.6201357421875,-6.194458484649658,-5.5514421463012695,2.799107789993286
1715093182533084400,1.63008447265625,-6.690407752990723,-6.979780197143555,0.6897339820861816
1715093182543063600,1.6400634765625,-6.958414077758789,-7.456356048583984,-0.9322314262390137
1715093182553043000,1.65004296875,-6.25965690612793,-6.2577714920043945,-1.2099628448486328
1715093182563003100,1.660003173828125,-6.365494251251221,-3.8672144412994385,0.7607879638671875
1715093182572982500,1.669982421875,-7.758223533630371,-2.6620001792907715,2.984708786010742
1715093182582931200,1.67993115234375,-8.603904724121094,-3.800020694732666,3.1877999305725098
1715093182592910600,1.68991064453125,-8.899213790893555,-6.309165000915527,0.663480281829834
1715093182602889700,1.6998896484375,-8.639854431152344,-7.643237590789795,-2.265346050262451
1715093182612838400,1.70983837890625,-7.67588996887207,-7.204492092132568,-3.210157871246338
1715093182622817800,1.71981787109375,-5.132122039794922,-5.616718769073486,-1.2573833465576172
1715093182632786000,1.729785888671875,-1.5892009735107422,-4.062755107879639,-0.2738838195800781
1715093182642734600,1.739734619140625,-0.568695068359375,-4.809523582458496,-2.1906814575195312
1715093182652714000,1.7497138671875,1.411994218826294,-5.127535343170166,-3.660019874572754
1715093182662693000,1.759693115234375,1.184265375137329,-5.743703365325928,-5.812233924865723
1715093182672642000,1.76964208984375,1.3164052963256836,-5.459693431854248,-6.717164039611816
1715093182682621200,1.77962109375,1.0573058128356934,-5.2188615798950195,-5.482688903808594
1715093182692569900,1.78956982421875,0.359990656375885,-5.859079360961914,-3.6374149322509766
1715093182702549200,1.79954931640625,-0.8405826687812805,-7.46158504486084,-0.8567123413085938
1715093182712528400,1.8095283203125,-0.4517987370491028,-9.223296165466309,1.7214431762695312
1715093182722507800,1.8195078125,4.202609062194824,-9.918120384216309,3.3967461585998535
1715093182732487000,1.82948681640625,8.128035545349121,-11.360830307006836,3.62040376663208
1715093182742435600,1.839435546875,10.374631881713867,-13.021984100341797,3.818406581878662
1715093182752415000,1.8494150390625,12.59469985961914,-12.196638107299805,4.240485191345215
1715093182762394000,1.85939404296875,13.247782707214355,-11.85000228881836,6.25270414352417
1715093182772342800,1.8693427734375,10.87302017211914,-13.940619468688965,10.003227233886719
1715093182782322200,1.879322265625,8.799480438232422,-15.08656120300293,14.152936935424805
1715093182792301300,1.88930126953125,8.022539138793945,-15.498048782348633,16.483745574951172
1715093182802250000,1.89925,10.794966697692871,-15.729015350341797,18.074352264404297
1715093182812229400,1.9092294921875,15.898202896118164,-16.030582427978516,19.728763580322266
1715093182822208500,1.91920849609375,19.70512580871582,-16.686662673950195,21.200353622436523
1715093182832157200,1.9291572265625,19.320350646972656,-17.238327026367188,21.424211502075195
1715093182842136600,1.939136474609375,14.125842094421387,-15.718011856079102,22.32345199584961
1715093182852115700,1.94911572265625,8.840660095214844,-10.671343803405762,26.098106384277344
1715093182862064600,1.959064697265625,-1.8481605052947998,-7.205844879150391,26.521785736083984
1715093182872043800,1.969043701171875,-12.1209077835083,-6.72810173034668,19.96772003173828
1715093182882001000,1.9790009765625,-12.920023918151855,-4.211352348327637,12.509418487548828
1715093182891980000,1.98897998046875,-24.349807739257812,-0.08291339874267578,7.916437149047852
1715093182901959400,1.99895947265625,-18.8959903717041,-3.7704620361328125,10.40690803527832
1715093182911908000,2.008908203125,-1.6941827535629272,-7.362908363342285,8.60175895690918
1715093182921887200,2.01888720703125,15.396759033203125,-4.901123046875,5.011015892028809
1715093182931866600,2.02886669921875,20.491212844848633,-6.795258522033691,3.8931803703308105
1715093182941815300,2.038815185546875,16.903249740600586,-7.019863128662109,3.646146535873413
1715093182951794400,2.04879443359375,7.750461101531982,-8.733377456665039,0.1684662103652954
1715093182961743400,2.058743408203125,5.294788360595703,-7.7847442626953125,-1.2334476709365845
1715093182971722500,2.068722412109375,3.858118772506714,-7.466612815856934,0.5575524568557739
1715093182981702000,2.078701904296875,-19.80697250366211,0.48969459533691406,6.32772970199585
1715093182991681000,2.088680908203125,-7.341428756713867,1.404306411743164,7.3212432861328125
1715093183001629700,2.098629638671875,-2.8368802070617676,4.156052589416504,7.947036266326904
1715093183011609000,2.108609130859375,-2.2696151733398438,4.166975021362305,6.683271408081055
1715093183021588200,2.118588134765625,-1.877258539199829,1.0708723068237305,4.683536529541016
1715093183031567600,2.128567626953125,-0.22837138175964355,-0.42631053924560547,2.1268672943115234
1715093183041516300,2.138516357421875,0.18832778930664062,0.9372701644897461,2.13283109664917
1715093183051495400,2.148495361328125,-1.4395372867584229,2.8946399688720703,2.838230609893799
1715093183061474800,2.158474853515625,-2.1366004943847656,2.935018539428711,2.023160934448242
1715093183071423500,2.168423583984375,-0.09807705879211426,3.560892105102539,1.6537611484527588
1715093183081402600,2.178402587890625,1.1482839584350586,2.2956037521362305,2.536599636077881
1715093183091382000,2.188382080078125,-3.3286750316619873,4.311727523803711,3.505160331726074
1715093183101330700,2.19833056640625,2.531299591064453,2.3537120819091797,-1.435497760772705
1715093183111309800,2.208309814453125,-6.928111553192139,9.429417610168457,4.833721160888672
1715093183121289200,2.218289306640625,-6.866128921508789,7.255919456481934,3.196242570877075
1715093183131238000,2.22823779296875,8.110319137573242,4.123812675476074,0.2938539981842041
1715093183141217300,2.23821728515625,-2.6295166015625,6.814155578613281,4.658839225769043
1715093183151166000,2.248166015625,-12.600456237792969,10.634758949279785,7.767833709716797
1715093183161145000,2.25814501953125,-20.400249481201172,15.184041976928711,10.436464309692383
1715093183171124500,2.26812451171875,-10.820650100708008,13.918190002441406,4.818230628967285
1715093183181073200,2.2780732421875,-2.2897515296936035,10.111085891723633,1.904188632965088
1715093183191052300,2.28805224609375,-3.8067591190338135,7.263544082641602,1.3389074802398682
1715093183201031700,2.29803173828125,-4.02869987487793,5.139778137207031,1.8034977912902832
1715093183210980400,2.30798046875,-3.88085675239563,2.4769535064697266,2.1367900371551514
1715093183220959500,2.31795947265625,-2.9005939960479736,0.2273082733154297,2.1389901638031006
1715093183230939000,2.32793896484375,-1.867652177810669,0.2699155807495117,0.6636872291564941
1715093183240887600,2.337887451171875,-1.6886329650878906,0.9375495910644531,-0.4832777976989746
1715093183250867000,2.347866943359375,-2.6343390941619873,1.2302160263061523,-0.07353603839874268
1715093183260815600,2.357815673828125,-0.5372974872589111,2.1137380599975586,-0.5631088018417358
1715093183270794800,2.367794677734375,-0.4585247039794922,0.5427923202514648,-0.22951185703277588
1715093183280774100,2.377774169921875,-2.549252986907959,-2.157872200012207,-0.9004082083702087
1715093183290753300,2.387753173828125,-3.4829165935516357,2.6121959686279297,1.500290036201477
1715093183300702000,2.397701904296875,-5.36820650100708,3.973398208618164,2.24802565574646
1715093183310681300,2.407681396484375,-0.9627333879470825,0.7989397048950195,-0.1437373161315918
1715093183320660500,2.417660400390625,0.2225487232208252,0.30028343200683594,1.7281564474105835
1715093183330609200,2.427609130859375,2.1148064136505127,-0.5536870956420898,4.158570289611816
1715093183340580900,2.437580810546875,4.370314598083496,-4.984724998474121,3.943072557449341
1715093183350560300,2.447560302734375,4.51658821105957,-6.439188003540039,2.5768802165985107
1715093183360509000,2.457509033203125,2.9055728912353516,-2.4955482482910156,1.034973382949829
1715093183370488000,2.467488037109375,0.5681490898132324,0.8596992492675781,2.090409517288208
1715093183380467500,2.477467529296875,-1.5211080312728882,0.41654300689697266,2.5593786239624023
1715093183390416100,2.487416015625,-1.606170415878296,0.02789306640625,1.3809289932250977
1715093183400395500,2.4973955078125,-0.7639111876487732,-2.0711193084716797,-1.3924884796142578
1715093183410374700,2.507374755859375,-0.0818549394607544,-4.236606597900391,-3.1308465003967285
1715093183420323300,2.5173232421875,1.1486717462539673,-4.720990180969238,-4.552845478057861
1715093183430286600,2.52728662109375,1.8156200647354126,-6.0267486572265625,-6.71528959274292
1715093183440265700,2.537265625,2.514587640762329,-4.814520835876465,-5.893589973449707
1715093183450214700,2.547214599609375,1.5320829153060913,-3.124134063720703,-2.785891532897949
1715093183460193800,2.55719384765625,2.867835760116577,-3.10012149810791,-3.348109722137451
1715093183470173000,2.5671728515625,2.5297136306762695,-2.130742073059082,-3.4705634117126465
1715093183480121900,2.577121826171875,-1.0604454278945923,0.17796802520751953,-3.1179447174072266
1715093183490101000,2.58710107421875,-2.9601361751556396,0.8839330673217773,-4.855742931365967
1715093183500080400,2.597080322265625,-2.449340343475342,1.5942840576171875,-6.952829360961914
1715093183510029000,2.607029052734375,-1.1795960664749146,2.569718360900879,-5.2812652587890625
1715093183520008200,2.61700830078125,1.0618809461593628,-0.008764266967773438,0.42688918113708496
1715093183529956900,2.626956787109375,2.5689749717712402,-0.1169443130493164,2.8856639862060547
1715093183539936300,2.636936279296875,2.0775766372680664,0.577631950378418,5.084047794342041
1715093183549915400,2.646915283203125,0.8523581624031067,0.2233600616455078,4.2376203536987305
1715093183559864300,2.6568642578125,0.6975303292274475,-1.2260551452636719,4.0334272384643555
1715093183569843500,2.666843505859375,1.0884065628051758,-1.0970029830932617,4.671844005584717
1715093183579822600,2.676822509765625,-0.3744457960128784,-2.8294849395751953,7.933121681213379
1715093183589802000,2.686802001953125,-0.450100302696228,-3.5078773498535156,8.52601146697998
1715093183599781000,2.696781005859375,-0.13109266757965088,-2.9584617614746094,4.4067063331604
1715093183609730000,2.70672998046875,-1.6268047094345093,-2.4924516677856445,1.6168906688690186
1715093183619709200,2.716709228515625,-1.5629024505615234,-2.0103330612182617,2.4095914363861084
1715093183629688300,2.726688232421875,-1.4880621433258057,-4.470091819763184,1.3732125759124756
1715093183639637200,2.73663720703125,-1.6223957538604736,-4.474727630615234,0.5246776342391968
1715093183649616400,2.746616455078125,-3.248957633972168,-2.2695837020874023,3.1061463356018066
1715093183659565000,2.75656494140625,-0.4113137722015381,-1.674778938293457,3.2420270442962646
1715093183669555700,2.7665556640625,-1.4423271417617798,-2.0337142944335938,-1.1930874586105347
1715093183679534800,2.776534912109375,0.2675313949584961,-2.628361701965332,0.338079571723938
1715093183689483500,2.7864833984375,2.1645212173461914,0.3654346466064453,2.5329036712646484
1715093183699463000,2.796462890625,1.6579515933990479,1.3666315078735352,0.8779812455177307
1715093183709442000,2.806442138671875,-0.02514016628265381,1.678842544555664,-1.7368700504302979
1715093183719391000,2.816390869140625,-0.5211517810821533,0.4831867218017578,-3.2853825092315674
1715093183729370000,2.8263701171875,0.6418755054473877,2.058828353881836,-3.7263376712799072
1715093183739349200,2.836349365234375,0.6061832904815674,1.6301288604736328,-0.6436460018157959
1715093183749298200,2.846298095703125,0.18180066347122192,4.26092529296875,-1.1687477827072144
1715093183759277300,2.85627734375,0.132338285446167,5.123310089111328,-0.29135847091674805
1715093183769256400,2.86625634765625,-1.282143473625183,5.137363433837891,1.598299264907837
1715093183779205400,2.876205322265625,-2.46927547454834,4.79830265045166,2.5021779537200928
1715093183789184500,2.8861845703125,-0.8077648878097534,4.79958438873291,1.9656116962432861
1715093183799133200,2.89613330078125,-3.763751268386841,3.744166374206543,1.5453131198883057
1715093183809112600,2.906112548828125,-5.875269889831543,2.275888442993164,1.372239351272583
1715093183819091700,2.916091796875,-1.3546805381774902,1.2988901138305664,1.2815797328948975
1715093183829040400,2.926040283203125,-2.183152675628662,0.026121139526367188,-2.026387929916382
1715093183839019800,2.936019775390625,-3.9572947025299072,1.465353012084961,0.5194694995880127
1715093183848999000,2.9459990234375,-4.544657230377197,5.089054107666016,2.3953230381011963
1715093183858978300,2.955978271484375,-3.1683852672576904,8.103981018066406,1.7049357891082764
1715093183868927000,2.965927001953125,-1.9583461284637451,9.051651000976562,0.8968324661254883
1715093183878906000,2.975906005859375,1.3351333141326904,8.801578521728516,3.3350307941436768
1715093183888885500,2.985885498046875,1.6509172916412354,6.458529472351074,4.386364459991455
1715093183898834200,2.995834228515625,2.9074912071228027,4.694876670837402,3.559845447540283
1715093183908813600,3.0058134765625,5.109345436096191,2.4000158309936523,2.9612350463867188
1715093183918792700,3.015792724609375,5.616335868835449,1.0226163864135742,1.1004247665405273
1715093183928741400,3.025741455078125,4.983046531677246,0.2312335968017578,1.9295456409454346
1715093183938720800,3.035720703125,2.922941207885742,-3.343229293823242,0.7600430250167847
1715093183948700000,3.045699951171875,-3.629791259765625,-20.9154052734375,-17.479318618774414
1715093183958648600,3.055648681640625,-2.2440366744995117,-21.383256912231445,-8.429158210754395
1715093183968628000,3.0656279296875,0.13934248685836792,-12.179351806640625,4.395730495452881
1715093183978607000,3.075607177734375,-3.272982358932495,-9.707103729248047,0.8984767198562622
1715093183988555800,3.0855556640625,-4.800081253051758,-8.141952514648438,-2.4636452198028564
1715093183998535200,3.09553515625,-3.342477798461914,-4.975469589233398,-0.14959287643432617
1715093184008514300,3.105514404296875,0.31702834367752075,-1.8540534973144531,1.6072064638137817
1715093184018463200,3.115463134765625,-0.7630189657211304,-2.6731128692626953,1.4694831371307373
1715093184028442400,3.1254423828125,1.4556922912597656,-0.7064981460571289,0.47359132766723633
1715093184038421500,3.13542138671875,-1.0972003936767578,-2.5595035552978516,0.738007664680481
1715093184048370400,3.145370361328125,-1.2232849597930908,-3.127401351928711,-0.2598823308944702
1715093184058349600,3.155349609375,-0.3771066665649414,-1.0648679733276367,-0.5959675312042236
1715093184068329000,3.165328857421875,-1.6094918251037598,3.4364852905273438,0.4081822633743286
1715093184078277600,3.175277587890625,-1.3984466791152954,5.2675628662109375,0.2078857421875
1715093184088256800,3.1852568359375,-0.5582935810089111,4.901634216308594,0.32997947931289673
1715093184098205400,3.195205322265625,0.9200936555862427,4.293985366821289,0.9090937972068787
1715093184108184800,3.205184814453125,1.5020902156829834,2.557408332824707,1.0649493932724
1715093184118164000,3.2151640625,1.7156896591186523,1.9647712707519531,0.365106463432312
1715093184128113000,3.22511279296875,1.2293781042099,1.9617185592651367,0.18949854373931885
1715093184138092000,3.235092041015625,0.735477864742279,1.7455644607543945,0.287853479385376
1715093184148071200,3.2450712890625,0.4115879535675049,1.5108890533447266,0.5609714388847351
1715093184158050600,3.255050537109375,0.2947245240211487,1.3773422241210938,1.0049958229064941
1715093184167999200,3.264999267578125,0.3589310646057129,1.4449348449707031,1.4093623161315918
1715093184177978600,3.274978515625,0.4970967769622803,1.605698585510254,1.640766978263855
1715093184187957800,3.284957763671875,0.6949880123138428,1.8379220962524414,1.835599660873413
1715093184197906400,3.294906494140625,0.8445435762405396,2.012436866760254,1.9223527908325195
1715093184207885800,3.3048857421875,0.9642552137374878,1.9956684112548828,2.033085823059082
1715093184217865000,3.314864990234375,1.0549395084381104,1.7329788208007812,2.0911166667938232
1715093184227813600,3.324813720703125,1.2128790616989136,1.3487777709960938,2.1836256980895996
1715093184237793000,3.33479296875,1.3455479145050049,0.8670730590820312,2.3064262866973877
1715093184247772200,3.344772216796875,1.5433969497680664,0.17591381072998047,2.5221762657165527
1715093184257720800,3.354720947265625,1.68717360496521,-0.46142578125,2.9436354637145996
1715093184267700200,3.3647001953125,1.7444159984588623,-0.8277359008789062,3.49172306060791
1715093184277679400,3.374679443359375,1.4409592151641846,-1.114084243774414,4.0310959815979
1715093184287628000,3.3846279296875,1.2620720863342285,-1.4349384307861328,4.207205772399902
1715093184297607400,3.394607421875,0.8642022609710693,-1.9352245330810547,4.020941257476807
1715093184307586600,3.404586669921875,0.6750221848487854,-2.511354446411133,3.430565595626831
1715093184317535500,3.414535400390625,0.7283076643943787,-3.2585535049438477,2.4714457988739014
1715093184327514600,3.4245146484375,0.9252609014511108,-4.030998229980469,1.4524946212768555
1715093184337493800,3.43449365234375,1.7050334215164185,-4.452174186706543,0.9307248592376709
1715093184347442700,3.444442626953125,2.7240846157073975,-3.8651790618896484,1.0819246768951416
1715093184357421800,3.454421875,2.754185438156128,-3.175814628601074,1.2896301746368408
1715093184367370500,3.46437060546875,2.32951283454895,-3.0912399291992188,2.067939043045044
1715093184377350000,3.474349853515625,2.066260576248169,-3.432737350463867,3.0233616828918457
1715093184387329000,3.4843291015625,0.4553508162498474,-4.59616756439209,3.309685230255127
1715093184397277700,3.494277587890625,-1.6790614128112793,-5.553149223327637,2.069796085357666
1715093184407257000,3.504257080078125,-2.4417741298675537,-5.530941009521484,-0.3481212854385376
1715093184417236200,3.514236328125,-2.4317173957824707,-4.812871932983398,-2.204291820526123
1715093184427215600,3.524215576171875,-2.9601917266845703,-4.132350921630859,-5.023661136627197
1715093184437164300,3.534164306640625,-3.4079976081848145,-2.988149642944336,-5.999170780181885
1715093184447143400,3.544143310546875,-2.994652032852173,-0.5832347869873047,-3.770489454269409
1715093184457122800,3.554122802734375,-1.7771384716033936,1.4661931991577148,-1.1205978393554688
1715093184467071500,3.564071533203125,-1.3146308660507202,2.3235769271850586,-0.04179352521896362
1715093184477051000,3.57405078125,-0.9385887384414673,3.071824073791504,-0.3000524640083313
1715093184487030000,3.584030029296875,-1.4198254346847534,3.6347532272338867,-0.8381063342094421
1715093184496978700,3.593978759765625,-2.3865580558776855,3.852916717529297,-1.3225820064544678
1715093184506958000,3.6039580078125,-2.571925163269043,3.65762996673584,-2.109166145324707
1715093184516937200,3.613937255859375,-2.04150390625,3.167531967163086,-2.1363978385925293
1715093184526886000,3.623885986328125,-1.0765838623046875,2.372529983520508,-2.441939353942871
1715093184536865300,3.633865234375,-0.1464937925338745,1.6324176788330078,-3.0708885192871094
1715093184546844400,3.643844482421875,0.44008612632751465,1.1383094787597656,-4.124975681304932
1715093184556793000,3.65379296875,0.5263999104499817,1.1470651626586914,-5.226665496826172
1715093184566772500,3.6637724609375,0.09764671325683594,1.757105827331543,-5.124906063079834
1715093184576751600,3.673751708984375,-0.3023020029067993,2.503236770629883,-4.800128936767578
1715093184586700500,3.683700439453125,-0.523668646812439,3.0175342559814453,-3.9674324989318848
1715093184596679700,3.6936796875,-0.22686344385147095,3.3393030166625977,-3.462000846862793
1715093184606658800,3.703658935546875,0.9399235248565674,3.5584983825683594,-3.2597055435180664
1715093184616607700,3.713607666015625,1.8013986349105835,3.411043167114258,-2.964864492416382
1715093184626587000,3.7235869140625,2.386706829071045,3.2805490493774414,-2.3639354705810547
1715093184636566000,3.73356591796875,2.072394609451294,2.303891181945801,-2.403195381164551
1715093184646515000,3.743514892578125,1.6419494152069092,1.471146583557129,-1.8342111110687256
1715093184656494000,3.753494140625,1.0105067491531372,0.7106494903564453,-1.4480928182601929
1715093184666442800,3.76344287109375,0.2978721857070923,-0.00024127960205078125,-1.356105923652649
1715093184676422100,3.773422119140625,-0.3562377095222473,-0.5507011413574219,-0.9239553213119507
1715093184686401300,3.7834013671875,-0.687321126461029,-0.44255542755126953,-0.33138787746429443
1715093184696350000,3.793349853515625,-0.6847348809242249,-0.06846141815185547,0.10179579257965088
1715093184706329300,3.803329345703125,-0.8730480670928955,0.2824840545654297,0.2499384880065918
1715093184716308500,3.81330859375,-0.9467675089836121,0.5933694839477539,0.10301768779754639
1715093184726288000,3.823287841796875,-0.9193885326385498,0.8948431015014648,0.2940206527709961
1715093184736236500,3.833236572265625,-0.745208740234375,1.0983800888061523,0.4733823537826538
1715093184746215700,3.843215576171875,0.03138589859008789,1.088526725769043,0.677769660949707
1715093184756195000,3.853195068359375,0.2800562381744385,0.8663444519042969,0.5403479337692261
1715093184766143700,3.863143798828125,0.8931640386581421,0.8197822570800781,0.6055201292037964
1715093184776123100,3.873123046875,0.9004573822021484,0.5189218521118164,0.7147876024246216
1715093184786102300,3.883102294921875,0.7973284721374512,0.4104576110839844,0.7363454103469849
1715093184796051000,3.893051025390625,0.2697077989578247,0.3979330062866211,0.7162532806396484
1715093184806030300,3.9030302734375,-0.1307353973388672,0.2321949005126953,1.1087843179702759
1715093184816009500,3.913009521484375,-0.3668935298919678,0.1257457733154297,1.1957241296768188
1715093184825958100,3.922958251953125,-0.28469157218933105,0.21937084197998047,1.5753369331359863
1715093184835937500,3.9329375,-0.21054399013519287,0.0017747879028320312,1.7715730667114258
1715093184845916700,3.942916748046875,-0.35977792739868164,-0.18578147888183594,1.8955190181732178
1715093184855865300,3.952865234375,0.1051793098449707,-0.10467815399169922,2.0439603328704834
1715093184865844700,3.9628447265625,0.0880279541015625,-0.3338193893432617,2.070629119873047
1715093184875823900,3.972823974609375,0.3430556058883667,-0.6315555572509766,2.0281004905700684
1715093184885772800,3.982772705078125,0.5477222204208374,-1.0125255584716797,2.203148365020752
1715093184895752000,3.992751953125,0.7683979272842407,-1.376753807067871,1.6965539455413818
1715093184905700600,4.00270068359375,2.0294930934906006,-1.1827020645141602,1.461968183517456
1715093184915680000,4.012679931640625,2.780222177505493,-0.8716020584106445,1.291386365890503
1715093184925659100,4.0226591796875,2.7470102310180664,-0.6952629089355469,0.8975062370300293
1715093184935607800,4.03260791015625,3.8215041160583496,-0.2746858596801758,0.812000036239624
1715093184945587200,4.042587158203125,4.9666428565979,0.08527469635009766,0.9355407953262329
1715093184955566300,4.05256640625,6.061245441436768,0.13793563842773438,0.9016321897506714
1715093184965515000,4.062514892578125,6.891855239868164,0.026304244995117188,0.812659502029419
1715093184975494400,4.072494384765625,4.637500286102295,-0.2901611328125,0.42001521587371826
1715093184985473500,4.0824736328125,3.7602174282073975,-1.2927331924438477,0.3941826820373535
1715093184995422500,4.09242236328125,2.5447356700897217,-2.2381668090820312,0.033280134201049805
1715093185005401600,4.102401611328125,2.362670421600342,-2.7102842330932617,-0.22333943843841553
1715093185015380700,4.112380615234375,1.2786471843719482,-3.032045364379883,-0.2775306701660156
1715093185025360100,4.122360107421875,3.0444867610931396,-2.460310935974121,0.027609825134277344
1715093185035308800,4.132308837890625,2.8584072589874268,-1.808304786682129,0.4521348476409912
1715093185045288200,4.1422880859375,1.997096300125122,-1.236577033996582,1.0456643104553223
1715093185055267300,4.152267333984375,1.4317691326141357,-0.5728931427001953,1.6226086616516113
1715093185065216000,4.162216064453125,0.6690609455108643,0.21969223022460938,2.2479612827301025
1715093185075195400,4.1721953125,0.3977820873260498,1.1351518630981445,2.8309075832366943
1715093185085174500,4.182174560546875,-0.006360054016113281,1.8521842956542969,2.0326969623565674
1715093185095123200,4.192123291015625,-0.47891366481781006,2.4312095642089844,0.6904697418212891
1715093185105102600,4.2021025390625,-0.4307897090911865,2.789691925048828,-0.8827705383300781
1715093185115081700,4.212081787109375,-0.35386037826538086,2.6597414016723633,-2.1407883167266846
1715093185125030400,4.222030517578125,-1.113926649093628,2.4407100677490234,-3.9791195392608643
1715093185135009800,4.232009765625,-2.324784517288208,1.7821083068847656,-5.925168514251709
1715093185144989000,4.241989013671875,-3.8262150287628174,1.0016698837280273,-7.504186630249023
1715093185154937600,4.2519375,-4.631786346435547,0.20609092712402344,-8.535250663757324
1715093185164917000,4.2619169921875,-5.207084655761719,-1.7794475555419922,-9.040886878967285
1715093185174896000,4.271896240234375,-4.830780506134033,-4.587507247924805,-8.146571159362793
1715093185184845000,4.281844970703125,-4.363211154937744,-7.053718566894531,-4.67403507232666
1715093185194824200,4.29182421875,-3.942500591278076,-8.556808471679688,-0.4934959411621094
1715093185204803300,4.30180322265625,-4.550581455230713,-8.576150894165039,1.786224365234375
1715093185214752300,4.311752197265625,-7.442834377288818,-7.410877227783203,4.014244079589844
1715093185224731400,4.3217314453125,-8.64024543762207,-6.851357460021973,7.8351030349731445
1715093185234680000,4.33168017578125,-8.706010818481445,-4.795100212097168,8.19571590423584
1715093185244659500,4.341659423828125,-6.831546306610107,-1.294306755065918,9.12979507446289
1715093185254638600,4.351638671875,-4.083868503570557,0.5188655853271484,7.556250095367432
1715093185264587300,4.361587158203125,-2.0348000526428223,1.1184091567993164,5.044097900390625
1715093185274566700,4.371566650390625,-1.6352674961090088,1.2091760635375977,2.6403584480285645
1715093185284545800,4.3815458984375,-1.160202980041504,1.133732795715332,0.8800580501556396
1715093185294525200,4.391525146484375,-0.9358272552490234,1.0837984085083008,-0.07288169860839844
1715093185304473900,4.401473876953125,0.4677245616912842,1.3225078582763672,-0.228631854057312
1715093185314453000,4.411452880859375,1.5090999603271484,1.6656780242919922,-0.43453800678253174
1715093185324432400,4.421432373046875,1.8807872533798218,2.033616065979004,-0.6997592449188232
1715093185334381000,4.431381103515625,1.3698818683624268,2.2610626220703125,-2.063415288925171
1715093185344360400,4.4413603515625,0.7115273475646973,2.5258617401123047,-2.7100090980529785
1715093185354339600,4.451339599609375,-0.07401752471923828,2.616724967956543,-3.0321836471557617
1715093185364288300,4.461288330078125,-0.8577282428741455,2.585796356201172,-3.184735059738159
1715093185374267600,4.471267578125,-1.4794927835464478,2.5733537673950195,-3.0238585472106934
1715093185384246800,4.481246826171875,-1.8574168682098389,2.755054473876953,-2.6451735496520996
1715093185394195500,4.491195556640625,-1.9902671575546265,2.969082832336426,-2.2100584506988525
1715093185404174800,4.5011748046875,-1.687293529510498,2.9981021881103516,-1.6655378341674805
1715093185414154000,4.511154052734375,-1.0641429424285889,3.025480270385742,-1.3275516033172607
1715093185424102700,4.5211025390625,-0.26645004749298096,3.016777992248535,-1.325646996498108
1715093185434082000,4.53108203125,0.39253830909729004,2.871358871459961,-1.4663070440292358
1715093185444061200,4.541061279296875,0.827986478805542,2.9546947479248047,-1.4333534240722656
1715093185454010000,4.551010009765625,1.030177116394043,3.1346521377563477,-1.4065260887145996
1715093185463989200,4.5609892578125,1.2292300462722778,3.329793930053711,-1.1661721467971802
1715093185473968400,4.570968505859375,1.5111957788467407,3.444530487060547,-0.6020086407661438
1715093185483917300,4.580917236328125,1.7903261184692383,3.336237907409668,0.07898777723312378
1715093185493896400,4.590896484375,1.7305901050567627,2.9920167922973633,0.8939798474311829
1715093185503845000,4.60084521484375,1.4288853406906128,2.4371042251586914,1.9579863548278809
1715093185513824500,4.610824462890625,1.3850066661834717,2.212482452392578,4.2493462562561035
1715093185523803600,4.6208037109375,1.110836148262024,1.5223350524902344,6.406922340393066
1715093185533752300,4.63075244140625,0.5513870716094971,0.056041717529296875,7.133608341217041
1715093185543731700,4.640731689453125,-0.4758223295211792,-1.5733623504638672,7.616317272186279
1715093185553710800,4.6507109375,-1.4912242889404297,-3.086027145385742,6.940499305725098
1715093185563659800,4.66065966796875,-2.106140613555908,-4.239809989929199,4.583771705627441
1715093185573639000,4.670638916015625,-2.8082871437072754,-5.15777587890625,1.113008737564087
1715093185583618000,4.6806181640625,-2.7048139572143555,-6.300848960876465,-2.3722381591796875
1715093185593597400,4.690597412109375,0.3752497434616089,-8.003253936767578,-5.420621871948242
1715093185603546000,4.700546142578125,5.26808500289917,-8.930106163024902,-5.991848468780518
1715093185613525200,4.710525146484375,4.175637245178223,-5.808027267456055,-3.845722198486328
1715093185623504600,4.720504638671875,2.945335865020752,-3.4934005737304688,-2.0988807678222656
1715093185633453300,4.730453369140625,3.764096975326538,-5.2364702224731445,-0.2769104838371277
1715093185643432700,4.7404326171875,1.3540934324264526,-5.914130210876465,1.287216067314148
1715093185653411800,4.750411865234375,-2.2189459800720215,-5.110080718994141,-0.23519080877304077
1715093185663360500,4.760360595703125,-8.036209106445312,-5.357268333435059,-3.8196864128112793
1715093185673340000,4.77033984375,-6.588901996612549,-7.908933639526367,-6.453355312347412
1715093185683319000,4.780319091796875,-5.345465183258057,-6.417937278747559,-7.2284722328186035
1715093185693267700,4.790267822265625,-3.3793411254882812,-0.7502927780151367,-5.069573879241943
1715093185703247000,4.8002470703125,-0.8233115077018738,1.7625885009765625,-1.0381819009780884
1715093185713226200,4.810226318359375,0.5924937129020691,2.7177915573120117,1.658082365989685
1715093185723175000,4.8201748046875,0.3509158790111542,3.220958709716797,2.711052417755127
1715093185733154300,4.830154296875,-0.8540116548538208,4.410122871398926,1.828315258026123
1715093185743133400,4.840133544921875,-0.8976216912269592,5.923697471618652,-0.226057231426239
1715093185753082400,4.850082275390625,0.30749619007110596,6.401134490966797,-1.3453947305679321
1715093185763061500,4.8600615234375,1.5607609748840332,5.166023254394531,-1.2847648859024048
1715093185773040600,4.87004052734375,2.1254425048828125,3.3983030319213867,-2.411757469177246
1715093185782989600,4.879989501953125,1.854844570159912,1.579127311706543,-5.106395721435547
1715093185792968700,4.88996875,0.1137690544128418,-0.8759088516235352,-8.202168464660645
1715093185802917400,4.89991748046875,-0.6605880260467529,-2.0623159408569336,-9.828761100769043
1715093185812896800,4.909896728515625,-0.6258900165557861,-0.5708656311035156,-10.189787864685059
1715093185822876000,4.9198759765625,-0.2567458152770996,1.2474088668823242,-8.707383155822754
1715093185832824600,4.929824462890625,1.419548511505127,3.2249670028686523,-5.559391975402832
1715093185842804000,4.939803955078125,2.9721431732177734,4.866488456726074,-3.7135415077209473
1715093185852783000,4.949783203125,4.142359733581543,5.810732841491699,-2.4206151962280273
1715093185862762500,4.959762451171875,4.258927345275879,6.032611846923828,-1.4032435417175293
1715093185872711200,4.969711181640625,3.284449577331543,5.3337249755859375,-0.8705228567123413
1715093185882690300,4.979690185546875,1.2533873319625854,3.9916210174560547,-0.10027766227722168
1715093185892669700,4.989669677734375,-0.3872331976890564,2.2716054916381836,0.9565855264663696
1715093185902618400,4.999618408203125,-1.3506536483764648,0.15075206756591797,1.44638192653656
1715093185912597800,5.00959765625,-2.0182297229766846,-2.0064315795898438,1.524086594581604
1715093185922577000,5.019576904296875,-1.6350277662277222,-3.227619171142578,1.623498797416687
1715093185932525600,5.029525634765625,-1.1994194984436035,-2.9467058181762695,1.9547621011734009
1715093185942505000,5.0395048828125,-0.7982764840126038,-1.7676315307617188,1.9935826063156128
1715093185952484000,5.049484130859375,-0.39642155170440674,-0.4854860305786133,1.47970449924469
1715093185962432800,5.059432861328125,-0.08669072389602661,0.5989952087402344,1.1612019538879395
1715093185972412200,5.069412109375,-0.1264744997024536,1.3814325332641602,1.1328200101852417
1715093185982391300,5.079391357421875,-0.11208570003509521,1.9583749771118164,1.3950430154800415
1715093185992340000,5.089340087890625,-0.14115452766418457,1.9717302322387695,1.833972454071045
1715093186002319400,5.0993193359375,0.5010225772857666,1.783151626586914,2.390690326690674
1715093186012298500,5.109298583984375,0.9171136617660522,1.4366483688354492,3.095759153366089
1715093186022247400,5.119247314453125,0.7733081579208374,0.8870887756347656,3.8505465984344482
1715093186032226600,5.1292265625,0.5603654384613037,0.19631099700927734,4.249392986297607
1715093186042205700,5.139205810546875,-0.09838235378265381,-0.6526527404785156,4.384454727172852
1715093186052154600,5.149154541015625,-0.5460474491119385,-1.3326940536499023,4.166750907897949
1715093186062133800,5.1591337890625,-0.7786551713943481,-1.8021955490112305,3.941279411315918
1715093186072113000,5.16911279296875,0.1369413137435913,-1.9467706680297852,3.2551684379577637
1715093186082061800,5.179061767578125,1.4102075099945068,-1.8757352828979492,2.3504278659820557
1715093186092041000,5.189041015625,2.6758129596710205,-1.5394935607910156,2.2390589714050293
1715093186101989600,5.19898974609375,5.061027526855469,-0.5811586380004883,1.7946772575378418
1715093186111969000,5.208968994140625,6.9998931884765625,0.7420873641967773,1.841176986694336
1715093186121948200,5.2189482421875,7.530089378356934,1.8561220169067383,2.459925413131714
1715093186131896800,5.228896728515625,7.347508430480957,2.6211109161376953,2.562649726867676
1715093186141876200,5.238876220703125,6.493433475494385,2.8364944458007812,2.216585159301758
1715093186151855400,5.24885546875,3.9024343490600586,1.723139762878418,1.4869199991226196
1715093186161834800,5.258834716796875,2.219329357147217,-0.17551612854003906,0.618027925491333
1715093186171814000,5.26881396484375,1.9169414043426514,-1.951986312866211,-0.41677308082580566
1715093186181762600,5.278762451171875,1.982496738433838,-3.080470085144043,-1.4496514797210693
1715093186191742000,5.288741943359375,3.5454752445220947,-2.9349842071533203,-1.2790734767913818
1715093186201721000,5.29872119140625,4.2426557540893555,-1.146986961364746,0.34075403213500977
1715093186211670000,5.308669921875,2.8974761962890625,0.20487403869628906,1.35201096534729
1715093186221649200,5.318649169921875,0.9667336940765381,0.9659862518310547,2.0253026485443115
1715093186231597800,5.328597900390625,0.45845675468444824,2.564716339111328,2.5350100994110107
1715093186241577200,5.3385771484375,-0.43558990955352783,3.579298973083496,1.4578025341033936
1715093186251556400,5.348556396484375,-1.1966865062713623,3.36476993560791,-0.6327681541442871
1715093186261505000,5.358505126953125,-1.4690618515014648,2.495020866394043,-2.726526975631714
1715093186271484400,5.368484375,-1.4955991506576538,1.1920652389526367,-4.448081970214844
1715093186281463600,5.378463623046875,-2.450347661972046,-1.1508913040161133,-6.970807075500488
1715093186291412200,5.388412109375,-4.027548789978027,-3.2077674865722656,-9.242244720458984
1715093186301391600,5.3983916015625,-5.334502696990967,-5.133606910705566,-10.922110557556152
1715093186311370800,5.408370849609375,-5.666857719421387,-7.8155717849731445,-12.335602760314941
1715093186321319700,5.418319580078125,-5.935375690460205,-10.922891616821289,-11.267627716064453
1715093186331298800,5.428298828125,-6.539251804351807,-13.377518653869629,-8.294012069702148
1715093186341278000,5.43827783203125,-7.761880874633789,-14.019882202148438,-3.6601040363311768
1715093186351227000,5.448226806640625,-9.769732475280762,-11.544594764709473,2.3878235816955566
1715093186361206000,5.4582060546875,-9.257769584655762,-6.380165100097656,8.82863998413086
1715093186371185400,5.468185302734375,-9.49886703491211,-3.256178855895996,8.699641227722168
1715093186381134000,5.478134033203125,-7.711437702178955,0.1476898193359375,9.220962524414062
1715093186391113200,5.48811328125,-3.637723922729492,2.608234405517578,9.091832160949707
1715093186401062000,5.498061767578125,-2.345395088195801,4.233794212341309,6.209122657775879
1715093186411041300,5.508041259765625,-3.4715428352355957,4.18631649017334,3.5041372776031494
1715093186421020400,5.5180205078125,-2.648308277130127,3.344265937805176,1.4660719633102417
1715093186430999800,5.527999755859375,-1.1973040103912354,3.0037689208984375,0.862352728843689
1715093186440948500,5.537948486328125,0.5901684761047363,3.0780906677246094,0.023880839347839355
1715093186450927600,5.547927734375,1.7833847999572754,3.428314208984375,-0.7081680297851562
1715093186460907000,5.557906982421875,1.746016025543213,3.9388608932495117,-0.8481395244598389
1715093186470886100,5.56788623046875,1.4027225971221924,4.233600616455078,-1.2953054904937744
1715093186480834800,5.577834716796875,0.7630335092544556,4.264665603637695,-1.4518903493881226
1715093186490814200,5.587814208984375,-0.06751096248626709,4.142683982849121,-1.186232328414917
1715093186500793300,5.59779345703125,-1.0997612476348877,3.699644088745117,-1.1142340898513794
1715093186510742300,5.6077421875,-1.685181736946106,3.077054023742676,-1.042837142944336
1715093186520721400,5.617721435546875,-2.3964858055114746,2.399630546569824,-1.6386747360229492
1715093186530700500,5.627700439453125,-2.7677102088928223,1.9400272369384766,-2.175778865814209
1715093186540649500,5.6376494140625,-2.5727362632751465,1.842264175415039,-2.418600082397461
1715093186550628600,5.647628662109375,-1.591081976890564,1.9775581359863281,-2.4227137565612793
1715093186560608000,5.65760791015625,-0.6882121562957764,2.0733156204223633,-2.787820816040039
1715093186570556700,5.667556640625,0.3600817918777466,2.3167648315429688,-2.838846206665039
1715093186580535800,5.677535888671875,1.3081142902374268,2.405442237854004,-2.6508116722106934
1715093186590484500,5.687484375,1.9393993616104126,2.5324058532714844,-2.201580286026001
1715093186600464000,5.6974638671875,2.1683905124664307,2.4896678924560547,-1.4722495079040527
1715093186610443000,5.707443115234375,2.0241804122924805,2.19431209564209,-0.5644907355308533
1715093186620392000,5.717391845703125,1.7444112300872803,1.926889419555664,1.1321380138397217
1715093186630371000,5.72737109375,1.64080810546875,1.9913244247436523,4.044132709503174
1715093186640350200,5.73735009765625,1.2880719900131226,1.556971549987793,6.400395393371582
1715093186650299100,5.747299072265625,0.9258296489715576,0.4531736373901367,7.197084426879883
1715093186660278300,5.7572783203125,0.29029369354248047,-1.3070087432861328,7.958600997924805
1715093186670257700,5.767257568359375,-0.3164736032485962,-3.7866430282592773,8.427733421325684
1715093186680206300,5.777206298828125,-1.5693471431732178,-6.294638633728027,6.310451507568359
1715093186690185500,5.787185546875,-3.480724334716797,-8.372705459594727,1.6109678745269775
1715093186700164900,5.797164794921875,-3.6786913871765137,-9.660914421081543,-3.1688485145568848
1715093186710113500,5.807113525390625,-0.32924866676330566,-10.088462829589844,-6.543421745300293
1715093186720092700,5.8170927734375,2.5558135509490967,-7.652788162231445,-5.793992042541504
1715093186730072000,5.827072021484375,2.5854339599609375,-1.5024604797363281,-1.423985481262207
1715093186740051200,5.83705126953125,3.1500182151794434,1.305459976196289,-0.0487113893032074
1715093186749999900,5.846999755859375,3.203092575073242,0.3457813262939453,2.2726175785064697
1715093186759979300,5.856979248046875,-0.6379634737968445,-0.35649681091308594,3.357058048248291
1715093186769958400,5.86695849609375,-0.12786519527435303,-0.7904882431030273,-0.22109103202819824
1715093186779907300,5.8769072265625,-2.3811769485473633,-6.193499565124512,-3.091813564300537
1715093186789886500,5.886886474609375,-6.846095085144043,-12.654987335205078,-4.884927272796631
1715093186799865600,5.896865478515625,-7.859160423278809,-12.156699180603027,-9.472856521606445
1715093186809814500,5.906814453125,-5.898808479309082,-4.860601425170898,-11.240200996398926
1715093186819793700,5.916793701171875,-2.995462417602539,1.2880802154541016,-5.915099143981934
1715093186829773000,5.92677294921875,-0.02980107069015503,2.6667747497558594,-2.341226100921631
1715093186839721700,5.9367216796875,1.909935712814331,3.387742042541504,0.3565494418144226
1715093186849700900,5.946700927734375,1.6723558902740479,3.780543327331543,1.7472202777862549
1715093186859680300,5.95668017578125,0.3332820534706116,3.9575729370117188,1.2667254209518433
1715093186869629000,5.96662890625,0.11767596006393433,4.498503684997559,0.0414150096476078
1715093186879608000,5.976608154296875,0.9431468844413757,4.500089645385742,-1.1767215728759766
1715093186889587500,5.98658740234375,2.2159156799316406,3.7914953231811523,-2.383836030960083
1715093186899536100,5.9965361328125,2.7138471603393555,2.9556922912597656,-4.267866134643555
1715093186909515300,6.006515380859375,2.360335350036621,1.6246604919433594,-5.609818935394287
1715093186919464200,6.016464111328125,0.7802917957305908,-0.21017742156982422,-6.556654453277588
1715093186929443300,6.026443359375,-0.21743303537368774,-0.4276132583618164,-6.6093621253967285
1715093186939422500,6.03642236328125,-1.8275513648986816,0.7661981582641602,-6.654499053955078
1715093186949371400,6.046371337890625,-1.2919607162475586,1.7306461334228516,-6.56187629699707
1715093186959350500,6.0563505859375,0.9017980098724365,3.0666675567626953,-3.163440704345703
1715093186969330000,6.066329833984375,2.43810772895813,3.8077564239501953,-2.318143367767334
1715093186979278600,6.076278564453125,3.627361297607422,4.053877830505371,-1.6927506923675537
1715093186989257700,6.0862578125,3.5943427085876465,4.022456169128418,-1.001986026763916
1715093186999237000,6.096237060546875,2.6666173934936523,4.025984764099121,-0.3970799446105957
1715093187009216300,6.10621630859375,1.1211732625961304,3.535154342651367,0.1897883415222168
1715093187019165000,6.1161650390625,-0.5466214418411255,2.6974544525146484,0.620278000831604
1715093187029144300,6.126144287109375,-1.030660629272461,1.326272964477539,0.48417890071868896
1715093187039123500,6.13612353515625,-1.3358094692230225,0.6915721893310547,2.001030921936035
1715093187049072000,6.146072021484375,-1.1458239555358887,-0.049719810485839844,2.6176133155822754
1715093187059051500,6.156051513671875,-0.7515267133712769,-0.46537208557128906,2.498878240585327
1715093187069030700,6.16603076171875,-0.3297722339630127,-0.29346752166748047,3.026048183441162
1715093187078979600,6.1759794921875,0.3535815477371216,0.12836647033691406,3.013057231903076
1715093187088958700,6.185958740234375,0.5670613050460815,0.4789247512817383,2.7123727798461914
1715093187098937900,6.195937744140625,0.42707741260528564,0.8411846160888672,2.5480198860168457
1715093187108886800,6.20588671875,-0.2514110803604126,0.8295354843139648,2.416727066040039
1715093187118866000,6.215865966796875,-0.41404974460601807,0.6444797515869141,2.2771925926208496
1715093187128845300,6.22584521484375,-0.3223855495452881,0.3480262756347656,2.0015649795532227
1715093187138794000,6.2357939453125,-0.16129159927368164,-0.11248970031738281,1.872129201889038
1715093187148773000,6.245773193359375,0.21161580085754395,-0.6535730361938477,1.8384602069854736
1715093187158752500,6.25575244140625,0.27434635162353516,-1.3015098571777344,1.5841987133026123
1715093187168701200,6.265701171875,1.8107314109802246,-1.4198627471923828,1.6272085905075073
1715093187178680300,6.275680419921875,3.350071668624878,-1.222752571105957,1.4432282447814941
1715093187188659700,6.28565966796875,4.30557918548584,-0.42237091064453125,1.3371838331222534
1715093187198608400,6.2956083984375,4.77687931060791,0.8291177749633789,1.1144884824752808
1715093187208587500,6.30558740234375,5.939796447753906,2.146512985229492,1.0539188385009766
1715093187218536400,6.315536376953125,7.500861167907715,2.8174829483032227,0.20801246166229248
1715093187228515600,6.325515625,7.244713306427002,2.457993507385254,-0.23619139194488525
1715093187238495000,6.335494873046875,6.125670433044434,1.570098876953125,-0.2437906265258789
1715093187248443600,6.345443603515625,4.413000583648682,0.17683982849121094,0.2777456045150757
1715093187258422800,6.3554228515625,3.313689947128296,-1.2322196960449219,0.6554944515228271
1715093187268402200,6.365402099609375,2.6697893142700195,-2.6792240142822266,0.3296928405761719
1715093187278350800,6.375350830078125,3.3535666465759277,-3.425149917602539,-0.51938796043396
1715093187288330000,6.385330078125,3.90928316116333,-3.188897132873535,-0.1790158748626709
1715093187298309400,6.395309326171875,3.1527466773986816,-1.9461374282836914,1.536826252937317
1715093187308288500,6.40528857421875,3.068448543548584,-2.629704475402832,2.5312042236328125
1715093187318237200,6.4152373046875,2.2311060428619385,-1.4332551956176758,3.724761962890625
1715093187328216600,6.425216552734375,-0.4832286834716797,-0.1046457290649414,3.663024425506592
1715093187338195700,6.43519580078125,-2.910330295562744,0.9766340255737305,3.0090725421905518
1715093187348144600,6.44514453125,-3.0914230346679688,2.2944154739379883,1.8306055068969727
1715093187358123800,6.455123779296875,-2.5565145015716553,2.8006505966186523,-0.873121976852417
1715093187368103000,6.46510302734375,-2.295747756958008,2.3051443099975586,-4.057192802429199
1715093187378051800,6.4750517578125,-3.0498316287994385,0.69476318359375,-7.0864763259887695
1715093187388031000,6.485031005859375,-3.8504297733306885,-1.8354129791259766,-10.007740020751953
1715093187398010000,6.495010009765625,-3.9464263916015625,-3.9023895263671875,-12.0272798538208
1715093187407959000,6.504958984375,-3.2993624210357666,-6.353756904602051,-14.220460891723633
1715093187417938200,6.514938232421875,-3.2947189807891846,-9.467209815979004,-14.755023002624512
1715093187427917600,6.52491748046875,-4.551173686981201,-11.274704933166504,-11.415258407592773
1715093187437866200,6.5348662109375,-5.481259346008301,-11.66192626953125,-5.79126501083374
1715093187447845400,6.544845458984375,-7.104928493499756,-11.056151390075684,0.10126829147338867
1715093187457824800,6.55482470703125,-9.198987007141113,-7.749232292175293,6.013964653015137
1715093187467773400,6.5647734375,-10.087976455688477,-4.288847923278809,9.918895721435547
1715093187477752600,6.574752685546875,-11.2853422164917,-1.6232843399047852,10.825613975524902
1715093187487732000,6.58473193359375,-8.337835311889648,1.0753288269042969,11.917566299438477
1715093187497680600,6.5946806640625,-4.608827114105225,3.3226099014282227,10.618717193603516
1715093187507659800,6.60465966796875,-3.2119531631469727,4.342953681945801,7.591354846954346
1715093187517639200,6.61463916015625,-2.5962905883789062,3.6828651428222656,4.299056053161621
1715093187527587800,6.624587890625,-0.8474804162979126,3.111708641052246,2.798813819885254
1715093187537567200,6.634567138671875,0.858954668045044,3.050450325012207,2.0369348526000977
1715093187547516000,6.644515869140625,2.6064021587371826,3.4040346145629883,1.0024571418762207
1715093187557495000,6.6544951171875,3.6352052688598633,3.8179759979248047,0.015478670597076416
1715093187567474400,6.664474365234375,3.364610195159912,3.8925294876098633,-1.067323923110962
1715093187577453600,6.67445361328125,2.3412623405456543,3.9844017028808594,-2.3026351928710938
1715093187587402200,6.68440234375,1.0276544094085693,4.060506820678711,-2.885222911834717
1715093187597381600,6.694381591796875,-0.3662954568862915,3.924027442932129,-3.031188726425171
1715093187607360800,6.70436083984375,-1.4426642656326294,3.4197025299072266,-3.239180564880371
1715093187617340200,6.714340087890625,-2.1785712242126465,2.83243465423584,-3.514676094055176
1715093187627288800,6.724288818359375,-2.882251262664795,2.344510078430176,-3.884927988052368
1715093187637268000,6.73426806640625,-2.8348710536956787,2.3016557693481445,-3.920081615447998
1715093187647247400,6.744247314453125,-2.483532428741455,2.3257522583007812,-3.925446033477783
1715093187657196000,6.754196044921875,-1.4478377103805542,2.3884925842285156,-3.642096996307373
1715093187667175200,6.764175048828125,-0.33310043811798096,2.167670249938965,-3.361056327819824
1715093187677154600,6.774154541015625,0.7776702642440796,1.8295650482177734,-3.028547763824463
1715093187687103200,6.784103271484375,1.491274118423462,1.8872575759887695,-2.070903778076172
1715093187697082600,6.79408251953125,1.6513848304748535,1.60955810546875,-1.0452405214309692
1715093187707061800,6.804061767578125,1.4743634462356567,0.5896835327148438,-0.19805938005447388
1715093187717010400,6.814010498046875,1.4555530548095703,0.9032220840454102,1.7697861194610596
1715093187726989800,6.82398974609375,1.4468865394592285,1.1785993576049805,3.8105289936065674
1715093187736938500,6.8339384765625,1.2420017719268799,1.260685920715332,6.280686378479004
1715093187746917600,6.843917724609375,0.9315518140792847,0.46394920349121094,7.955981731414795
1715093187756897000,6.85389697265625,0.4524584412574768,-0.89288330078125,8.476386070251465
1715093187766845700,6.863845703125,0.3632829189300537,-2.184112548828125,7.955801486968994
1715093187776824800,6.873824951171875,0.012390851974487305,-3.4709110260009766,5.238173484802246
1715093187786804200,6.88380419921875,-0.4960286617279053,-4.260440826416016,1.2959818840026855
1715093187796753000,6.8937529296875,0.2539794445037842,-5.604107856750488,-2.7318649291992188
1715093187806732000,6.90373193359375,1.0796505212783813,-7.534517288208008,-6.263051509857178
1715093187816711400,6.91371142578125,1.2152167558670044,-8.462077140808105,-5.976422309875488
1715093187826660000,6.92366015625,-2.2728071212768555,-8.986653327941895,-5.068963050842285
1715093187836639500,6.933639404296875,-0.22624576091766357,-7.624105453491211,-3.4324755668640137
1715093187846618600,6.94361865234375,-2.5959882736206055,-4.797003746032715,-1.715097427368164
1715093187856567300,6.9535673828125,0.7317911982536316,-4.919365882873535,0.21523518860340118
1715093187866546700,6.963546630859375,-0.5120667219161987,-6.8990373611450195,-0.4523880183696747
1715093187876525800,6.97352587890625,-2.823937177658081,-4.603198051452637,-2.871080160140991
1715093187886505200,6.983505126953125,-4.145172595977783,-1.0906143188476562,-5.737788677215576
1715093187896454000,6.993453857421875,-5.025247097015381,0.6954860687255859,-3.846015691757202
1715093187906433000,7.00343310546875,-3.986274003982544,-0.13363933563232422,-0.36793720722198486
1715093187916412400,7.013412353515625,-1.0689325332641602,-0.978907585144043,2.633934497833252
1715093187926361000,7.023361083984375,0.27864816784858704,-0.7689599990844727,4.0119500160217285
1715093187936340200,7.03334033203125,0.10588541626930237,0.6791410446166992,2.9119315147399902
1715093187946319600,7.043319580078125,0.22382384538650513,2.3096866607666016,1.1973096132278442
1715093187956268300,7.053268310546875,0.9485154747962952,2.562610626220703,-0.15520507097244263
1715093187966247400,7.063247314453125,2.3829283714294434,2.2849740982055664,-2.666335344314575
1715093187976226800,7.073226806640625,2.960502862930298,2.37369441986084,-5.614875793457031
1715093187986175500,7.083175537109375,2.3936424255371094,2.47275447845459,-7.659337043762207
1715093187996155000,7.09315478515625,1.124427318572998,2.1192455291748047,-8.509214401245117
1715093188006134000,7.103134033203125,-0.27110666036605835,1.910904884338379,-8.408035278320312
1715093188016082700,7.113082763671875,-0.5613945722579956,2.4348106384277344,-7.288949012756348
1715093188026062000,7.12306201171875,0.7792748212814331,3.9096059799194336,-6.094804286956787
1715093188036041200,7.133041259765625,2.603719711303711,5.105107307434082,-4.754741191864014
1715093188045990000,7.142989990234375,4.174265384674072,5.597899436950684,-3.6107165813446045
1715093188055969300,7.15296923828125,4.738029479980469,5.7768754959106445,-2.4803967475891113
1715093188065918000,7.16291796875,3.851409912109375,5.047924995422363,-1.4618229866027832
1715093188075897000,7.17289697265625,2.5134987831115723,4.097603797912598,0.07909238338470459
1715093188085876500,7.18287646484375,1.4613004922866821,2.8368778228759766,1.5133728981018066
1715093188095825200,7.1928251953125,0.4282076358795166,1.183701515197754,2.7487430572509766
1715093188105804500,7.202804443359375,-0.6618685722351074,-0.4554462432861328,3.847452163696289
1715093188115783700,7.21278369140625,-1.7244830131530762,-1.7894248962402344,4.192819118499756
1715093188125732400,7.222732421875,-2.5156948566436768,-2.3682594299316406,4.105535984039307
1715093188135711700,7.232711669921875,-2.8873291015625,-1.9214277267456055,3.856659412384033
1715093188145691000,7.24269091796875,-2.6478524208068848,-1.0340642929077148,3.0322465896606445
1715093188155670300,7.252670166015625,-2.1532158851623535,-0.0682973861694336,2.406074285507202
1715093188165619000,7.262618896484375,-1.5380462408065796,0.5834360122680664,1.9074432849884033
1715093188175598000,7.27259814453125,-0.9638921022415161,0.6915597915649414,1.5876373052597046
1715093188185577500,7.282577392578125,0.10147881507873535,0.6651420593261719,1.1537314653396606
1715093188195526100,7.292526123046875,0.9953240156173706,0.46370601654052734,0.9639103412628174
1715093188205505300,7.30250537109375,1.9271317720413208,0.34593772888183594,0.8819581270217896
1715093188215484700,7.312484619140625,2.2334859371185303,0.17864322662353516,0.7038615942001343
1715093188225433300,7.322433349609375,1.9479312896728516,0.1464252471923828,0.5818138122558594
1715093188235412500,7.33241259765625,1.6495616436004639,0.13921737670898438,0.27572011947631836
1715093188245392000,7.342391845703125,1.5131289958953857,0.050685882568359375,-0.057203054428100586
1715093188255340500,7.352340576171875,2.876736640930176,0.2679319381713867,0.09258365631103516
1715093188265319700,7.362319580078125,4.860983848571777,0.6268062591552734,0.04415309429168701
1715093188275299000,7.372299072265625,6.719903945922852,1.4099035263061523,-0.01837003231048584
1715093188285247700,7.382247802734375,7.849104881286621,2.240145683288574,0.29672718048095703
1715093188295227100,7.39222705078125,8.443153381347656,2.7038068771362305,0.7060129642486572
1715093188305206300,7.402206298828125,7.964744567871094,2.7381792068481445,1.2859667539596558
1715093188315155000,7.412155029296875,6.76483678817749,2.220144271850586,2.062514543533325
1715093188325134300,7.42213427734375,4.783177375793457,0.780888557434082,2.1768269538879395
1715093188335113500,7.432113525390625,2.939805507659912,-1.44036865234375,1.96249258518219
1715093188345062100,7.442062255859375,1.5877606868743896,-3.9673948287963867,0.5333056449890137
1715093188355041500,7.45204150390625,3.283756732940674,-5.43696403503418,-0.2065446376800537
1715093188365020700,7.462020751953125,4.9935383796691895,-4.852006912231445,1.3479865789413452
1715093188374969300,7.47196923828125,3.06036114692688,-2.37005615234375,4.198866844177246
1715093188384948700,7.48194873046875,0.29090237617492676,-0.36285400390625,6.236262321472168
1715093188394897400,7.4918974609375,-0.39902806282043457,0.39069271087646484,6.798727989196777
1715093188404876800,7.501876708984375,-1.7322967052459717,1.1845293045043945,6.243780136108398
1715093188414856000,7.51185595703125,-2.4346234798431396,1.581711769104004,3.559900999069214
1715093188424804600,7.5218046875,-2.55971097946167,2.1385183334350586,0.19053959846496582
1715093188434784000,7.531783935546875,-1.6292109489440918,1.9713811874389648,-3.831256628036499
1715093188444763100,7.54176318359375,-1.4185631275177002,0.6759271621704102,-7.375304222106934
1715093188454742500,7.551742431640625,-2.1389260292053223,-1.7875843048095703,-10.299449920654297
1715093188464721700,7.5617216796875,-2.855900287628174,-5.089153289794922,-13.66524600982666
1715093188474670300,7.57167041015625,-3.7293670177459717,-7.982062339782715,-16.197120666503906
1715093188484649700,7.581649658203125,-4.022919178009033,-11.380718231201172,-17.21725845336914
1715093188494628900,7.59162890625,-4.259659290313721,-12.142536163330078,-13.50855541229248
1715093188504577500,7.60157763671875,-6.708390235900879,-11.823500633239746,-5.620567798614502
1715093188514557000,7.611556884765625,-7.859307289123535,-11.6411771774292,2.7537622451782227
1715093188524505600,7.621505615234375,-8.314446449279785,-9.097325325012207,7.643215179443359
1715093188534484700,7.631484619140625,-9.187779426574707,-3.543905258178711,11.903219223022461
1715093188544464100,7.641464111328125,-11.117331504821777,-1.164236068725586,9.593568801879883
1715093188554412800,7.651412841796875,-7.688568115234375,1.4227914810180664,9.690549850463867
1715093188564392200,7.66139208984375,-4.499995231628418,3.225123405456543,8.15278434753418
1715093188574371300,7.671371337890625,-2.280881643295288,4.36966609954834,6.566832542419434
1715093188584320000,7.681320068359375,-0.8913782835006714,3.7106189727783203,3.6481165885925293
1715093188594299400,7.69129931640625,-0.9055415391921997,2.898430824279785,1.7709518671035767
1715093188604278500,7.701278564453125,-0.2896866798400879,2.2478065490722656,0.29425978660583496
1715093188614227200,7.711227294921875,0.6489495038986206,2.2376251220703125,-0.8370952606201172
1715093188624206600,7.72120654296875,1.7347549200057983,2.249711036682129,-1.8980071544647217
1715093188634185700,7.731185791015625,2.3085989952087402,2.7334671020507812,-2.0892350673675537
1715093188644134400,7.741134521484375,1.9987183809280396,3.509157180786133,-2.598912000656128
1715093188654113800,7.75111376953125,1.435288429260254,4.535368919372559,-2.9920618534088135
1715093188664093000,7.761093017578125,0.5479470491409302,5.166866302490234,-3.026132345199585
1715093188674041900,7.771041748046875,-0.43198156356811523,5.224327087402344,-3.0938193798065186
1715093188684021000,7.78102099609375,-0.9802156686782837,4.870500564575195,-3.110990047454834
1715093188693969700,7.7909697265625,-1.3339710235595703,4.300684928894043,-3.135241985321045
1715093188703949000,7.800948974609375,-1.4983187913894653,3.919327735900879,-3.354097843170166
1715093188713928200,7.81092822265625,-1.5812456607818604,3.5501022338867188,-3.405266523361206
1715093188723907300,7.8209072265625,-1.393815040588379,3.307990074157715,-2.9529967308044434
1715093188733856300,7.830856201171875,-0.8071950674057007,3.1970443725585938,-2.529592275619507
1715093188743835400,7.84083544921875,0.33399856090545654,2.900951385498047,-2.2132883071899414
1715093188753814800,7.850814697265625,1.5034031867980957,2.8563766479492188,-1.9132088422775269
1715093188763794000,7.8607939453125,2.1536712646484375,2.8186445236206055,-1.2263416051864624
1715093188773742600,7.87074267578125,2.3404898643493652,2.259831428527832,-0.26894623041152954
1715093188783722000,7.880721923828125,2.1045079231262207,1.4465627670288086,1.2166845798492432
1715093188793701000,7.890701171875,1.962875247001648,1.211172103881836,4.175551414489746
1715093188803649800,7.90064990234375,1.818623423576355,0.9937200546264648,7.132261276245117
1715093188813629200,7.910629150390625,1.0624456405639648,-0.7035999298095703,7.704457759857178
1715093188823608300,7.9206083984375,0.4301266670227051,-2.461793899536133,8.79565143585205
1715093188833557000,7.930556884765625,-0.6209777593612671,-3.917984962463379,8.10589599609375
1715093188843536400,7.940536376953125,-1.3865689039230347,-5.285719871520996,5.530747890472412
1715093188853515500,7.950515625,-1.5083609819412231,-5.992670059204102,1.7003554105758667
1715093188863464400,7.96046435546875,-2.0420079231262207,-6.588770866394043,-2.9699723720550537
1715093188873443600,7.970443603515625,-0.4418753385543823,-6.945943832397461,-5.732966423034668
1715093188883392300,7.980392333984375,4.374361038208008,-5.328647613525391,-4.309201240539551
1715093188893371600,7.99037158203125,3.303035020828247,-1.7602672576904297,0.7277540564537048
1715093188903350800,8.000350830078125,1.0112802982330322,-1.8235082626342773,2.2598047256469727
1715093188913299500,8.010299560546875,0.1623908281326294,-7.304451942443848,0.922848105430603
1715093188923278800,8.02027880859375,-0.6462956070899963,-11.500595092773438,-0.9358428716659546
1715093188933258000,8.030258056640625,-4.7075676918029785,-11.359731674194336,-5.556845188140869
1715093188943206700,8.04020654296875,-7.3854827880859375,-8.90700912475586,-8.155082702636719
1715093188953186000,8.05018603515625,-2.178696393966675,-3.2086143493652344,-7.200080871582031
1715093188963165200,8.060165283203125,-0.6389382481575012,3.544281005859375,-6.4759674072265625
1715093188973114000,8.070114013671875,-1.897655963897705,5.45530891418457,-2.8218228816986084
1715093188983093200,8.08009326171875,-2.281947612762451,3.707948684692383,0.4982978105545044
1715093188993072400,8.090072265625,-1.5624920129776,0.9613847732543945,2.1642463207244873
1715093189003051800,8.1000517578125,-1.391938328742981,-1.573068618774414,2.5766453742980957
1715093189013000400,8.11000048828125,-2.365741014480591,-2.478264808654785,2.18237566947937
1715093189022979800,8.119979736328125,-2.8026113510131836,-2.2777204513549805,0.7842391729354858
1715093189032959000,8.129958984375,-1.866483449935913,-2.345243453979492,-1.1685881614685059
1715093189042907600,8.13990771484375,0.4664906859397888,-1.672943115234375,-3.473390817642212
1715093189052887000,8.149886962890625,2.218647003173828,-0.5235271453857422,-5.101823806762695
1715093189062866200,8.1598662109375,2.9608395099639893,0.8418493270874023,-7.311391353607178
1715093189072814800,8.16981494140625,1.8552815914154053,2.1234798431396484,-9.29935359954834
1715093189082794200,8.179794189453125,0.9643146991729736,3.066143035888672,-9.581572532653809
1715093189092773400,8.1897734375,1.208220362663269,4.217644691467285,-7.290739059448242
1715093189102722000,8.19972216796875,1.5444536209106445,5.104914665222168,-5.110149383544922
1715093189112701400,8.209701416015625,2.1301329135894775,5.743930816650391,-3.07228422164917
1715093189122680600,8.2196806640625,2.5817618370056152,5.806674957275391,-1.9544975757598877
1715093189132629500,8.22962939453125,3.0160655975341797,5.284244537353516,-1.6263891458511353
1715093189142608600,8.239608642578125,2.7586092948913574,3.7357940673828125,-1.753328561782837
1715093189152587800,8.249587890625,2.4357473850250244,2.2877302169799805,-1.8013017177581787
1715093189162536700,8.25953662109375,1.1773006916046143,1.0684375762939453,-1.6702402830123901
1715093189172515800,8.269515869140625,0.5392946004867554,-0.1154336929321289,-2.177877187728882
1715093189182495000,8.279494873046875,-0.860725998878479,-1.0009384155273438,-1.9939136505126953
1715093189192444000,8.28944384765625,-0.5715748071670532,-1.0911531448364258,-1.528058409690857
1715093189202423000,8.299423095703125,-0.01965618133544922,-0.6774053573608398,-1.0167149305343628
1715093189212402400,8.30940234375,-0.34279847145080566,-0.36827850341796875,0.05901050567626953
1715093189222351000,8.31935107421875,-0.24506711959838867,0.33444786071777344,1.2661092281341553
1715093189232330200,8.329330322265625,0.39408397674560547,1.0985746383666992,2.2985787391662598
1715093189242309600,8.3393095703125,0.6643757820129395,1.2219467163085938,2.6302318572998047
1715093189252258300,8.34925830078125,0.9745246171951294,1.429595947265625,2.901252269744873
1715093189262237400,8.359237548828125,0.6717404127120972,1.5359563827514648,2.9250073432922363
1715093189272216800,8.369216796875,1.3226640224456787,1.807795524597168,2.503936529159546
1715093189282165500,8.37916552734375,2.5782227516174316,2.2152013778686523,2.56227445602417
1715093189292144600,8.38914453125,3.2072417736053467,2.2802772521972656,3.466207981109619
1715093189302124000,8.3991240234375,3.005916118621826,2.045726776123047,4.214648246765137
1715093189312103200,8.409103271484375,2.4365408420562744,1.3371295928955078,4.386821746826172
1715093189322052000,8.419052001953125,2.074007034301758,0.5690584182739258,4.785388946533203
1715093189332031200,8.42903125,1.5025475025177002,-0.1553173065185547,5.154504776000977
1715093189342010400,8.43901025390625,2.2326793670654297,-0.48049163818359375,4.974665641784668
1715093189351959300,8.448959228515625,2.8389627933502197,-0.5420541763305664,4.1390886306762695
1715093189361938400,8.4589384765625,3.806905746459961,-0.21202850341796875,3.579124927520752
1715093189371917800,8.468917724609375,3.9407284259796143,-0.17001628875732422,3.76377534866333
1715093189381866500,8.478866455078125,4.431346893310547,0.008175849914550781,3.3388071060180664
1715093189391845600,8.488845703125,4.120328903198242,0.1909799575805664,3.4837560653686523
1715093189401825000,8.498824951171875,3.037088632583618,-0.3333921432495117,3.339533805847168
1715093189411773700,8.508773681640625,2.889519453048706,-1.6136474609375,2.4122962951660156
1715093189421752800,8.5187529296875,2.9543652534484863,-3.304920196533203,1.0878251791000366
1715093189431732200,8.528732177734375,3.6056225299835205,-4.051115036010742,-0.1079707145690918
1715093189441681000,8.538680908203125,5.702502727508545,-3.704068183898926,-0.14699554443359375
1715093189451660000,8.548659912109375,6.2004547119140625,-2.528336524963379,0.1880049705505371
1715093189461639400,8.558639404296875,3.359156608581543,-0.6773452758789062,0.836761474609375
1715093189471588000,8.568588134765625,0.47902345657348633,-1.0037765502929688,0.1857762336730957
1715093189481567500,8.5785673828125,0.23642468452453613,1.1064424514770508,1.479776382446289
1715093189491516200,8.58851611328125,-1.0938544273376465,2.229071617126465,0.8757495880126953
1715093189501495300,8.598495361328125,-1.2006984949111938,2.59161376953125,-1.1456899642944336
1715093189511474700,8.608474609375,-0.7280920743942261,2.3039493560791016,-2.8402881622314453
1715093189521423400,8.61842333984375,-0.6817376613616943,1.2498283386230469,-4.89213752746582
1715093189531402500,8.628402587890625,-1.7519590854644775,-0.27031421661376953,-8.64773941040039
1715093189541382000,8.6383818359375,-3.110746383666992,-1.7218656539916992,-11.589513778686523
1715093189551330600,8.64833056640625,-3.0420444011688232,-3.513918876647949,-13.286328315734863
1715093189561309700,8.658309814453125,-2.14860200881958,-6.066980361938477,-14.133721351623535
1715093189571289000,8.6682890625,-3.311889886856079,-8.350452423095703,-11.511528968811035
1715093189581268200,8.678268310546875,-3.7053284645080566,-10.87200927734375,-7.8425703048706055
1715093189591217000,8.688216796875,-4.395002841949463,-11.928304672241211,-2.052548408508301
1715093189601196300,8.6981962890625,-7.061520099639893,-11.214998245239258,2.5607266426086426
1715093189611175400,8.708175537109375,-10.183114051818848,-8.092242240905762,6.403229713439941
1715093189621124400,8.718124267578125,-12.574420928955078,-4.223149299621582,11.646599769592285
1715093189631103500,8.728103515625,-9.768592834472656,-1.9471435546875,10.485722541809082
1715093189641082600,8.73808251953125,-5.10800838470459,1.3076906204223633,11.253952026367188
1715093189651031600,8.748031494140625,-3.0176639556884766,3.1407957077026367,9.492198944091797
1715093189661010700,8.7580107421875,-1.8278460502624512,3.1901092529296875,6.238534450531006
1715093189670990000,8.767989990234375,-1.4591823816299438,2.1995086669921875,3.183002471923828
1715093189680938800,8.777938720703125,0.23429691791534424,1.7389335632324219,1.2535018920898438
1715093189690918000,8.78791796875,1.6359220743179321,1.5010652542114258,-0.6349335312843323
1715093189700897300,8.797897216796875,3.519432783126831,1.8578462600708008,-1.7875044345855713
1715093189710846000,8.807845947265625,3.8053250312805176,2.3800926208496094,-2.9017486572265625
1715093189720825000,8.8178251953125,2.7437312602996826,3.190548896789551,-3.793626308441162
1715093189730804500,8.827804443359375,1.4773157835006714,4.616704940795898,-4.041686058044434
1715093189740753200,8.837753173828125,0.18597650527954102,5.6328229904174805,-4.309072017669678
1715093189750732300,8.847732177734375,-0.7131954431533813,5.884533882141113,-4.516481399536133
1715093189760711700,8.857711669921875,-1.238205075263977,5.5944366455078125,-4.243653774261475
1715093189770660400,8.867660400390625,-1.6015920639038086,5.042159080505371,-4.058326244354248
1715093189780639700,8.8776396484375,-1.908079743385315,4.614458084106445,-4.122729301452637
1715093189790619000,8.887618896484375,-2.0075583457946777,4.314866065979004,-4.128412246704102
1715093189800567600,8.897567626953125,-1.4698134660720825,4.093020439147949,-3.6221745014190674
1715093189810547000,8.907546875,-0.14155566692352295,4.066649436950684,-2.997850179672241
1715093189820526000,8.917526123046875,1.6121426820755005,4.139970779418945,-2.700009346008301
1715093189830474800,8.927474853515625,2.4592812061309814,3.7888879776000977,-2.369647741317749
1715093189840454100,8.9374541015625,2.650394916534424,3.4565372467041016,-1.6271837949752808
1715093189850433300,8.947433349609375,2.454406499862671,2.3843135833740234,-1.120078444480896
1715093189860382000,8.9573818359375,2.4518022537231445,1.5848979949951172,0.6744204759597778
1715093189870361300,8.967361328125,2.569998264312744,1.559248924255371,3.8919663429260254
1715093189880340500,8.977340576171875,1.7941652536392212,0.3023681640625,5.63613224029541
1715093189890320000,8.98731982421875,1.1355621814727783,-1.6802902221679688,7.350528717041016
1715093189900268500,8.9972685546875,0.9376223087310791,-3.978764533996582,8.724003791809082
1715093189910247700,9.00724755859375,0.8227635025978088,-6.56589412689209,8.892858505249023
1715093189920227000,9.01722705078125,0.03258967399597168,-8.65773868560791,8.03425407409668
1715093189930175700,9.02717578125,-1.916962742805481,-8.406168937683105,3.3330044746398926
1715093189940155100,9.037155029296875,-4.680222034454346,-7.258762359619141,-1.770081639289856
1715093189950134300,9.04713427734375,-2.8569416999816895,-6.244320869445801,-4.4158806800842285
1715093189960083000,9.0570830078125,2.1501221656799316,-5.419290542602539,-6.813787460327148
1715093189970062300,9.067062255859375,5.820672988891602,-2.74619197845459,-6.089654445648193
1715093189980041500,9.07704150390625,3.877574920654297,-0.15350723266601562,-1.765777587890625
1715093189989990100,9.086990234375,1.8783025741577148,-3.5044002532958984,0.6776421070098877
1715093189999969500,9.096969482421875,2.134324312210083,-6.158888816833496,0.7234150171279907
1715093190009948700,9.10694873046875,-3.5251832008361816,-5.642472267150879,-0.3879619538784027
1715093190019897300,9.1168974609375,-5.605428218841553,-7.191556930541992,-2.5134153366088867
1715093190029876700,9.126876708984375,-7.916504859924316,-10.705720901489258,-1.822463870048523
1715093190039855900,9.13685595703125,-9.19944953918457,-7.071239471435547,-3.903505802154541
1715093190049804500,9.146804443359375,-4.5327019691467285,-0.9841222763061523,-5.329606533050537
1715093190059784000,9.156783935546875,-1.854536771774292,1.4723291397094727,-3.29841947555542
1715093190069732600,9.166732666015625,0.6134556531906128,2.1524600982666016,0.044697344303131104
1715093190079712000,9.1767119140625,1.9575988054275513,2.848484992980957,2.1483006477355957
1715093190089691100,9.186691162109375,1.4068418741226196,4.0383501052856445,1.5012104511260986
1715093190099639800,9.196639892578125,0.5925472378730774,5.533212661743164,-0.038026899099349976
1715093190109619200,9.206619140625,0.5920880436897278,6.382084846496582,-0.22910591959953308
1715093190119598300,9.216598388671875,0.5329993963241577,4.374238967895508,-1.606961727142334
1715093190129547000,9.226547119140625,1.0939902067184448,2.581843376159668,-4.1526336669921875
1715093190139526400,9.2365263671875,0.9355891942977905,0.9741230010986328,-7.472249984741211
1715093190149505500,9.246505615234375,-0.14072072505950928,-0.9161348342895508,-9.3421049118042
1715093190159485000,9.25648486328125,-0.38005518913269043,-2.101268768310547,-9.289508819580078
1715093190169433600,9.26643359375,-0.5493119955062866,-1.9953031539916992,-8.638810157775879
1715093190179412700,9.276412841796875,0.32135438919067383,0.2861204147338867,-7.444032669067383
1715093190189392100,9.28639208984375,2.082592010498047,3.5103797912597656,-4.074458599090576
1715093190199340800,9.2963408203125,3.5026512145996094,5.678321838378906,-2.526273250579834
1715093190209320000,9.30631982421875,4.592536926269531,5.9952497482299805,-2.7700047492980957
1715093190219299300,9.31629931640625,5.8065690994262695,7.142325401306152,-0.5702483057975769
1715093190229248000,9.326248046875,4.1959357261657715,5.7599992752075195,-0.70270174741745
1715093190239227400,9.336227294921875,2.1148507595062256,3.456963539123535,-0.09712105989456177
1715093190249206500,9.34620654296875,0.26522624492645264,1.2922000885009766,1.792467713356018
1715093190259155200,9.3561552734375,-0.2711026668548584,-0.7398595809936523,3.3251214027404785
1715093190269134600,9.366134521484375,-0.7790637016296387,-2.4267730712890625,3.877307415008545
1715093190279113700,9.37611376953125,-0.9878726005554199,-3.1914873123168945,4.018458843231201
1715093190289062400,9.3860625,-1.1983587741851807,-2.56817626953125,3.8409652709960938
1715093190299041800,9.396041748046875,-1.5482951402664185,-1.372603416442871,3.495309352874756
1715093190309021000,9.40602099609375,-1.730219841003418,-0.36161041259765625,3.1020493507385254
1715093190318969600,9.415969482421875,-1.3794687986373901,0.6273660659790039,2.7499823570251465
1715093190328949000,9.425948974609375,-1.030063509941101,1.1192340850830078,2.3764266967773438
1715093190338928000,9.43592822265625,-0.6973748207092285,1.1030569076538086,1.8313920497894287
1715093190348877000,9.445876953125,-0.3843637704849243,0.9668092727661133,1.7795093059539795
1715093190358856200,9.455856201171875,0.1498699188232422,0.5171566009521484,2.0296738147735596
1715093190368835300,9.46583544921875,0.43262696266174316,0.03839588165283203,2.2333250045776367
1715093190378784300,9.4757841796875,1.2394691705703735,-0.33982276916503906,2.712564468383789
1715093190388763400,9.485763427734375,1.7387663125991821,-0.5576515197753906,2.746640205383301
1715093190398712000,9.495712158203125,2.353980541229248,-0.44651222229003906,2.564629316329956
1715093190408691500,9.50569140625,3.5187158584594727,0.03119182586669922,2.0095722675323486
1715093190418670600,9.515670654296875,4.752102851867676,0.6916599273681641,1.3660534620285034
1715093190428619300,9.525619384765625,6.024568557739258,1.3181562423706055,1.149429440498352
1715093190438598700,9.5355986328125,6.929670333862305,1.8535881042480469,1.3694007396697998
1715093190448577800,9.545577880859375,7.03297233581543,2.1088132858276367,1.5327211618423462
1715093190458557200,9.55555712890625,6.558065414428711,1.7442855834960938,0.8972572088241577
1715093190468536300,9.565536376953125,4.672151565551758,1.0461645126342773,0.3101467490196228
1715093190478485000,9.575485107421875,2.8552796840667725,-0.8746767044067383,0.5181313157081604
1715093190488464400,9.58546435546875,2.1823570728302,-3.081045150756836,0.3488543629646301
1715093190498443500,9.595443603515625,2.2459990978240967,-4.425716400146484,-0.5551823973655701
1715093190508392200,9.60539208984375,2.8171539306640625,-4.569241523742676,-0.6878788471221924
1715093190518371600,9.61537158203125,3.69020938873291,-3.871694564819336,0.8678380250930786
1715093190528320300,9.6253203125,3.345153570175171,-2.9468631744384766,2.9622578620910645
1715093190538299600,9.635299560546875,1.3248605728149414,-1.6015253067016602,4.685400009155273
1715093190548278800,9.64527880859375,0.16655850410461426,-1.1535930633544922,4.820817470550537
1715093190558227500,9.6552275390625,-0.9053686857223511,0.6664180755615234,4.84697151184082
1715093190568206800,9.665206787109375,-1.1048798561096191,2.317625045776367,3.5545332431793213
1715093190578186000,9.67518603515625,-0.2850273847579956,3.1153573989868164,1.1272598505020142
1715093190588134700,9.685134765625,0.3609873056411743,3.044527053833008,-1.574010968208313
1715093190598114000,9.695114013671875,0.2534191608428955,1.9159183502197266,-4.491500377655029
1715093190608093200,9.70509326171875,-1.1213266849517822,0.4035043716430664,-8.674938201904297
1715093190618041900,9.715041748046875,-2.9205727577209473,-1.175811767578125,-11.594526290893555
1715093190628021200,9.725021240234375,-4.039041996002197,-3.3895130157470703,-13.74040412902832
1715093190638000400,9.73500048828125,-4.146934986114502,-6.093480110168457,-14.61098575592041
1715093190647949300,9.74494921875,-4.748959541320801,-8.072341918945312,-13.124473571777344
1715093190657928400,9.754928466796875,-5.27618932723999,-9.016793251037598,-8.442850112915039
1715093190667907600,9.764907470703125,-5.8734025955200195,-8.54683780670166,-1.2779589891433716
1715093190677856500,9.7748564453125,-6.826797008514404,-7.838442802429199,2.795165777206421
1715093190687835600,9.784835693359375,-6.862445831298828,-5.273066520690918,7.1193108558654785
1715093190697815000,9.79481494140625,-9.470519065856934,-3.5695037841796875,9.300060272216797
1715093190707763700,9.804763671875,-7.613642692565918,-1.684713363647461,10.752867698669434
1715093190717742800,9.814742919921875,-4.7454729080200195,0.7892646789550781,10.449737548828125
1715093190727722200,9.82472216796875,-3.4655921459198,2.8221006393432617,8.391435623168945
1715093190737701400,9.834701416015625,-2.5809154510498047,2.9046335220336914,4.6994829177856445
1715093190747650000,9.844650146484375,-2.1544928550720215,2.32248592376709,1.9479503631591797
1715093190757629400,9.85462939453125,-1.1002973318099976,2.246262550354004,0.7665296792984009
1715093190767608600,9.864608642578125,-0.16316616535186768,1.843226432800293,-1.0733753442764282
1715093190777557200,9.87455712890625,1.2415317296981812,1.4988231658935547,-2.576404333114624
1715093190787536600,9.88453662109375,1.7720550298690796,1.7642221450805664,-3.1395392417907715
1715093190797515800,9.894515869140625,1.3090901374816895,2.4501285552978516,-3.7026114463806152
1715093190807464700,9.904464599609375,0.7039964199066162,3.3790788650512695,-3.721013069152832
1715093190817443800,9.91444384765625,-0.2336806058883667,4.13803768157959,-3.647569417953491
1715093190827423000,9.924423095703125,-0.9845908880233765,4.46103572845459,-3.357593536376953
1715093190837372000,9.934371826171875,-1.2269271612167358,4.304948806762695,-2.890915632247925
1715093190847351000,9.94435107421875,-1.3886713981628418,3.9297714233398438,-2.6383533477783203
1715093190857330200,9.954330078125,-1.6077182292938232,3.5933094024658203,-2.6675832271575928
1715093190867279000,9.964279052734375,-1.4794899225234985,3.4089441299438477,-2.5897176265716553
1715093190877258200,9.97425830078125,-1.0224831104278564,3.3928470611572266,-2.2848076820373535
1715093190887237600,9.984237548828125,0.14881956577301025,3.5068235397338867,-1.9110407829284668
1715093190897186300,9.994186279296875,1.1063430309295654,3.348080635070801,-2.038468837738037
1715093190907165400,10.00416552734375,1.6657620668411255,3.1440658569335938,-1.532331109046936
1715093190917144800,10.014144775390625,2.0673069953918457,2.8094186782836914,-0.9108885526657104
1715093190927093500,10.024093505859375,2.2962112426757812,2.4765262603759766,0.6531224250793457
1715093190937072600,10.03407275390625,2.3941452503204346,2.688039779663086,3.5350353717803955
1715093190947052000,10.044052001953125,2.0632410049438477,2.208186149597168,5.975604057312012
1715093190957000700,10.054000732421875,1.46924889087677,0.3239250183105469,7.189184188842773
1715093190966979800,10.063979736328125,0.6394132375717163,-1.9526643753051758,8.606701850891113
1715093190976928800,10.0739287109375,0.40308570861816406,-4.62445068359375,8.803654670715332
1715093190986908000,10.083907958984375,-1.0325757265090942,-6.7053632736206055,6.811849117279053
1715093190996887300,10.09388720703125,-1.6971948146820068,-7.700873374938965,2.68367075920105
1715093191006866400,10.103866455078125,-2.6701273918151855,-8.924068450927734,-1.0750761032104492
1715093191016815000,10.113815185546875,-2.856473684310913,-9.676095962524414,-4.144664764404297
1715093191026794500,10.12379443359375,-0.4000856876373291,-9.311053276062012,-5.614588737487793
1715093191036773600,10.133773681640625,2.031480312347412,-5.503125190734863,-3.7727606296539307
1715093191046753000,10.1437529296875,1.6223152875900269,-1.7143535614013672,-0.5835389494895935
1715093191056701700,10.15370166015625,0.9407799243927002,-2.5018835067749023,1.2825665473937988
1715093191066680800,10.163680908203125,3.0782415866851807,-4.984310150146484,1.835084319114685
1715093191076660200,10.17366015625,2.698194980621338,-4.403858184814453,0.40199029445648193
1715093191086609000,10.18360888671875,-2.479769706726074,-2.559817314147949,-0.9701324701309204
1715093191096588000,10.193588134765625,-5.970551013946533,-3.5618066787719727,-3.18817400932312
1715093191106567400,10.2035673828125,-8.811098098754883,-5.9652557373046875,-5.117506980895996
1715093191116516000,10.21351611328125,-6.029813766479492,-3.9451122283935547,-5.445423126220703
1715093191126495200,10.2234951171875,-2.958620548248291,-0.4015159606933594,-3.917372465133667
1715093191136474600,10.233474609375,-0.7694836854934692,1.5534210205078125,-0.986868679523468
1715093191146423300,10.24342333984375,1.0188466310501099,2.5326194763183594,2.0106849670410156
1715093191156402700,10.253402587890625,1.1419905424118042,3.1819934844970703,3.158085823059082
1715093191166351400,10.263351318359375,0.7060041427612305,4.232818603515625,1.0973854064941406
1715093191176330500,10.27333056640625,0.31140244007110596,5.191629409790039,-1.013879418373108
1715093191186310000,10.283309814453125,0.5395349264144897,4.9412384033203125,-1.5355722904205322
1715093191196258600,10.293258544921875,0.9806573390960693,3.555058479309082,-2.716856002807617
1715093191206237700,10.30323779296875,1.0989835262298584,1.172074317932129,-5.000466823577881
1715093191216217000,10.313217041015625,1.3491145372390747,0.0711507797241211,-6.824636936187744
1715093191226165800,10.323165771484375,0.6282194256782532,-1.095280647277832,-7.7378034591674805
1715093191236145000,10.333144775390625,-0.18365854024887085,-1.8848133087158203,-7.84009313583374
1715093191246124300,10.343124267578125,-0.47017085552215576,-0.7672595977783203,-7.090643882751465
1715093191256073000,10.353072998046875,0.26425111293792725,1.4516077041625977,-5.0250043869018555
1715093191266052400,10.36305224609375,0.9115365743637085,3.4397811889648438,-3.617471694946289
1715093191276031500,10.373031494140625,3.3597359657287598,5.151500701904297,-3.0546841621398926
1715093191285980200,10.382980224609375,5.519603729248047,5.777453422546387,-2.349079132080078
1715093191295959600,10.39295947265625,4.356586933135986,5.144845008850098,-2.080455780029297
1715093191305938700,10.402938720703125,1.877566933631897,4.2633514404296875,-1.1770312786102295
1715093191315917800,10.412917724609375,1.4743785858154297,3.238020896911621,-0.5479616522789001
1715093191325866800,10.42286669921875,-0.12703371047973633,1.3828372955322266,0.6941633224487305
1715093191335846000,10.432845947265625,-0.5496851205825806,-0.0516204833984375,2.2137718200683594
1715093191345825300,10.4428251953125,-0.362413227558136,-1.1774587631225586,3.2837321758270264
1715093191355774000,10.45277392578125,-0.5979313850402832,-1.9502019882202148,3.821450710296631
1715093191365753000,10.462753173828125,-0.812063992023468,-1.9842681884765625,4.113629341125488
1715093191375732500,10.472732421875,-0.87947678565979,-1.3178129196166992,3.9823532104492188
1715093191385681200,10.48268115234375,-1.0977193117141724,-0.6452980041503906,3.8356385231018066
1715093191395660300,10.492660400390625,-1.4460206031799316,-0.32365894317626953,3.4197678565979004
1715093191405639700,10.5026396484375,-1.3380241394042969,-0.18272018432617188,3.241971969604492
1715093191415588400,10.51258837890625,-1.65720534324646,-0.3544921875,2.616543769836426
1715093191425567500,10.5225673828125,-1.500847339630127,-0.45735931396484375,2.6839423179626465
1715093191435547000,10.532546875,-0.9447952508926392,-0.8077850341796875,2.506462335586548
1715093191445495600,10.54249560546875,0.5526465177536011,-0.8936929702758789,2.325814962387085
1715093191455475000,10.552474853515625,2.320218563079834,-0.6112880706787109,2.3061697483062744
1715093191465454000,10.5624541015625,3.806328296661377,-0.04212379455566406,2.060107707977295
1715093191475402800,10.57240283203125,5.967158317565918,0.68487548828125,2.2292914390563965
1715093191485382100,10.582382080078125,8.010673522949219,1.4935598373413086,2.768296480178833
1715093191495361300,10.592361328125,9.184842109680176,2.6642141342163086,2.603485107421875
1715093191505310000,10.60231005859375,7.689164161682129,3.221489906311035,2.162261486053467
1715093191515289300,10.612289306640625,5.767000198364258,3.0979270935058594,1.1656047105789185
1715093191525238000,10.622238037109375,4.114668846130371,1.4264802932739258,-0.18467527627944946
1715093191535217200,10.632217041015625,3.191065549850464,-1.1394710540771484,-0.5209898352622986
1715093191545196500,10.642196533203125,1.7690293788909912,-3.541534423828125,0.02454674243927002
1715093191555145200,10.652145263671875,0.6621229648590088,-5.390411376953125,0.059823691844940186
1715093191565124600,10.66212451171875,0.012766122817993164,-6.123058319091797,-0.21956878900527954
1715093191575103700,10.672103759765625,1.6703262329101562,-5.992748260498047,0.1005663275718689
1715093191585083000,10.682082763671875,3.763235092163086,-4.611946105957031,1.8669358491897583
1715093191595031800,10.69203173828125,3.657670736312866,-1.9777708053588867,3.956895351409912
1715093191605011000,10.702010986328125,2.689469575881958,0.34479427337646484,5.11818265914917
1715093191614990300,10.711990234375,1.914720058441162,3.274097442626953,4.830449104309082
1715093191624969500,10.721969482421875,1.34308660030365,4.937847137451172,3.785212993621826
1715093191634918100,10.731918212890625,0.9329218864440918,5.340679168701172,2.3968863487243652
1715093191644897500,10.7418974609375,0.805426836013794,4.733034133911133,0.5589206218719482
1715093191654876700,10.751876708984375,0.5883358716964722,3.073615074157715,-1.7981417179107666
1715093191664825300,10.761825439453125,0.11861878633499146,0.5815830230712891,-5.133708477020264
1715093191674804700,10.7718046875,-0.9650488495826721,-1.9952373504638672,-7.762380599975586
1715093191684783900,10.781783935546875,-3.35918927192688,-3.6082763671875,-8.843378067016602
1715093191694732500,10.791732666015625,-5.380238056182861,-5.815533638000488,-10.166001319885254
1715093191704712000,10.8017119140625,-5.715000152587891,-8.788058280944824,-12.125788688659668
1715093191714691000,10.811691162109375,-5.8713884353637695,-11.79982852935791,-11.459352493286133
1715093191724640000,10.821639892578125,-5.781662464141846,-12.784016609191895,-6.798457145690918
1715093191734619100,10.831619140625,-6.67402982711792,-10.818455696105957,-0.41794657707214355
1715093191744567800,10.84156787109375,-8.190276145935059,-6.434061050415039,4.952188491821289
1715093191754547200,10.851547119140625,-7.524065017700195,-2.978778839111328,9.138640403747559
1715093191764526300,10.8615263671875,-7.232159614562988,-1.2988471984863281,9.203725814819336
1715093191774475000,10.87147509765625,-4.917722702026367,0.5591630935668945,10.220661163330078
1715093191784454400,10.881454345703125,-3.413198709487915,2.230609893798828,9.065553665161133
1715093191794433500,10.89143359375,-2.690812587738037,3.3523435592651367,7.011720657348633
1715093191804382200,10.90138232421875,-3.1521048545837402,2.8123779296875,3.477015495300293
1715093191814361600,10.911361572265625,-1.9414281845092773,2.613266944885254,1.895424485206604
1715093191824340700,10.9213408203125,-0.04245877265930176,2.818425178527832,0.6886478662490845
1715093191834289400,10.931289306640625,1.3961453437805176,2.5878992080688477,-1.3362020254135132
1715093191844268800,10.941268798828125,2.711483955383301,2.7066993713378906,-2.127021074295044
1715093191854248000,10.951248046875,2.262570858001709,2.9234619140625,-2.401207208633423
1715093191864196900,10.96119677734375,1.3207601308822632,3.4177560806274414,-2.5974202156066895
1715093191874176000,10.971176025390625,0.44799280166625977,3.9194536209106445,-2.6094534397125244
1715093191884155100,10.981155029296875,-0.31726253032684326,4.047301292419434,-2.5525307655334473
1715093191894134500,10.991134521484375,-0.7823988199234009,3.7418060302734375,-2.769427537918091
1715093191904083200,11.001083251953125,-0.8002022504806519,3.373265266418457,-2.9084317684173584
1715093191914062600,11.0110625,-0.6489062309265137,3.0767383575439453,-3.4042768478393555
1715093191924041700,11.021041748046875,-0.4766446352005005,2.993741035461426,-3.7504658699035645
1715093191933990400,11.030990478515625,-0.0745856761932373,3.03330135345459,-3.923443555831909
1715093191943969800,11.0409697265625,0.7161328792572021,3.2252626419067383,-3.720576524734497
1715093191953949000,11.050948974609375,1.5619169473648071,3.2549057006835938,-3.4466257095336914
1715093191963897600,11.060897705078125,1.7539774179458618,3.0672998428344727,-2.6559994220733643
1715093191973877000,11.070876953125,1.6032599210739136,2.680222511291504,-1.8775436878204346
1715093191983856000,11.080856201171875,1.291678547859192,1.9779834747314453,-1.0774234533309937
1715093191993804800,11.0908046875,1.4240913391113281,1.4439105987548828,0.6092770099639893
1715093192003784200,11.1007841796875,2.143950939178467,1.551539421081543,3.440159797668457
1715093192013763300,11.110763427734375,2.1531941890716553,0.7006683349609375,5.669646263122559
1715093192023712300,11.120712158203125,1.7135875225067139,-1.0398731231689453,7.471149921417236
1715093192033691400,11.13069140625,1.245265245437622,-2.818389892578125,8.985146522521973
1715093192043670500,11.14067041015625,0.6353117227554321,-4.82725715637207,8.39614486694336
1715093192053619500,11.150619384765625,-0.1352672576904297,-5.921492576599121,5.24984884262085
1715093192063598600,11.1605986328125,-1.878269076347351,-5.809048652648926,1.3128827810287476
1715093192073578000,11.170577880859375,-2.3767199516296387,-6.25419807434082,-1.7196508646011353
1715093192083526700,11.180526611328125,0.08475267887115479,-7.065735816955566,-4.948085784912109
1715093192093505800,11.190505859375,2.570075750350952,-6.770101547241211,-6.785847187042236
1715093192103454500,11.200454345703125,2.1827895641326904,-3.213192939758301,-3.8419480323791504
1715093192113433900,11.210433837890625,0.8288677930831909,-2.3535642623901367,-1.7737096548080444
1715093192123413000,11.2204130859375,2.532168388366699,-4.469432830810547,-1.3584728240966797
1715093192133362000,11.23036181640625,-1.57499361038208,-4.95391845703125,-1.6948730945587158
1715093192143341000,11.240341064453125,-4.471732139587402,-6.641317367553711,-2.460881471633911
1715093192153320200,11.2503203125,-6.28566837310791,-10.417154312133789,-1.514617919921875
1715093192163299600,11.260299560546875,-8.634177207946777,-10.0435209274292,-3.3523168563842773
1715093192173248300,11.270248291015625,-5.238504886627197,-4.874805450439453,-5.232631683349609
1715093192183227600,11.2802275390625,-1.9209800958633423,-0.42490673065185547,-4.010106086730957
1715093192193206800,11.290206787109375,-0.3046491742134094,1.7044363021850586,-1.00002121925354
1715093192203155500,11.300155517578125,1.6705470085144043,3.0462522506713867,2.180866241455078
1715093192213134800,11.310134765625,1.8556573390960693,4.514327049255371,4.054804801940918
1715093192223114000,11.320114013671875,1.1882071495056152,5.373167991638184,2.9690496921539307
1715093192233062700,11.330062744140625,0.7936792373657227,5.971043586730957,0.24362635612487793
1715093192243042000,11.3400419921875,0.5323963165283203,5.787609100341797,-1.5510590076446533
1715093192253021200,11.350021240234375,0.745268702507019,4.655953407287598,-3.170034170150757
1715093192262969900,11.359969970703125,0.5830782651901245,3.045236587524414,-6.023782730102539
1715093192272949200,11.36994921875,0.5936719179153442,1.2538089752197266,-8.795384407043457
1715093192282928400,11.379928466796875,1.1037225723266602,-0.9270849227905273,-10.076974868774414
1715093192292877000,11.389876953125,0.9735126495361328,-2.2669801712036133,-10.062431335449219
1715093192302856400,11.3998564453125,0.6016349792480469,-1.4466562271118164,-9.077008247375488
1715093192312835600,11.409835693359375,1.5869290828704834,2.024510383605957,-7.400129795074463
1715093192322784500,11.419784423828125,3.1862378120422363,4.784419059753418,-4.666261196136475
1715093192332763600,11.429763671875,4.779871463775635,6.246508598327637,-3.188774585723877
1715093192342742800,11.43974267578125,5.62344217300415,6.606570243835449,-1.5944335460662842
1715093192352691700,11.449691650390625,4.801555633544922,5.142951965332031,-1.2879202365875244
1715093192362670800,11.4596708984375,4.071224212646484,4.333126068115234,0.8247207403182983
1715093192372650200,11.469650146484375,3.2736005783081055,2.5190601348876953,3.1859130859375
1715093192382599000,11.479598876953125,2.0763158798217773,0.6365451812744141,4.379005432128906
1715093192392578000,11.489578125,0.23958367109298706,-1.0960407257080078,5.183010578155518
1715093192402526700,11.499526611328125,-1.3798332214355469,-2.563608169555664,5.4254584312438965
1715093192412506000,11.509506103515625,-2.7876598834991455,-2.963663101196289,4.813072681427002
1715093192422485200,11.5194853515625,-3.0383191108703613,-2.425368309020996,4.25997257232666
1715093192432464600,11.529464599609375,-2.774456024169922,-1.8797197341918945,3.3918545246124268
1715093192442443800,11.53944384765625,-1.7733275890350342,-1.1451911926269531,2.3849916458129883
1715093192452392400,11.549392333984375,-1.6434897184371948,0.08379173278808594,2.745187759399414
1715093192462371800,11.559371826171875,-0.44816339015960693,0.30823612213134766,2.045840263366699
1715093192472351000,11.56935107421875,-0.083778977394104,0.4552574157714844,2.3897080421447754
1715093192482300000,11.5792998046875,0.0332869291305542,0.579747200012207,2.46981143951416
1715093192492279000,11.589279052734375,0.3806363344192505,0.5234861373901367,2.4515535831451416
1715093192502258200,11.599258056640625,0.8126214742660522,0.21962928771972656,2.3023602962493896
1715093192512207000,11.60920703125,1.2685282230377197,0.09925079345703125,2.0713725090026855
1715093192522186200,11.619186279296875,3.0258426666259766,0.39853763580322266,1.851662516593933
1715093192532165600,11.62916552734375,4.454160213470459,0.519073486328125,1.5468848943710327
1715093192542114300,11.6391142578125,5.375051498413086,0.8300676345825195,1.3166117668151855
1715093192552093400,11.649093505859375,6.659433364868164,1.5576353073120117,1.0671424865722656
1715093192562072800,11.65907275390625,7.451716423034668,2.298192024230957,1.2471829652786255
1715093192572021500,11.669021484375,7.598752021789551,2.6039657592773438,1.4651188850402832
1715093192582000600,11.679000732421875,6.39322566986084,2.1253366470336914,1.1961578130722046
1715093192591980000,11.68897998046875,4.158869743347168,0.4638385772705078,1.2101335525512695
1715093192601928700,11.6989287109375,2.2546191215515137,-2.035236358642578,1.079358458518982
1715093192611907800,11.708907958984375,1.797499656677246,-4.736246109008789,-0.004079341888427734
1715093192621856800,11.718856689453125,2.065305709838867,-6.384271621704102,-1.538057565689087
1715093192631836000,11.7288359375,3.2213094234466553,-6.470207214355469,-2.124619483947754
1715093192641839900,11.73883984375,4.835187911987305,-4.394007682800293,-0.0056272149085998535
1715093192651788500,11.74878857421875,4.144533157348633,-1.7476348876953125,2.3182005882263184
1715093192661768000,11.758767822265625,2.281595230102539,-0.038959503173828125,3.524712562561035
1715093192671747000,11.7687470703125,1.8829615116119385,1.5993165969848633,4.1427717208862305
1715093192681696000,11.778696044921874,0.7699319124221802,3.0172510147094727,4.4248833656311035
1715093192691675100,11.788675048828125,-0.28323566913604736,3.9564647674560547,3.462329149246216
1715093192701654300,11.798654296875,-0.6490300893783569,3.8950767517089844,1.2866472005844116
1715093192711603200,11.808603271484374,-0.6821331977844238,3.1720800399780273,-0.8266197443008423
1715093192721582300,11.818582275390625,-0.74483323097229,2.1267213821411133,-2.867985248565674
1715093192731561700,11.828561767578124,-1.4180288314819336,0.7941532135009766,-5.417697906494141
1715093192741540900,11.838540771484375,-2.874357223510742,-1.1703786849975586,-7.756595611572266
1715093192751489500,11.848489501953125,-4.581063747406006,-3.5501413345336914,-9.670880317687988
1715093192761469000,11.858468994140624,-5.431080341339111,-6.737065315246582,-11.860077857971191
1715093192771448000,11.868447998046875,-6.07211971282959,-10.036714553833008,-12.142538070678711
1715093192781396700,11.878396728515625,-5.91522216796875,-11.96119213104248,-8.63422966003418
1715093192791376100,11.888376220703124,-6.188326835632324,-11.01350212097168,-2.7845494747161865
1715093192801355300,11.898355224609375,-7.817799091339111,-8.802573204040527,1.8415846824645996
1715093192811304000,11.908303955078125,-7.922214031219482,-5.16560173034668,6.60806131362915
1715093192821283300,11.918283447265624,-7.192948341369629,-2.7726850509643555,9.876485824584961
1715093192831262500,11.928262451171875,-6.674333572387695,-0.8666896820068359,9.572430610656738
1715093192841211400,11.93821142578125,-4.3974456787109375,1.13006591796875,10.097892761230469
1715093192851190500,11.9481904296875,-2.8752434253692627,2.6136226654052734,8.319547653198242
1715093192861169700,11.958169677734375,-2.6179189682006836,2.7890453338623047,5.878307342529297
1715093192871118600,11.96811865234375,-2.894258975982666,1.8696441650390625,2.6007039546966553
1715093192881097700,11.97809765625,-1.7152094841003418,1.5059051513671875,1.0756114721298218
1715093192891076900,11.988076904296875,0.007315397262573242,1.6371707916259766,-0.12544432282447815
1715093192901025800,11.99802587890625,1.1597111225128174,1.3147621154785156,-1.7548497915267944
1715093192911005000,12.0080048828125,1.7622413635253906,1.4395017623901367,-2.27371883392334
1715093192920984300,12.017984375,1.397336721420288,2.024686813354492,-2.6763269901275635
1715093192930933000,12.02793310546875,0.9338656663894653,3.1000871658325195,-2.9793434143066406
1715093192940912000,12.037912109375,0.2655909061431885,4.0485687255859375,-2.9661004543304443
1715093192950891500,12.0478916015625,-0.16479253768920898,4.694461822509766,-2.7745745182037354
1715093192960840200,12.057840087890625,-0.38944315910339355,4.805280685424805,-2.6044504642486572
1715093192970819300,12.0678193359375,-0.6185680627822876,4.591100692749023,-2.7997817993164062
1715093192980798700,12.077798828125,-0.7592718601226807,4.316708564758301,-3.114759922027588
1715093192990747400,12.087747314453125,-0.7354458570480347,4.1285858154296875,-3.2562003135681152
1715093193000726500,12.0977265625,-0.5799367427825928,4.0457000732421875,-3.375833034515381
1715093193010706000,12.107705810546875,0.2156747579574585,4.131585121154785,-3.253350257873535
1715093193020654600,12.117654541015625,1.1800616979599,3.8520936965942383,-2.7925100326538086
1715093193030634000,12.127634033203124,1.86492919921875,3.2099990844726562,-1.5047516822814941
1715093193040613000,12.137613037109375,1.9796651601791382,2.299525260925293,-0.18739652633666992
1715093193050592300,12.14759228515625,1.8016679286956787,1.2602653503417969,1.8948214054107666
1715093193060541200,12.157541259765624,1.3769642114639282,0.8212814331054688,5.253336429595947
1715093193070520300,12.167520263671875,0.7042397260665894,0.2721576690673828,7.988193511962891
1715093193080499700,12.177499755859374,0.00644683837890625,-1.2559623718261719,9.14356517791748
1715093193090448400,12.187448486328124,-0.25743234157562256,-3.195807456970215,9.076248168945312
1715093193100427500,12.197427490234375,-0.0569535493850708,-4.142258644104004,6.667232036590576
1715093193110407000,12.207406982421874,0.5369098782539368,-4.434405326843262,2.2126638889312744
1715093193120355600,12.21735546875,1.47312593460083,-5.210823059082031,-2.171471118927002
1715093193130334700,12.227334716796875,3.3310914039611816,-6.648395538330078,-6.735259532928467
1715093193140314000,12.237314208984374,6.476743698120117,-6.3525190353393555,-7.265955448150635
1715093193150262800,12.2472626953125,5.161128520965576,-3.6195173263549805,-6.361255645751953
1715093193160242000,12.257241943359375,2.2245969772338867,0.3408775329589844,-3.917534828186035
1715093193170221300,12.26722119140625,3.134199619293213,1.859476089477539,0.3127627968788147
1715093193180170000,12.277169921875,-3.5384891033172607,2.536799430847168,3.09384822845459
1715093193190149400,12.2871494140625,-5.642261981964111,0.6392402648925781,5.587859153747559
1715093193200128500,12.29712841796875,-3.7482244968414307,-7.190545082092285,5.368082046508789
1715093193210077200,12.3070771484375,-7.832610607147217,-15.842728614807129,3.7948508262634277
1715093193220056600,12.317056640625,-12.003576278686523,-17.44220733642578,-1.2117468118667603
1715093193230005200,12.327005126953125,-8.273605346679688,-12.915484428405762,-8.682398796081543
1715093193239984400,12.336984375,-2.260735273361206,-4.196755409240723,-10.54971694946289
1715093193249963800,12.3469638671875,0.25092148780822754,2.366302490234375,-5.431885242462158
1715093193259912400,12.356912353515625,1.9596608877182007,4.72590446472168,-2.712580919265747
1715093193269891600,12.3668916015625,3.005373477935791,5.870841979980469,-0.6557484865188599
1715093193279871000,12.37687109375,1.924992561340332,6.272383689880371,-0.6110396385192871
1715093193289819600,12.386819580078125,1.0204408168792725,6.056856155395508,-2.4100699424743652
1715093193299799000,12.396799072265624,0.8103237152099609,5.647110939025879,-4.237761497497559
1715093193309778200,12.406778076171875,1.685042381286621,4.646188735961914,-5.043568134307861
1715093193319757300,12.41675732421875,1.175245761871338,2.959761619567871,-6.865870475769043
1715093193329736700,12.42673681640625,1.2016777992248535,1.0231943130493164,-6.906642913818359
1715093193339685400,12.436685302734375,1.4707794189453125,-1.2798089981079102,-5.400389671325684
1715093193349664500,12.44666455078125,0.47558557987213135,-2.9143075942993164,-5.551178455352783
1715093193359644000,12.456643798828125,-0.8827617168426514,-2.142589569091797,-6.1285786628723145
1715093193369592600,12.466592529296875,0.5462294816970825,0.37375545501708984,-5.720182418823242
1715093193379572000,12.476572021484374,2.0103678703308105,1.8870267868041992,-5.623933792114258
1715093193389520600,12.486520751953124,3.576871395111084,2.8933496475219727,-3.7064192295074463
1715093193399499800,12.496499755859375,4.1259260177612305,3.502695083618164,-3.173935651779175
1715093193409479200,12.506479248046874,3.613508939743042,3.6090087890625,-1.3448500633239746
1715093193419427800,12.516427734375,0.7238572239875793,3.4999923706054688,-2.2439236640930176
1715093193429407000,12.526406982421875,0.5721645951271057,3.8477678298950195,-0.429115891456604
1715093193439386400,12.536386474609374,0.6680280566215515,2.4762306213378906,2.562384605407715
1715093193449335000,12.5463349609375,0.4966776967048645,0.5827493667602539,3.4865808486938477
1715093193459314200,12.556314208984375,0.22492188215255737,-0.9772815704345703,3.4664416313171387
1715093193469293600,12.56629345703125,-0.1071767807006836,-1.6526918411254883,3.8702564239501953
1715093193479242200,12.5762421875,-0.39317095279693604,-1.7987279891967773,3.8784031867980957
1715093193489221600,12.5862216796875,-0.5413435697555542,-1.4199867248535156,3.4317820072174072
1715093193499200800,12.59620068359375,-0.7373650074005127,-0.6360406875610352,2.9172372817993164
1715093193509149400,12.6061494140625,-0.2580142021179199,-0.15427017211914062,2.597712993621826
1715093193519128800,12.61612890625,-0.17065513134002686,0.1621551513671875,2.4205822944641113
1715093193529108000,12.62610791015625,0.05255246162414551,0.4306144714355469,2.646904230117798
1715093193539056600,12.636056640625,-0.38985955715179443,0.5141019821166992,3.336055278778076
1715093193549036000,12.6460361328125,0.05057847499847412,0.6028919219970703,3.78519868850708
1715093193559015200,12.65601513671875,0.814160943031311,0.5939779281616211,4.136240482330322
1715093193568963800,12.6659638671875,2.1822242736816406,0.6630802154541016,4.296333312988281
1715093193578943200,12.675943115234375,4.417557716369629,0.6790094375610352,5.003674030303955
1715093193588922400,12.68592236328125,6.283464431762695,0.9460697174072266,4.964770317077637
1715093193598901800,12.69590185546875,7.1763081550598145,1.669651985168457,4.739225387573242
1715093193608850400,12.705850341796875,6.091096878051758,2.6418323516845703,4.650941848754883
1715093193618829600,12.71582958984375,4.432716369628906,3.220285415649414,3.4594380855560303
1715093193628809000,12.72580908203125,2.689998149871826,2.5295000076293945,2.0687882900238037
1715093193638757600,12.735757568359375,1.0825777053833008,0.2147073745727539,1.1552278995513916
1715093193648737000,12.745737060546874,1.2086989879608154,-2.7239198684692383,0.23703628778457642
1715093193658716200,12.755716064453125,1.654146432876587,-4.78636360168457,-0.10735851526260376
1715093193668664800,12.765664794921875,2.4783174991607666,-5.463993072509766,-0.8039976954460144
1715093193678644200,12.775644287109374,4.828365325927734,-5.627263069152832,-1.268887996673584
1715093193688623400,12.785623291015625,6.907600402832031,-5.209684371948242,-1.087144374847412
1715093193698572000,12.795572021484375,6.342948913574219,-3.4817352294921875,0.10617351531982422
1715093193708551400,12.805551513671874,3.2541165351867676,-1.397613525390625,1.4304676055908203
1715093193718530600,12.815530517578125,2.371271848678589,0.744898796081543,2.8649251461029053
1715093193728479200,12.825479248046875,2.4181809425354004,2.2254438400268555,3.651526927947998
1715093193738458600,12.835458740234374,1.0598888397216797,3.0861730575561523,3.256765365600586
1715093193748437800,12.845437744140625,-0.5376948118209839,3.127690315246582,2.3014235496520996
1715093193758386700,12.85538671875,-1.1806975603103638,3.096242904663086,1.2184371948242188
1715093193768365800,12.86536572265625,-1.4874860048294067,2.9391870498657227,-0.596165657043457
1715093193778345000,12.875344970703125,-1.2826485633850098,2.345621109008789,-3.2290070056915283
1715093193788294000,12.8852939453125,-2.2057387828826904,0.7336130142211914,-6.307803153991699
1715093193798273000,12.89527294921875,-4.382884979248047,-1.5225028991699219,-8.623329162597656
