time,seconds_elapsed,z,y,x
1715093181108406500,0.205406494140625,9.408248901367188,6.26104736328125,-0.6855010986328125
1715093181127263700,0.224263671875,9.0946044921875,6.0312042236328125,-0.546630859375
1715093181137273600,0.234273681640625,8.634918212890625,5.5882720947265625,-0.33355712890625
1715093181147252700,0.244252685546875,8.38592529296875,5.521240234375,-0.472412109375
1715093181157262600,0.2542626953125,8.251846313476562,5.6936187744140625,-0.5753631591796875
1715093181167241700,0.26424169921875,8.203964233398438,5.80615234375,-0.7908477783203125
1715093181177221000,0.27422119140625,8.306915283203125,5.801361083984375,-0.920135498046875
1715093181187200300,0.2842001953125,8.39788818359375,5.7630615234375,-0.9177398681640625
1715093181197179400,0.294179443359375,8.582244873046875,5.7151641845703125,-0.8961944580078125
1715093181207158800,0.30415869140625,8.65167236328125,5.7127685546875,-0.8770294189453125
1715093181217138000,0.314137939453125,8.469711303710938,5.7462921142578125,-0.900970458984375
1715093181227117300,0.324117431640625,8.2398681640625,5.8420562744140625,-0.8746337890625
1715093181237066000,0.33406591796875,8.067489624023438,5.8564300537109375,-0.836334228515625
1715093181247045000,0.344045166015625,7.7945556640625,5.8396759033203125,-0.8028106689453125
1715093181257024500,0.3540244140625,7.6556854248046875,5.892333984375,-0.69268798828125
1715093181267003600,0.364003662109375,7.727508544921875,6.01922607421875,-0.5657958984375
1715093181276983000,0.373983154296875,7.746673583984375,6.064727783203125,-0.5634002685546875
1715093181286962200,0.383962158203125,7.7658233642578125,6.0479583740234375,-0.486785888671875
1715093181296910800,0.393910888671875,7.959747314453125,5.95458984375,-0.477203369140625
1715093181306890200,0.40389013671875,8.120162963867188,5.9354400634765625,-0.45086669921875
1715093181316869400,0.413869384765625,8.074676513671875,5.578704833984375,-0.477203369140625
1715093181326848800,0.423848876953125,8.089035034179688,5.5811004638671875,-0.31439208984375
1715093181336797400,0.43379736328125,8.18719482421875,5.5499725341796875,-0.2425689697265625
1715093181346776600,0.443776611328125,8.32366943359375,5.5284271240234375,-0.297637939453125
1715093181356756000,0.453755859375,8.383529663085938,5.652923583984375,-0.2784881591796875
1715093181366704600,0.46370458984375,8.409866333007812,5.8133392333984375,-0.38861083984375
1715093181376684000,0.47368408203125,8.342819213867188,5.669677734375,-0.328765869140625
1715093181386663200,0.4836630859375,8.326065063476562,5.6984100341796875,-0.4532623291015625
1715093181396611800,0.49361181640625,8.084243774414062,5.818115234375,-0.1300506591796875
1715093181406591200,0.50359130859375,8.278182983398438,6.064727783203125,-0.572967529296875
1715093181416570400,0.5135703125,8.338043212890625,5.9881134033203125,-0.529876708984375
1715093181426519000,0.52351904296875,8.244659423828125,5.8731842041015625,-0.4317169189453125
1715093181436498400,0.53349853515625,8.148895263671875,5.8779754638671875,-0.38861083984375
1715093181446477600,0.5434775390625,8.029190063476562,5.897125244140625,-0.398193359375
1715093181456426200,0.55342626953125,8.019607543945312,6.086273193359375,-0.60888671875
1715093181466405600,0.563405517578125,7.7610321044921875,6.033599853515625,-0.5801544189453125
1715093181476354300,0.573354248046875,7.6293487548828125,5.9857177734375,-0.472412109375
1715093181486333400,0.58333349609375,7.59344482421875,5.9737396240234375,-0.41973876953125
1715093181496312800,0.593312744140625,7.478515625,5.9306488037109375,-0.3694610595703125
1715093181506261500,0.603261474609375,7.4354248046875,5.8516387939453125,-0.2186279296875
1715093181516241000,0.613240966796875,7.4354248046875,5.7726287841796875,-0.192291259765625
1715093181526220000,0.623219970703125,7.59344482421875,5.73193359375,-0.1898956298828125
1715093181536168700,0.633168701171875,7.85919189453125,5.7199554443359375,-0.2042694091796875
1715093181546148000,0.643148193359375,7.8615875244140625,5.504486083984375,-0.0677947998046875
1715093181556127200,0.653127197265625,7.9022979736328125,5.379974365234375,0.0638885498046875
1715093181566076000,0.663075927734375,7.8304595947265625,5.209991455078125,-0.065399169921875
1715093181576055300,0.67305517578125,7.811309814453125,4.728759765625,-0.0821533203125
1715093181586034400,0.683034423828125,7.7346954345703125,5.241119384765625,0.3607635498046875
1715093181596013800,0.693013916015625,7.5240020751953125,5.53082275390625,0.0686798095703125
1715093181605962500,0.70296240234375,7.3803558349609375,5.6768646240234375,-0.1994781494140625
1715093181615941600,0.712941650390625,7.2654266357421875,5.6601104736328125,-0.37664794921875
1715093181625921000,0.722921142578125,7.3444366455078125,5.6888275146484375,-0.5107269287109375
1715093181635872000,0.7328720703125,7.4378204345703125,5.82769775390625,-0.7429656982421875
1715093181645855500,0.74285546875,7.4857025146484375,5.9976806640625,-0.8866119384765625
1715093181655834600,0.752834716796875,7.6078033447265625,5.9617767333984375,-1.068572998046875
1715093181665783600,0.762783447265625,7.78497314453125,5.9952850341796875,-1.20025634765625
1715093181675762700,0.7727626953125,7.947784423828125,6.1317596435546875,-1.2960205078125
1715093181685742000,0.7827421875,7.8927154541015625,6.32330322265625,-1.3367156982421875
1715093181695690800,0.792690673828125,7.837646484375,6.3735809326171875,-1.511505126953125
1715093181705670000,0.802669921875,8.00762939453125,6.0000762939453125,-1.3774261474609375
1715093181715649300,0.812649169921875,7.8089141845703125,5.3225250244140625,-0.9225311279296875
1715093181725598000,0.822597900390625,7.852020263671875,5.2219696044921875,-0.793243408203125
1715093181735577000,0.8325771484375,8.031585693359375,5.432647705078125,-0.893798828125
1715093181745526000,0.842526123046875,8.275787353515625,5.569122314453125,-0.889007568359375
1715093181755505200,0.852505126953125,8.223114013671875,5.3536529541015625,-0.8554840087890625
1715093181765484300,0.862484375,8.388320922851562,5.22674560546875,-0.6400146484375
1715093181775433200,0.87243310546875,8.761810302734375,5.166900634765625,-0.4221343994140625
1715093181785412400,0.882412353515625,8.962921142578125,5.0567626953125,-0.26171875
1715093181795391700,0.892391845703125,9.087417602539062,4.9969024658203125,-0.0582122802734375
1715093181805340400,0.90234033203125,9.142486572265625,4.965789794921875,0.1381072998046875
1715093181815319600,0.912319580078125,9.039535522460938,4.91790771484375,0.3392181396484375
1715093181825299000,0.922298828125,8.83123779296875,4.8628387451171875,0.5020294189453125
1715093181835247600,0.93224755859375,8.8719482421875,4.802978515625,0.53076171875
1715093181845226800,0.942226806640625,8.953353881835938,4.798187255859375,0.516387939453125
1715093181855206100,0.9522060546875,8.953353881835938,4.802978515625,0.5020294189453125
1715093181865185300,0.962185302734375,8.869552612304688,4.73834228515625,0.6241302490234375
1715093181875134000,0.972134033203125,8.879119873046875,4.8484649658203125,0.7294769287109375
1715093181885113300,0.98211328125,8.570281982421875,5.2171783447265625,0.9736785888671875
1715093181895092500,0.992092529296875,7.66766357421875,5.336883544921875,1.296905517578125
1715093181905041400,1.00204150390625,7.1529083251953125,6.225128173828125,1.392669677734375
1715093181915020500,1.0120205078125,6.4777374267578125,6.3807525634765625,1.2202911376953125
1715093181924999700,1.021999755859375,6.52801513671875,5.897125244140625,1.3974609375
1715093181934948600,1.031948486328125,7.51922607421875,4.944244384765625,1.4597015380859375
1715093181944927700,1.041927734375,8.986862182617188,4.522857666015625,1.2202911376953125
1715093181954907000,1.051906982421875,10.23663330078125,4.2403411865234375,1.0000152587890625
1715093181964855800,1.061855712890625,10.962081909179688,3.9171295166015625,0.8204498291015625
1715093181974835000,1.0718349609375,10.796875,3.7710723876953125,0.691162109375
1715093181984814300,1.081814453125,10.315643310546875,3.7758636474609375,0.5547027587890625
1715093181994763000,1.091762939453125,9.439376831054688,4.0296478271484375,0.63848876953125
1715093182004742100,1.1017421875,8.299728393554688,4.2092132568359375,1.038330078125
1715093182014721500,1.111721435546875,7.8448333740234375,4.925079345703125,1.225067138671875
1715093182024670200,1.121670166015625,7.473724365234375,4.8149566650390625,1.3423919677734375
1715093182034649300,1.1316494140625,7.725128173828125,4.9681854248046875,1.5171661376953125
1715093182044598300,1.141598388671875,8.287765502929688,5.0160675048828125,1.466888427734375
1715093182054577400,1.151577392578125,8.699554443359375,4.702423095703125,1.529144287109375
1715093182064556500,1.161556640625,8.845611572265625,4.5731353759765625,1.509979248046875
1715093182074505500,1.17150537109375,8.934188842773438,4.4941253662109375,1.4692840576171875
1715093182084484600,1.181484619140625,9.0203857421875,4.3576507568359375,1.3902740478515625
1715093182094464000,1.191464111328125,9.149673461914062,4.312164306640625,1.2801361083984375
1715093182104412700,1.20141259765625,9.216705322265625,4.300201416015625,1.2011260986328125
1715093182114391800,1.211391845703125,9.314865112304688,4.3313140869140625,1.1676177978515625
1715093182124371200,1.22137109375,9.278961181640625,4.4103240966796875,1.05029296875
1715093182134319900,1.23131982421875,9.08502197265625,4.4246978759765625,0.9401702880859375
1715093182144299000,1.241299072265625,8.89349365234375,4.4127197265625,0.897064208984375
1715093182154278400,1.2512783203125,8.730682373046875,4.439056396484375,0.8515777587890625
1715093182164257500,1.261257568359375,8.584640502929688,4.4629974365234375,0.863555908203125
1715093182174206200,1.271206298828125,8.393096923828125,4.4869384765625,0.8515777587890625
1715093182184185600,1.281185546875,8.127349853515625,4.4989166259765625,0.863555908203125
1715093182194164700,1.291164794921875,8.000457763671875,4.575531005859375,0.97607421875
1715093182204113700,1.30111376953125,7.9573516845703125,4.6473541259765625,1.1269073486328125
1715093182214092800,1.3110927734375,7.8017425537109375,4.776641845703125,1.265777587890625
1715093182224072000,1.321072021484375,7.694000244140625,4.8748016357421875,1.3232421875
1715093182234020900,1.331020751953125,7.780181884765625,4.9011383056640625,1.4070281982421875
1715093182244000000,1.341,7.93341064453125,4.88677978515625,1.4381561279296875
1715093182253979400,1.3509794921875,8.13214111328125,4.767059326171875,1.339996337890625
1715093182263928000,1.360927978515625,8.299728393554688,4.6234130859375,1.2011260986328125
1715093182273907200,1.3709072265625,8.400283813476562,4.4893341064453125,1.1364898681640625
1715093182283886600,1.380886474609375,8.50323486328125,4.3624420166015625,1.0311431884765625
1715093182293835300,1.390835205078125,8.642105102539062,4.2882232666015625,0.949737548828125
1715093182303814400,1.400814453125,8.771392822265625,4.1661224365234375,1.002410888671875
1715093182313793800,1.410793701171875,8.93658447265625,4.0296478271484375,0.9569244384765625
1715093182323742500,1.420742431640625,9.061080932617188,3.8955841064453125,1.002410888671875
1715093182333721600,1.4307216796875,9.381912231445312,3.80938720703125,1.0526885986328125
1715093182343670500,1.44067041015625,9.41064453125,3.6370086669921875,0.8707275390625
1715093182353649700,1.450649658203125,8.99884033203125,4.2355499267578125,1.5267486572265625
1715093182363628800,1.46062890625,8.371551513671875,4.1230316162109375,1.64166259765625
1715093182373577700,1.47057763671875,8.115371704101562,3.972198486328125,1.466888427734375
1715093182383556900,1.480556884765625,7.758636474609375,4.764678955078125,1.751800537109375
1715093182393536300,1.490536376953125,7.03558349609375,3.8716278076171875,1.557861328125
1715093182403485000,1.50048486328125,6.91827392578125,3.46221923828125,1.85235595703125
1715093182413464000,1.510464111328125,7.5599212646484375,3.0240936279296875,3.4516754150390625
1715093182423443500,1.520443359375,9.47528076171875,2.921142578125,5.714202880859375
1715093182433392000,1.53039208984375,8.678009033203125,2.2316131591796875,5.153961181640625
1715093182443371300,1.540371337890625,5.2471160888671875,1.4558868408203125,4.500335693359375
1715093182453350700,1.5503505859375,1.979034423828125,1.781494140625,3.6934967041015625
1715093182463329800,1.560329833984375,0.350982666015625,1.69769287109375,4.1100921630859375
1715093182473270000,1.57027001953125,0.2599945068359375,0.222869873046875,3.9305267333984375
1715093182483249200,1.580249267578125,0.93756103515625,2.4183502197265625,6.5928802490234375
1715093182493228300,1.590228271484375,2.35491943359375,-0.10992431640625,6.8634185791015625
1715093182503177200,1.60017724609375,0.0540924072265625,-2.9662017822265625,7.648712158203125
1715093182513156400,1.61015625,0.7388458251953125,-1.266326904296875,7.2608642578125
1715093182523135700,1.6201357421875,1.720458984375,-2.19049072265625,6.5186614990234375
1715093182533084400,1.63008447265625,1.006988525390625,-3.90234375,4.9408721923828125
1715093182543063600,1.6400634765625,0.5113983154296875,-4.7187652587890625,3.8036346435546875
1715093182553043000,1.65004296875,1.002197265625,-3.887969970703125,3.93292236328125
1715093182563003100,1.660003173828125,0.71490478515625,-1.8624725341796875,6.23614501953125
1715093182572982500,1.669982421875,-0.8556976318359375,-1.0221099853515625,8.750045776367188
1715093182582931200,1.67993115234375,-1.887603759765625,-2.5424346923828125,9.212127685546875
1715093182592910600,1.68991064453125,-2.4047393798828125,-5.4705352783203125,6.9328460693359375
1715093182602889700,1.6998896484375,-2.4358673095703125,-7.259002685546875,4.26092529296875
1715093182612838400,1.70983837890625,-1.856475830078125,-7.290130615234375,3.6072998046875
1715093182622817800,1.71981787109375,0.224090576171875,-6.1504974365234375,5.8794097900390625
1715093182632786000,1.729785888671875,3.2647247314453125,-4.9893035888671875,7.1698760986328125
1715093182642734600,1.739734619140625,3.726806640625,-6.0882415771484375,5.5274505615234375
1715093182652714000,1.7497138671875,5.117828369140625,-6.7274932861328125,4.287261962890625
1715093182662693000,1.759693115234375,4.2535247802734375,-7.66363525390625,2.3072509765625
1715093182672642000,1.76964208984375,3.7076568603515625,-7.7043304443359375,1.5147705078125
1715093182682621200,1.77962109375,2.728424072265625,-7.79052734375,2.807647705078125
1715093182692569900,1.78956982421875,1.2631683349609375,-8.760177612304688,4.653564453125
1715093182702549200,1.79954931640625,-0.7742919921875,-10.699478149414062,7.3709869384765625
1715093182712528400,1.8095283203125,-1.2675018310546875,-12.803985595703125,9.801101684570312
1715093182722507800,1.8195078125,2.5775909423828125,-13.843063354492188,11.2352294921875
1715093182732487000,1.82948681640625,5.845672607421875,-15.650680541992188,11.141860961914062
1715093182742435600,1.839435546875,7.610198974609375,-17.714492797851562,10.976654052734375
1715093182752415000,1.8494150390625,9.532745361328125,-17.324234008789062,11.0125732421875
1715093182762394000,1.85939404296875,10.073837280273438,-17.446334838867188,12.647811889648438
1715093182772342800,1.8693427734375,7.725128173828125,-20.034469604492188,16.049972534179688
1715093182782322200,1.879322265625,5.7738494873046875,-21.676895141601562,19.883087158203125
1715093182792301300,1.88930126953125,5.1728973388671875,-22.562744140625,21.910980224609375
1715093182802250000,1.89925,8.1656494140625,-23.242706298828125,23.196670532226562
1715093182812229400,1.9092294921875,13.559783935546875,-23.980117797851562,24.532623291015625
1715093182822208500,1.91920849609375,17.761611938476562,-25.06707763671875,25.669876098632812
1715093182832157200,1.9291572265625,17.859771728515625,-26.036727905273438,25.528610229492188
1715093182842136600,1.939136474609375,13.186294555664062,-24.892303466796875,26.033798217773438
1715093182852115700,1.94911572265625,8.457748413085938,-20.125457763671875,29.47186279296875
1715093182862064600,1.959064697265625,-1.75592041015625,-16.82623291015625,29.694534301757812
1715093182872043800,1.969043701171875,-11.763687133789062,-16.438385009765625,23.062591552734375
1715093182882001000,1.9790009765625,-12.383773803710938,-13.98193359375,15.516067504882812
1715093182891980000,1.98897998046875,-23.837646484375,-9.93572998046875,10.66302490234375
1715093182901959400,1.99895947265625,-18.601516723632812,-13.747299194335938,12.832168579101562
1715093182911908000,2.008908203125,-1.6002960205078125,-17.460708618164062,10.734848022460938
1715093182921887200,2.01888720703125,15.479934692382812,-15.08087158203125,6.8945465087890625
1715093182931866600,2.02886669921875,20.838165283203125,-17.0465087890625,5.587310791015625
1715093182941815300,2.038815185546875,17.687393188476562,-17.317047119140625,5.1994476318359375
1715093182951794400,2.04879443359375,8.982070922851562,-19.067214965820312,1.5219573974609375
1715093182961743400,2.058743408203125,6.966156005859375,-18.140655517578125,-0.2114410400390625
1715093182971722500,2.068722412109375,5.9174957275390625,-17.831802368164062,1.1221160888671875
1715093182981702000,2.078701904296875,-17.768341064453125,-9.871078491210938,6.3869781494140625
1715093182991681000,2.088680908203125,-5.3927154541015625,-8.949310302734375,6.908905029296875
1715093183001629700,2.098629638671875,-0.92034912109375,-6.157684326171875,7.20819091796875
1715093183011609000,2.108609130859375,-0.3289794921875,-6.0978240966796875,5.735748291015625
1715093183021588200,2.118588134765625,0.1378936767578125,-9.152816772460938,3.5713958740234375
1715093183031567600,2.128567626953125,1.9239654541015625,-10.601318359375,0.8348236083984375
1715093183041516300,2.138516357421875,2.5416717529296875,-9.157608032226562,0.6289215087890625
1715093183051495400,2.148495361328125,1.1458587646484375,-7.0866241455078125,1.10296630859375
1715093183061474800,2.158474853515625,0.6717987060546875,-6.9166412353515625,0.0279693603515625
1715093183071423500,2.168423583984375,2.9438934326171875,-6.1409149169921875,-0.6160736083984375
1715093183081402600,2.178402587890625,4.4642181396484375,-7.24224853515625,0.0231781005859375
1715093183091382000,2.188382080078125,0.202545166015625,-5.0635223388671875,0.8036956787109375
1715093183101330700,2.19833056640625,6.3197174072265625,-6.85198974609375,-4.3486328125
1715093183111309800,2.208309814453125,-3.0032958984375,0.4000396728515625,1.7709503173828125
1715093183121289200,2.218289306640625,-2.885986328125,-1.6422119140625,-0.0103302001953125
1715093183131238000,2.22823779296875,12.288467407226562,-4.615814208984375,-3.086883544921875
1715093183141217300,2.23821728515625,1.682159423828125,-1.759521484375,1.1484527587890625
1715093183151166000,2.248166015625,-8.287307739257812,2.1741485595703125,4.225006103515625
1715093183161145000,2.25814501953125,-16.264785766601562,6.73748779296875,6.992706298828125
1715093183171124500,2.26812451171875,-6.8914794921875,5.420684814453125,1.509979248046875
1715093183181073200,2.2780732421875,1.5001983642578125,1.554046630859375,-1.2624969482421875
1715093183191052300,2.28805224609375,-0.1518096923828125,-1.3596954345703125,-1.681488037109375
1715093183201031700,2.29803173828125,-0.53009033203125,-3.5671539306640625,-1.0565948486328125
1715093183210980400,2.30798046875,-0.5635986328125,-6.339630126953125,-0.529876708984375
1715093183220959500,2.31795947265625,0.214508056640625,-8.72186279296875,-0.2904510498046875
1715093183230939000,2.32793896484375,1.04290771484375,-8.812850952148438,-1.4899444580078125
1715093183240887600,2.337887451171875,1.0333251953125,-8.264572143554688,-2.3279266357421875
1715093183250867000,2.347866943359375,-0.082366943359375,-8.075439453125,-1.5617828369140625
1715093183260815600,2.357815673828125,1.895233154296875,-7.268585205078125,-1.6527557373046875
1715093183270794800,2.367794677734375,1.8976287841796875,-8.896636962890625,-0.879425048828125
1715093183280774100,2.377774169921875,-0.2667236328125,-11.642791748046875,-1.0973052978515625
1715093183290753300,2.387753173828125,-1.301025390625,-6.878326416015625,1.7996826171875
1715093183300702000,2.397701904296875,-3.3432769775390625,-5.4968719482421875,3.0901641845703125
1715093183310681300,2.407681396484375,0.9040374755859375,-8.638076782226562,1.222686767578125
1715093183320660500,2.417660400390625,1.9239654541015625,-9.08099365234375,3.6025238037109375
1715093183330609200,2.427609130859375,3.6406097412109375,-9.859115600585938,6.537811279296875
1715093183340580900,2.437580810546875,5.740325927734375,-14.211776733398438,6.7939910888671875
1715093183350560300,2.447560302734375,5.7594757080078125,-15.583648681640625,5.8363037109375
1715093183360509000,2.457509033203125,4.028472900390625,-11.544631958007812,4.627227783203125
1715093183370488000,2.467488037109375,1.5576629638671875,-8.085006713867188,5.9727783203125
1715093183380467500,2.477467529296875,-0.67852783203125,-8.422592163085938,6.7149810791015625
1715093183390416100,2.487416015625,-0.9131622314453125,-8.705108642578125,5.7860260009765625
1715093183400395500,2.4973955078125,-0.2068634033203125,-10.721023559570312,3.2026824951171875
1715093183410374700,2.507374755859375,0.3581695556640625,-12.844680786132812,1.5746307373046875
1715093183420323300,2.5173232421875,1.5049896240234375,-13.32830810546875,0.178802490234375
1715093183430286600,2.52728662109375,2.12030029296875,-14.69061279296875,-2.0645599365234375
1715093183440265700,2.537265625,2.8050384521484375,-13.572525024414062,-1.406158447265625
1715093183450214700,2.547214599609375,1.83538818359375,-11.977981567382812,1.52435302734375
1715093183460193800,2.55719384765625,3.2240142822265625,-12.052200317382812,0.765380859375
1715093183470173000,2.5671728515625,2.9654541015625,-11.185501098632812,0.411041259765625
1715093183480121900,2.577121826171875,-0.589935302734375,-8.980438232421875,0.4924468994140625
1715093183490101000,2.58710107421875,-2.512481689453125,-8.38427734375,-1.566558837890625
1715093183500080400,2.597080322265625,-2.067169189453125,-7.785736083984375,-4.0397796630859375
1715093183510029000,2.607029052734375,-0.90118408203125,-6.91424560546875,-2.775634765625
1715093183520008200,2.61700830078125,1.23443603515625,-9.586166381835938,2.56103515625
1715093183529956900,2.626956787109375,2.661376953125,-9.76812744140625,4.6775054931640625
1715093183539936300,2.636936279296875,2.1131134033203125,-9.128875732421875,6.5545654296875
1715093183549915400,2.646915283203125,0.8250274658203125,-9.528717041015625,5.376617431640625
1715093183559864300,2.6568642578125,0.59039306640625,-11.017913818359375,4.8283538818359375
1715093183569843500,2.666843505859375,0.8872833251953125,-10.914962768554688,5.110870361328125
1715093183579822600,2.676822509765625,-0.695281982421875,-12.665115356445312,8.05572509765625
1715093183589802000,2.686802001953125,-0.896392822265625,-13.352249145507812,8.400497436523438
1715093183599781000,2.696781005859375,-0.67852783203125,-12.803985595703125,4.0693817138671875
1715093183609730000,2.70672998046875,-2.26348876953125,-12.334716796875,1.098175048828125
1715093183619709200,2.716709228515625,-2.289825439453125,-11.846298217773438,1.7589874267578125
1715093183629688300,2.726688232421875,-2.3089752197265625,-14.3099365234375,0.631317138671875
1715093183639637200,2.73663720703125,-2.543609619140625,-14.319503784179688,-0.27130126953125
1715093183649616400,2.746616455078125,-4.2913818359375,-12.112060546875,2.31683349609375
1715093183659565000,2.75656494140625,-1.5739593505859375,-11.513504028320312,2.503570556640625
1715093183669555700,2.7665556640625,-2.732757568359375,-11.867843627929688,-1.89935302734375
1715093183679534800,2.776534912109375,-1.1190643310546875,-12.46160888671875,-0.3359527587890625
1715093183689483500,2.7864833984375,0.7484130859375,-9.461669921875,1.878692626953125
1715093183699463000,2.796462890625,0.2695770263671875,-8.45611572265625,0.1955718994140625
1715093183709442000,2.806442138671875,-1.3513031005859375,-8.14007568359375,-2.5074920654296875
1715093183719391000,2.816390869140625,-1.751129150390625,-9.33477783203125,-4.207366943359375
1715093183729370000,2.8263701171875,-0.4582672119140625,-7.7474212646484375,-4.84661865234375
1715093183739349200,2.836349365234375,-0.345733642578125,-8.16162109375,-1.956817626953125
1715093183749298200,2.846298095703125,-0.61627197265625,-5.5016632080078125,-2.6726837158203125
1715093183759277300,2.85627734375,-0.482208251953125,-4.6014404296875,-1.9903411865234375
1715093183769256400,2.86625634765625,-1.688873291015625,-4.5439910888671875,-0.2856597900390625
1715093183779205400,2.876205322265625,-2.6633148193359375,-4.8360748291015625,0.451751708984375
1715093183789184500,2.8861845703125,-0.8173980712890625,-4.7834014892578125,-0.2377777099609375
1715093183799133200,2.89613330078125,-3.6593017578125,-5.788970947265625,-0.8004150390625
1715093183809112600,2.906112548828125,-5.7063446044921875,-7.21112060546875,-1.111663818359375
1715093183819091700,2.916091796875,-1.1621551513671875,-8.147262573242188,-1.3295440673828125
1715093183829040400,2.926040283203125,-2.0719451904296875,-9.389846801757812,-4.755645751953125
1715093183839019800,2.936019775390625,-4.0304107666015625,-7.9365692138671875,-2.2393341064453125
1715093183848999000,2.9459990234375,-4.82049560546875,-4.3165283203125,-0.266510009765625
1715093183858978300,2.955978271484375,-3.5970611572265625,-1.3070220947265625,-0.805206298828125
1715093183868927000,2.965927001953125,-2.522064208984375,-0.346954345703125,-1.5067138671875
1715093183878906000,2.975906005859375,0.6861724853515625,-0.5767974853515625,1.011993408203125
1715093183888885500,2.985885498046875,0.9471282958984375,-2.9111328125,2.1564178466796875
1715093183898834200,2.995834228515625,2.211273193359375,-4.6756591796875,1.41900634765625
1715093183908813600,3.0058134765625,4.502532958984375,-6.9860687255859375,0.916229248046875
1715093183918792700,3.015792724609375,5.17529296875,-8.38427734375,-0.8650665283203125
1715093183928741400,3.025741455078125,4.7658843994140625,-9.200714111328125,0.061492919921875
1715093183938720800,3.035720703125,2.9582672119140625,-12.8111572265625,-0.9919586181640625
1715093183948700000,3.045699951171875,-3.3624267578125,-30.451644897460938,-19.298019409179688
1715093183958648600,3.055648681640625,-1.7583160400390625,-30.980758666992188,-10.300613403320312
1715093183968628000,3.0656279296875,0.7938995361328125,-21.815750122070312,2.5730133056640625
1715093183978607000,3.075607177734375,-2.534027099609375,-19.378463745117188,-0.8770294189453125
1715093183988555800,3.0855556640625,-4.049560546875,-17.846176147460938,-4.2097625732421875
1715093183998535200,3.09553515625,-2.613037109375,-14.70257568359375,-1.8682403564453125
1715093184008514300,3.105514404296875,1.0309295654296875,-11.592514038085938,-0.0845489501953125
1715093184018463200,3.115463134765625,-0.0440673828125,-12.425689697265625,-0.1851043701171875
1715093184028442400,3.1254423828125,2.216064453125,-10.467239379882812,-1.1284332275390625
1715093184038421500,3.13542138671875,-0.2739105224609375,-12.337112426757812,-0.7764739990234375
1715093184048370400,3.145370361328125,-0.3170013427734375,-12.92608642578125,-1.6527557373046875
1715093184058349600,3.155349609375,0.6239166259765625,-10.879043579101562,-1.8323211669921875
1715093184068329000,3.165328857421875,-0.5492401123046875,-6.3779449462890625,-0.6687469482421875
1715093184078277600,3.175277587890625,-0.3265838623046875,-4.5391998291015625,-0.7549285888671875
1715093184088256800,3.1852568359375,0.482666015625,-4.8983306884765625,-0.5634002685546875
1715093184098205400,3.195205322265625,1.92156982421875,-5.499267578125,0.0543060302734375
1715093184108184800,3.205184814453125,2.4770355224609375,-7.232666015625,0.2386627197265625
1715093184118164000,3.2151640625,2.685333251953125,-7.8216400146484375,-0.43890380859375
1715093184128113000,3.22511279296875,2.20648193359375,-7.8192596435546875,-0.5969085693359375
1715093184138092000,3.235092041015625,1.7228546142578125,-8.029937744140625,-0.4843902587890625
1715093184148071200,3.2450712890625,1.406829833984375,-8.259780883789062,-0.1994781494140625
1715093184158050600,3.255050537109375,1.2942962646484375,-8.389068603515625,0.2554168701171875
1715093184167999200,3.264999267578125,1.3589324951171875,-8.317245483398438,0.66961669921875
1715093184177978600,3.274978515625,1.493011474609375,-8.152053833007812,0.9090423583984375
1715093184187957800,3.284957763671875,1.682159423828125,-7.9150238037109375,1.1101531982421875
1715093184197906400,3.294906494140625,1.8186187744140625,-7.7354583740234375,1.2011260986328125
1715093184207885800,3.3048857421875,1.92156982421875,-7.7474212646484375,1.31365966796875
1715093184217865000,3.314864990234375,1.993408203125,-8.005996704101562,1.3687286376953125
1715093184227813600,3.324813720703125,2.1346588134765625,-8.386672973632812,1.4525299072265625
1715093184237793000,3.33479296875,2.254364013671875,-8.865524291992188,1.5602569580078125
1715093184247772200,3.344772216796875,2.443511962890625,-9.5550537109375,1.7541961669921875
1715093184257720800,3.354720947265625,2.5823822021484375,-10.191909790039062,2.14923095703125
1715093184267700200,3.3647001953125,2.63983154296875,-10.558212280273438,2.671173095703125
1715093184277679400,3.374679443359375,2.338165283203125,-10.84552001953125,3.1907196044921875
1715093184287628000,3.3846279296875,2.16339111328125,-11.168746948242188,3.3559112548828125
1715093184297607400,3.394607421875,1.768341064453125,-11.673919677734375,3.169158935546875
1715093184307586600,3.404586669921875,1.576812744140625,-12.258102416992188,2.587371826171875
1715093184317535500,3.414535400390625,1.619903564453125,-13.017059326171875,1.64166259765625
1715093184327514600,3.4245146484375,1.799468994140625,-13.804763793945312,0.63848876953125
1715093184337493800,3.43449365234375,2.5632171630859375,-14.242889404296875,0.135711669921875
1715093184347442700,3.444442626953125,3.5759735107421875,-13.670684814453125,0.31048583984375
1715093184357421800,3.454421875,3.6071014404296875,-12.993118286132812,0.5403289794921875
1715093184367370500,3.46437060546875,3.1881103515625,-12.918899536132812,1.335205078125
1715093184377350000,3.474349853515625,2.929534912109375,-13.270843505859375,2.2976837158203125
1715093184387329000,3.4843291015625,1.3038787841796875,-14.44879150390625,2.58258056640625
1715093184397277700,3.494277587890625,-0.879638671875,-15.425628662109375,1.339996337890625
1715093184407257000,3.504257080078125,-1.720001220703125,-15.425628662109375,-1.078155517578125
1715093184417236200,3.514236328125,-1.79901123046875,-14.728912353515625,-2.924072265625
1715093184427215600,3.524215576171875,-2.4286956787109375,-14.068115234375,-5.73248291015625
1715093184437164300,3.534164306640625,-3.008087158203125,-12.940444946289062,-6.699737548828125
1715093184447143400,3.544143310546875,-2.74951171875,-10.543853759765625,-4.45635986328125
1715093184457122800,3.554122802734375,-1.6793060302734375,-8.494415283203125,-1.78204345703125
1715093184467071500,3.564071533203125,-1.348907470703125,-7.63250732421875,-0.67352294921875
1715093184477051000,3.57405078125,-1.09033203125,-6.8759307861328125,-0.9033660888671875
1715093184487030000,3.584030029296875,-1.676910400390625,-6.30133056640625,-1.4253082275390625
1715093184496978700,3.593978759765625,-2.744720458984375,-6.069091796875,-1.9113311767578125
1715093184506958000,3.6039580078125,-3.0320281982421875,-6.2486572265625,-2.72296142578125
1715093184516937200,3.613937255859375,-2.5986785888671875,-6.7227020263671875,-2.790008544921875
1715093184526886000,3.623885986328125,-1.7152099609375,-7.5032196044921875,-3.14434814453125
1715093184536865300,3.633865234375,-0.8485107421875,-8.231048583984375,-3.826690673828125
1715093184546844400,3.643844482421875,-0.309814453125,-8.714691162109375,-4.9376068115234375
1715093184556793000,3.65379296875,-0.261932373046875,-8.695526123046875,-6.1011810302734375
1715093184566772500,3.6637724609375,-0.7288055419921875,-8.073043823242188,-6.06048583984375
1715093184576751600,3.673751708984375,-1.1717376708984375,-7.311676025390625,-5.7947235107421875
1715093184586700500,3.683700439453125,-1.4422760009765625,-6.7801666259765625,-5.01422119140625
1715093184596679700,3.6936796875,-1.1956787109375,-6.440185546875,-4.554534912109375
1715093184606658800,3.703658935546875,-0.06561279296875,-6.2031707763671875,-4.3941192626953125
1715093184616607700,3.713607666015625,0.779541015625,-6.3348541259765625,-4.1403350830078125
1715093184626587000,3.7235869140625,1.3685150146484375,-6.4521636962890625,-3.5753021240234375
1715093184636566000,3.73356591796875,1.069244384765625,-7.4194183349609375,-3.65191650390625
1715093184646515000,3.743514892578125,0.6622314453125,-8.24542236328125,-3.122802734375
1715093184656494000,3.753494140625,0.061279296875,-9.001983642578125,-2.775634765625
1715093184666442800,3.76344287109375,-0.6186676025390625,-9.710678100585938,-2.7253570556640625
1715093184676422100,3.773422119140625,-1.2459564208984375,-10.258941650390625,-2.3398895263671875
1715093184686401300,3.7834013671875,-1.561981201171875,-10.14642333984375,-1.7964019775390625
1715093184696350000,3.793349853515625,-1.5548095703125,-9.765731811523438,-1.41094970703125
1715093184706329300,3.803329345703125,-1.751129150390625,-9.4066162109375,-1.30560302734375
1715093184716308500,3.81330859375,-1.846893310546875,-9.085784912109375,-1.492340087890625
1715093184726288000,3.823287841796875,-1.856475830078125,-8.772140502929688,-1.339111328125
1715093184736236500,3.833236572265625,-1.734375,-8.554275512695312,-1.195465087890625
1715093184746215700,3.843215576171875,-1.01611328125,-8.549484252929688,-1.02069091796875
1715093184756195000,3.853195068359375,-0.82696533203125,-8.757781982421875,-1.1834869384765625
1715093184766143700,3.863143798828125,-0.2667236328125,-8.791305541992188,-1.1403961181640625
1715093184776123100,3.873123046875,-0.302642822265625,-9.08099365234375,-1.05181884765625
1715093184786102300,3.883102294921875,-0.441497802734375,-9.179153442382812,-1.05181884765625
1715093184796051000,3.893051025390625,-1.001739501953125,-9.181549072265625,-1.09490966796875
1715093184806030300,3.9030302734375,-1.435089111328125,-9.337173461914062,-0.7261962890625
1715093184816009500,3.913009521484375,-1.708038330078125,-9.432937622070312,-0.6639556884765625
1715093184825958100,3.922958251953125,-1.667327880859375,-9.327606201171875,-0.307220458984375
1715093184835937500,3.9329375,-1.6409912109375,-9.53350830078125,-0.1300506591796875
1715093184845916700,3.942916748046875,-1.846893310546875,-9.708282470703125,-0.0247039794921875
1715093184855865300,3.952865234375,-1.4470672607421875,-9.612503051757812,0.1069793701171875
1715093184865844700,3.9628447265625,-1.540435791015625,-9.825592041015625,0.11895751953125
1715093184875823900,3.972823974609375,-1.3728485107421875,-10.105712890625,0.0638885498046875
1715093184885772800,3.982772705078125,-1.265106201171875,-10.467239379882812,0.2266845703125
1715093184895752000,3.992751953125,-1.1501922607421875,-10.809616088867188,-0.2952423095703125
1715093184905700600,4.00270068359375,0.003814697265625,-10.59173583984375,-0.541839599609375
1715093184915680000,4.012679931640625,0.647857666015625,-10.256546020507812,-0.7142333984375
1715093184925659100,4.0226591796875,0.509002685546875,-10.055435180664062,-1.10687255859375
1715093184935607800,4.03260791015625,1.4858245849609375,-9.610122680664062,-1.185882568359375
1715093184945587200,4.042587158203125,2.548858642578125,-9.22943115234375,-1.042236328125
1715093184955566300,4.05256640625,3.5879364013671875,-9.164794921875,-1.0398406982421875
1715093184965515000,4.062514892578125,4.397186279296875,-9.277328491210938,-1.0709686279296875
1715093184975494400,4.072494384765625,2.137054443359375,-9.600540161132812,-1.4085540771484375
1715093184985473500,4.0824736328125,1.2631683349609375,-10.61328125,-1.3893890380859375
1715093184995422500,4.09242236328125,0.056488037109375,-11.568572998046875,-1.7317657470703125
1715093185005401600,4.102401611328125,-0.103912353515625,-12.047409057617188,-2.0118865966796875
1715093185015380700,4.112380615234375,-1.15496826171875,-12.370635986328125,-2.1387786865234375
1715093185025360100,4.122360107421875,0.6717987060546875,-11.7960205078125,-1.944854736328125
1715093185035308800,4.132308837890625,0.56884765625,-11.1400146484375,-1.64556884765625
1715093185045288200,4.1422880859375,-0.1949005126953125,-10.565399169921875,-1.1715240478515625
1715093185055267300,4.152267333984375,-0.6497955322265625,-9.902206420898438,-0.695068359375
1715093185065216000,4.162216064453125,-1.2890472412109375,-9.114517211914062,-0.1468048095703125
1715093185075195400,4.1721953125,-1.4183349609375,-8.209503173828125,0.38470458984375
1715093185085174500,4.182174560546875,-1.66015625,-7.5080108642578125,-0.446075439453125
1715093185095123200,4.192123291015625,-1.9498443603515625,-6.9477691650390625,-1.808380126953125
1715093185105102600,4.2021025390625,-1.69366455078125,-6.6101837158203125,-3.393341064453125
1715093185115081700,4.212081787109375,-1.380035400390625,-6.7634124755859375,-4.6526947021484375
1715093185125030400,4.222030517578125,-1.878021240234375,-7.005218505859375,-6.4866485595703125
1715093185135009800,4.232009765625,-2.8045806884765625,-7.6827850341796875,-8.430740356445312
1715093185144989000,4.241989013671875,-4.011260986328125,-8.475265502929688,-10.0133056640625
1715093185154937600,4.2519375,-4.5260162353515625,-9.274932861328125,-11.052398681640625
1715093185164917000,4.2619169921875,-4.8276824951171875,-11.259719848632812,-11.571929931640625
1715093185174896000,4.271896240234375,-4.2003936767578125,-14.065719604492188,-10.695663452148438
1715093185184845000,4.281844970703125,-3.4989013671875,-16.531753540039062,-7.228851318359375
1715093185194824200,4.29182421875,-2.84527587890625,-18.037704467773438,-3.024627685546875
1715093185204803300,4.30180322265625,-3.2259521484375,-18.059249877929688,-0.6974639892578125
1715093185214752300,4.311752197265625,-5.9218292236328125,-16.895675659179688,1.6009674072265625
1715093185224731400,4.3217314453125,-6.97528076171875,-16.347396850585938,5.52984619140625
1715093185234680000,4.33168017578125,-6.9776763916015625,-14.3099365234375,6.00390625
1715093185244659500,4.341659423828125,-5.11737060546875,-10.83355712890625,7.057342529296875
1715093185254638600,4.351638671875,-2.4215087890625,-9.04986572265625,5.6136474609375
1715093185264587300,4.361587158203125,-0.4223480224609375,-8.480056762695312,3.240997314453125
1715093185274566700,4.371566650390625,-0.06561279296875,-8.417800903320312,0.9832611083984375
1715093185284545800,4.3815458984375,0.36773681640625,-8.520751953125,-0.6280364990234375
1715093185294525200,4.391525146484375,0.542510986328125,-8.597366333007812,-1.4324951171875
1715093185304473900,4.401473876953125,1.9000244140625,-8.38189697265625,-1.4420623779296875
1715093185314453000,4.411452880859375,2.91278076171875,-8.0562744140625,-1.5043182373046875
1715093185324432400,4.421432373046875,3.279083251953125,-7.6995391845703125,-1.6264190673828125
1715093185334381000,4.431381103515625,2.7834930419921875,-7.4768829345703125,-2.8570404052734375
1715093185344360400,4.4413603515625,2.1562042236328125,-7.21112060546875,-3.3813629150390625
1715093185354339600,4.451339599609375,1.409210205078125,-7.1153564453125,-3.5920562744140625
1715093185364288300,4.461288330078125,0.6622314453125,-7.1392974853515625,-3.647125244140625
1715093185374267600,4.471267578125,0.0684661865234375,-7.1440887451171875,-3.4053192138671875
1715093185384246800,4.481246826171875,-0.2954559326171875,-6.9549407958984375,-2.96478271484375
1715093185394195500,4.491195556640625,-0.4319305419921875,-6.73468017578125,-2.4883270263671875
1715093185404174800,4.5011748046875,-0.1470184326171875,-6.7011566162109375,-1.91851806640625
1715093185414154000,4.511154052734375,0.4515380859375,-6.6700286865234375,-1.5689544677734375
1715093185424102700,4.5211025390625,1.2248687744140625,-6.6748199462890625,-1.57135009765625
1715093185434082000,4.53108203125,1.861724853515625,-6.8160858154296875,-1.734161376953125
1715093185444061200,4.541061279296875,2.2783050537109375,-6.7274932861328125,-1.73895263671875
1715093185454010000,4.551010009765625,2.465057373046875,-6.5407562255859375,-1.7628936767578125
1715093185463989200,4.5609892578125,2.6518096923828125,-6.3372344970703125,-1.5833282470703125
1715093185473968400,4.570968505859375,2.92474365234375,-6.212738037109375,-1.0853271484375
1715093185483917300,4.580917236328125,3.1952972412109375,-6.3109130859375,-0.472412109375
1715093185493896400,4.590896484375,3.1210784912109375,-6.646087646484375,0.2745819091796875
1715093185503845000,4.60084521484375,2.793060302734375,-7.194366455078125,1.2729644775390625
1715093185513824500,4.610824462890625,2.711669921875,-7.4146270751953125,3.5139312744140625
1715093185523803600,4.6208037109375,2.3932342529296875,-8.104156494140625,5.6471710205078125
1715093185533752300,4.63075244140625,1.7922821044921875,-9.574203491210938,6.370208740234375
1715093185543731700,4.640731689453125,0.7292633056640625,-11.211837768554688,6.87060546875
1715093185553710800,4.6507109375,-0.314605712890625,-12.7369384765625,6.2337493896484375
1715093185563659800,4.66065966796875,-0.9442901611328125,-13.905319213867188,3.928131103515625
1715093185573639000,4.670638916015625,-1.6529693603515625,-14.83905029296875,0.504425048828125
1715093185583618000,4.6806181640625,-1.5572052001953125,-16.000244140625,-2.950408935546875
1715093185593597400,4.690597412109375,1.5217437744140625,-17.72406005859375,-5.993438720703125
1715093185603546000,4.700546142578125,6.44183349609375,-18.672164916992188,-6.5704498291015625
1715093185613525200,4.710525146484375,5.3476715087890625,-15.56689453125,-4.4204559326171875
1715093185623504600,4.720504638671875,4.038055419921875,-13.270843505859375,-2.6822662353515625
1715093185633453300,4.730453369140625,4.75152587890625,-15.037765502929688,-0.88421630859375
1715093185643432700,4.7404326171875,2.2447967529296875,-15.739273071289062,0.674407958984375
1715093185653411800,4.750411865234375,-1.4183349609375,-14.956375122070312,-0.83154296875
1715093185663360500,4.760360595703125,-7.3487701416015625,-15.226913452148438,-4.3773651123046875
1715093185673340000,4.77033984375,-6.0319671630859375,-17.810256958007812,-6.93914794921875
1715093185683319000,4.780319091796875,-4.961761474609375,-16.347396850585938,-7.6334686279296875
1715093185693267700,4.790267822265625,-3.199615478515625,-10.689895629882812,-5.41644287109375
1715093185703247000,4.8002470703125,-0.841339111328125,-8.175994873046875,-1.331939697265625
1715093185713226200,4.810226318359375,0.3964691162109375,-7.2135162353515625,1.423797607421875
1715093185723175000,4.8201748046875,-0.008148193359375,-6.698760986328125,2.534698486328125
1715093185733154300,4.830154296875,-1.370452880859375,-5.492095947265625,1.6799774169921875
1715093185743133400,4.840133544921875,-1.5548095703125,-3.95501708984375,-0.402984619140625
1715093185753082400,4.850082275390625,-0.45587158203125,-3.4522247314453125,-1.6000823974609375
1715093185763061500,4.8600615234375,0.7340545654296875,-4.6660919189453125,-1.6360015869140625
1715093185773040600,4.87004052734375,1.2727508544921875,-6.41864013671875,-2.8666229248046875
1715093185782989600,4.879989501953125,0.9782562255859375,-8.226272583007812,-5.6726226806640625
1715093185792968700,4.88996875,-0.800628662109375,-10.673141479492188,-8.897613525390625
1715093185802917400,4.89991748046875,-1.6218414306640625,-11.851089477539062,-10.669326782226562
1715093185812896800,4.909896728515625,-1.6362152099609375,-10.345138549804688,-11.176895141601562
1715093185822876000,4.9198759765625,-1.317779541015625,-8.506393432617188,-9.828948974609375
1715093185832824600,4.929824462890625,0.3222503662109375,-6.5048370361328125,-6.79071044921875
1715093185842804000,4.939803955078125,1.8593292236328125,-4.838470458984375,-5.030975341796875
1715093185852783000,4.949783203125,3.0372772216796875,-3.8712158203125,-3.8027496337890625
1715093185862762500,4.959762451171875,3.17852783203125,-3.62939453125,-2.833099365234375
1715093185872711200,4.969711181640625,2.23760986328125,-4.3117523193359375,-2.34228515625
1715093185882690300,4.979690185546875,0.2432403564453125,-5.640533447265625,-1.6168365478515625
1715093185892669700,4.989669677734375,-1.35369873046875,-7.352386474609375,-0.6016998291015625
1715093185902618400,4.999618408203125,-2.268280029296875,-9.47125244140625,-0.149200439453125
1715093185912597800,5.00959765625,-2.8955535888671875,-11.630828857421875,-0.108489990234375
1715093185922577000,5.019576904296875,-2.4933319091796875,-12.854263305664062,-0.0510406494140625
1715093185932525600,5.029525634765625,-2.0647735595703125,-12.571746826171875,0.23626708984375
1715093185942505000,5.0395048828125,-1.69366455078125,-11.386611938476562,0.23626708984375
1715093185952484000,5.049484130859375,-1.339324951171875,-10.09375,-0.31439208984375
1715093185962432800,5.059432861328125,-1.085540771484375,-8.99481201171875,-0.6687469482421875
1715093185972412200,5.069412109375,-1.1837005615234375,-8.195144653320312,-0.7333831787109375
1715093185982391300,5.079391357421875,-1.22918701171875,-7.5989837646484375,-0.5059356689453125
1715093185992340000,5.089340087890625,-1.3201751708984375,-7.565460205078125,-0.101318359375
1715093186002319400,5.0993193359375,-0.74078369140625,-7.733062744140625,0.420623779296875
1715093186012298500,5.109298583984375,-0.388824462890625,-8.058670043945312,1.0933990478515625
1715093186022247400,5.119247314453125,-0.5971221923828125,-8.587799072265625,1.816436767578125
1715093186032226600,5.1292265625,-0.879638671875,-9.258163452148438,2.1827545166015625
1715093186042205700,5.139205810546875,-1.61944580078125,-10.086563110351562,2.28570556640625
1715093186052154600,5.149154541015625,-2.1653289794921875,-10.744964599609375,2.0391082763671875
1715093186062133800,5.1591337890625,-2.5148773193359375,-11.190292358398438,1.7877044677734375
1715093186072113000,5.16911279296875,-1.7319793701171875,-11.307601928710938,1.0814208984375
1715093186082061800,5.179061767578125,-0.599517822265625,-11.207046508789062,0.1644439697265625
1715093186092041000,5.189041015625,0.530548095703125,-10.840728759765625,0.0495147705078125
1715093186101989600,5.19898974609375,2.8002471923828125,-9.854324340820312,-0.38623046875
1715093186111969000,5.208968994140625,4.650970458984375,-8.5087890625,-0.3096160888671875
1715093186121948200,5.2189482421875,5.12261962890625,-7.3811187744140625,0.3631591796875
1715093186131896800,5.228896728515625,4.9071502685546875,-6.6101837158203125,0.5355377197265625
1715093186141876200,5.238876220703125,4.03326416015625,-6.3946990966796875,0.272186279296875
1715093186151855400,5.24885546875,1.4211883544921875,-7.510406494140625,-0.381439208984375
1715093186161834800,5.258834716796875,-0.283477783203125,-9.411392211914062,-1.2026519775390625
1715093186171814000,5.26881396484375,-0.5947265625,-11.190292358398438,-2.232147216796875
1715093186181762600,5.278762451171875,-0.5133209228515625,-12.320358276367188,-3.3143310546875
1715093186191742000,5.288741943359375,1.1099395751953125,-12.17669677734375,-3.2401123046875
1715093186201721000,5.29872119140625,1.9120025634765625,-10.393020629882812,-1.724578857421875
1715093186211670000,5.308669921875,0.6981353759765625,-9.04986572265625,-0.8028106689453125
1715093186221649200,5.318649169921875,-1.0783538818359375,-8.300491333007812,-0.2114410400390625
1715093186231597800,5.328597900390625,-1.401580810546875,-6.7155303955078125,0.2290802001953125
1715093186241577200,5.3385771484375,-2.0815277099609375,-5.7171478271484375,-0.90576171875
1715093186251556400,5.348556396484375,-2.5986785888671875,-5.9493865966796875,-3.0533599853515625
1715093186261505000,5.358505126953125,-2.596282958984375,-6.8376312255859375,-5.2033538818359375
1715093186271484400,5.368484375,-2.320953369140625,-8.16162109375,-6.965484619140625
1715093186281463600,5.378463623046875,-2.9626007080078125,-10.529495239257812,-9.508132934570312
1715093186291412200,5.388412109375,-4.2315216064453125,-12.612442016601562,-11.780227661132812
1715093186301391600,5.3983916015625,-5.2442626953125,-14.563720703125,-13.44659423828125
1715093186311370800,5.408370849609375,-5.3041229248046875,-17.2691650390625,-14.849594116210938
1715093186321319700,5.418319580078125,-5.3184967041015625,-20.398391723632812,-13.776992797851562
1715093186331298800,5.428298828125,-5.6728363037109375,-22.871597290039062,-10.800994873046875
1715093186341278000,5.43827783203125,-6.654449462890625,-23.527618408203125,-6.1538543701171875
1715093186351227000,5.448226806640625,-8.450103759765625,-21.06158447265625,-0.0582122802734375
1715093186361206000,5.4582060546875,-7.762969970703125,-15.9068603515625,6.497100830078125
1715093186371185400,5.468185302734375,-7.889862060546875,-12.796798706054688,6.5090789794921875
1715093186381134000,5.478134033203125,-6.063079833984375,-9.40899658203125,7.172271728515625
1715093186391113200,5.48811328125,-1.995330810546875,-6.9645233154296875,7.17706298828125
1715093186401062000,5.498061767578125,-0.7192230224609375,-5.350830078125,4.4165496826171875
1715093186411041300,5.508041259765625,-1.8636627197265625,-5.4106903076171875,1.837982177734375
1715093186421020400,5.5180205078125,-1.0568084716796875,-6.2678070068359375,-0.065399169921875
1715093186430999800,5.527999755859375,0.3797149658203125,-6.624542236328125,-0.5226898193359375
1715093186440948500,5.537948486328125,2.158599853515625,-6.564697265625,-1.2098236083984375
1715093186450927600,5.547927734375,3.350921630859375,-6.2247161865234375,-1.7940216064453125
1715093186460907000,5.557906982421875,3.3173980712890625,-5.71954345703125,-1.7916259765625
1715093186470886100,5.56788623046875,2.98699951171875,-5.425048828125,-2.105255126953125
1715093186480834800,5.577834716796875,2.37408447265625,-5.3891448974609375,-2.136383056640625
1715093186490814200,5.587814208984375,1.5839996337890625,-5.5016632080078125,-1.7533111572265625
1715093186500793300,5.59779345703125,0.5975799560546875,-5.9326171875,-1.5785369873046875
1715093186510742300,5.6077421875,0.0540924072265625,-6.5431365966796875,-1.4205169677734375
1715093186520721400,5.617721435546875,-0.630645751953125,-7.21112060546875,-1.9496307373046875
1715093186530700500,5.627700439453125,-1.001739501953125,-7.6660308837890625,-2.442840576171875
1715093186540649500,5.6376494140625,-0.8365478515625,-7.764190673828125,-2.663116455078125
1715093186550628600,5.647628662109375,0.0948028564453125,-7.63250732421875,-2.6607208251953125
1715093186560608000,5.65760791015625,0.93756103515625,-7.5415191650390625,-3.0366058349609375
1715093186570556700,5.667556640625,1.9239654541015625,-7.3021087646484375,-3.1156158447265625
1715093186580535800,5.677535888671875,2.814605712890625,-7.215911865234375,-2.971954345703125
1715093186590484500,5.687484375,3.3964080810546875,-7.089019775390625,-2.5817108154296875
1715093186600464000,5.6974638671875,3.5831451416015625,-7.129730224609375,-1.9232940673828125
1715093186610443000,5.707443115234375,3.4011993408203125,-7.42181396484375,-1.09490966796875
1715093186620392000,5.717391845703125,3.0851593017578125,-7.6851806640625,0.52117919921875
1715093186630371000,5.72737109375,2.9486846923828125,-7.615753173828125,3.367889404296875
1715093186640350200,5.73735009765625,2.56561279296875,-8.046707153320312,5.6854705810546875
1715093186650299100,5.747299072265625,2.1777496337890625,-9.150436401367188,6.4659881591796875
1715093186660278300,5.7572783203125,1.524139404296875,-10.914962768554688,7.229736328125
1715093186670257700,5.767257568359375,0.916015625,-13.404922485351562,7.7301177978515625
1715093186680206300,5.777206298828125,-0.31939697265625,-15.928421020507812,5.6639251708984375
1715093186690185500,5.787185546875,-2.206024169921875,-18.025741577148438,1.0095977783203125
1715093186700164900,5.797164794921875,-2.37841796875,-19.335357666015625,-3.7476806640625
1715093186710113500,5.807113525390625,0.9998016357421875,-19.785476684570312,-7.1163177490234375
1715093186720092700,5.8170927734375,3.8824310302734375,-17.372116088867188,-6.3477935791015625
1715093186730072000,5.827072021484375,3.827362060546875,-11.240570068359375,-1.925689697265625
1715093186740051200,5.83705126953125,4.251129150390625,-8.448928833007812,-0.5155181884765625
1715093186749999900,5.846999755859375,4.16015625,-9.423370361328125,1.804473876953125
1715093186759979300,5.856979248046875,0.1642303466796875,-10.139236450195312,2.8746795654296875
1715093186769958400,5.86695849609375,0.5449066162109375,-10.584548950195312,-0.7118377685546875
1715093186779907300,5.8769072265625,-1.7966156005859375,-16.009811401367188,-3.5609283447265625
1715093186789886500,5.886886474609375,-6.347991943359375,-22.51007080078125,-5.294342041015625
1715093186799865600,5.896865478515625,-7.4804534912109375,-22.050384521484375,-9.807403564453125
1715093186809814500,5.906814453125,-5.7111358642578125,-14.7744140625,-11.507293701171875
1715093186819793700,5.916793701171875,-3.0535736083984375,-8.6260986328125,-6.1107635498046875
1715093186829773000,5.92677294921875,-0.3313751220703125,-7.237457275390625,-2.4715728759765625
1715093186839721700,5.9367216796875,1.4044342041015625,-6.5000457763671875,0.2865447998046875
1715093186849700900,5.946700927734375,1.006988525390625,-6.0882415771484375,1.730255126953125
1715093186859680300,5.95668017578125,-0.4582672119140625,-5.8919219970703125,1.2681732177734375
1715093186869629000,5.96662890625,-0.7671051025390625,-5.3316802978515625,0.0040283203125
1715093186879608000,5.976608154296875,0.0014190673828125,-5.312530517578125,-1.3079986572265625
1715093186889587500,5.98658740234375,1.2559814453125,-6.0068359375,-2.6463470458984375
1715093186899536100,5.9965361328125,1.7635650634765625,-6.8304443359375,-4.6885986328125
1715093186909515300,6.006515380859375,1.418792724609375,-8.149658203125,-6.2017364501953125
1715093186919464200,6.016464111328125,-0.161376953125,-9.974029541015625,-7.3222198486328125
1715093186929443300,6.026443359375,-1.1669464111328125,-10.179931640625,-7.530517578125
1715093186939422500,6.03642236328125,-2.806976318359375,-8.970870971679688,-7.7005157470703125
1715093186949371400,6.046371337890625,-2.3185577392578125,-7.986846923828125,-7.71966552734375
1715093186959350500,6.0563505859375,-0.17095947265625,-6.62933349609375,-4.3989105224609375
1715093186969330000,6.066329833984375,1.32781982421875,-5.86798095703125,-3.604034423828125
1715093186979278600,6.076278564453125,2.49139404296875,-5.6046142578125,-3.0054779052734375
1715093186989257700,6.0862578125,2.4411163330078125,-5.621368408203125,-2.3279266357421875
1715093186999237000,6.096237060546875,1.5001983642578125,-5.6046142578125,-1.7293701171875
1715093187009216300,6.10621630859375,-0.0536346435546875,-6.0834503173828125,-1.1547698974609375
1715093187019165000,6.1161650390625,-1.7367706298828125,-6.9118499755859375,-0.7285919189453125
1715093187029144300,6.126144287109375,-2.2443389892578125,-8.274154663085938,-0.88421630859375
1715093187039123500,6.13612353515625,-2.5819244384765625,-8.899032592773438,0.6073760986328125
1715093187049072000,6.146072021484375,-2.4286956787109375,-9.631668090820312,1.2011260986328125
1715093187059051500,6.156051513671875,-2.0767364501953125,-10.038681030273438,1.05987548828125
1715093187069030700,6.16603076171875,-1.7056427001953125,-9.856719970703125,1.5698394775390625
1715093187078979600,6.1759794921875,-1.08074951171875,-9.423370361328125,1.5482940673828125
1715093187088958700,6.185958740234375,-0.9347076416015625,-9.0594482421875,1.244232177734375
1715093187098937900,6.195937744140625,-1.15496826171875,-8.681167602539062,1.0814208984375
1715093187108886800,6.20588671875,-1.9282989501953125,-8.673980712890625,0.9521331787109375
1715093187118866000,6.215865966796875,-2.1988525390625,-8.8367919921875,0.810882568359375
1715093187128845300,6.22584521484375,-2.225189208984375,-9.107330322265625,0.525970458984375
1715093187138794000,6.2357939453125,-2.1916656494140625,-9.538284301757812,0.379913330078125
1715093187148773000,6.245773193359375,-1.95703125,-10.045867919921875,0.324859619140625
1715093187158752500,6.25575244140625,-2.0432281494140625,-10.656387329101562,0.04473876953125
1715093187168701200,6.265701171875,-0.6545867919921875,-10.735397338867188,0.0686798095703125
1715093187178680300,6.275680419921875,0.7484130859375,-10.500762939453125,-0.118072509765625
1715093187188659700,6.28565966796875,1.588775634765625,-9.667572021484375,-0.2066650390625
1715093187198608400,6.2956083984375,1.9718475341796875,-8.389068603515625,-0.3957977294921875
1715093187208587500,6.30558740234375,3.082763671875,-7.0531005859375,-0.40777587890625
1715093187218536400,6.315536376953125,4.6342010498046875,-6.37554931640625,-1.1930694580078125
1715093187228515600,6.325515625,4.3995819091796875,-6.739471435546875,-1.5737457275390625
1715093187238495000,6.335494873046875,3.31500244140625,-7.637298583984375,-1.5258636474609375
1715093187248443600,6.345443603515625,1.6318817138671875,-9.040298461914062,-0.9704132080078125
1715093187258422800,6.3554228515625,0.5496978759765625,-10.455276489257812,-0.5897369384765625
1715093187268402200,6.365402099609375,-0.087158203125,-11.903762817382812,-0.953643798828125
1715093187278350800,6.375350830078125,0.6119537353515625,-12.648361206054688,-1.88739013671875
1715093187288330000,6.385330078125,1.2104949951171875,-12.411331176757812,-1.6671142578125
1715093187298309400,6.395309326171875,0.5281524658203125,-11.171142578125,-0.074981689453125
1715093187308288500,6.40528857421875,0.5664520263671875,-11.8702392578125,0.7989044189453125
1715093187318237200,6.4152373046875,-0.09674072265625,-10.699478149414062,1.888275146484375
1715093187328216600,6.425216552734375,-2.596282958984375,-9.401824951171875,1.7326507568359375
1715093187338195700,6.43519580078125,-4.7798004150390625,-8.35076904296875,0.9880523681640625
1715093187348144600,6.44514453125,-4.6912078857421875,-7.0602874755859375,-0.2689056396484375
1715093187358123800,6.455123779296875,-3.865203857421875,-6.5790557861328125,-3.0366058349609375
1715093187368103000,6.46510302734375,-3.3001708984375,-7.098602294921875,-6.266387939453125
1715093187378051800,6.4750517578125,-3.752685546875,-8.733840942382812,-9.318984985351562
1715093187388031000,6.485031005859375,-4.2674407958984375,-11.290847778320312,-12.244705200195312
1715093187398010000,6.495010009765625,-4.1046295166015625,-13.385772705078125,-14.251052856445312
1715093187407959000,6.504958984375,-3.2235565185546875,-15.866165161132812,-16.427383422851562
1715093187417938200,6.514938232421875,-2.9961090087890625,-19.007354736328125,-16.961288452148438
1715093187427917600,6.52491748046875,-4.0256195068359375,-20.836532592773438,-13.633346557617188
1715093187437866200,6.5348662109375,-4.710357666015625,-21.236358642578125,-8.018936157226562
1715093187447845400,6.544845458984375,-6.07745361328125,-20.635421752929688,-2.1124420166015625
1715093187457824800,6.55482470703125,-7.9281768798828125,-17.326629638671875,3.8634796142578125
1715093187467773400,6.5647734375,-8.6129150390625,-13.864608764648438,7.8881378173828125
1715093187477752600,6.574752685546875,-9.675933837890625,-11.199859619140625,8.934402465820312
1715093187487732000,6.58473193359375,-6.673614501953125,-8.506393432617188,10.165023803710938
1715093187497680600,6.5946806640625,-2.9434356689453125,-6.2678070068359375,9.001434326171875
1715093187507659800,6.60465966796875,-1.571563720703125,-5.259857177734375,6.1188201904296875
1715093187517639200,6.61463916015625,-0.9993438720703125,-5.937408447265625,2.977630615234375
1715093187527587800,6.624587890625,0.6909637451171875,-6.528778076171875,1.62969970703125
1715093187537567200,6.634567138671875,2.3309783935546875,-6.6101837158203125,1.023956298828125
1715093187547516000,6.644515869140625,4.0212860107421875,-6.2725982666015625,0.1476898193359375
1715093187557495000,6.6544951171875,5.0148773193359375,-5.86798095703125,-0.68310546875
1715093187567474400,6.664474365234375,4.7323760986328125,-5.7961578369140625,-1.619232177734375
1715093187577453600,6.67445361328125,3.7196197509765625,-5.70037841796875,-2.7253570556640625
1715093187587402200,6.68440234375,2.438720703125,-5.61419677734375,-3.197021484375
1715093187597381600,6.694381591796875,1.0931854248046875,-5.736297607421875,-3.2472991943359375
1715093187607360800,6.70436083984375,0.07086181640625,-6.2247161865234375,-3.3765869140625
1715093187617340200,6.714340087890625,-0.61627197265625,-6.79693603515625,-3.594451904296875
1715093187627288800,6.724288818359375,-1.29144287109375,-7.27337646484375,-3.932037353515625
1715093187637268000,6.73426806640625,-1.243560791015625,-7.3092803955078125,-3.9559783935546875
1715093187647247400,6.744247314453125,-0.92034912109375,-7.282958984375,-3.9703369140625
1715093187657196000,6.754196044921875,0.07086181640625,-7.220703125,-3.7117767333984375
1715093187667175200,6.764175048828125,1.1362762451171875,-7.443359375,-3.4699554443359375
1715093187677154600,6.774154541015625,2.201690673828125,-7.7833404541015625,-3.192230224609375
1715093187687103200,6.784103271484375,2.876861572265625,-7.7258758544921875,-2.2991943359375
1715093187697082600,6.79408251953125,2.99896240234375,-8.00360107421875,-1.3462982177734375
1715093187707061800,6.804061767578125,2.77630615234375,-9.025924682617188,-0.5801544189453125
1715093187717010400,6.814010498046875,2.6996917724609375,-8.714691162109375,1.3112640380859375
1715093187726989800,6.82398974609375,2.623077392578125,-8.441741943359375,3.2912750244140625
1715093187736938500,6.8339384765625,2.3453521728515625,-8.36273193359375,5.7285614013671875
1715093187746917600,6.843917724609375,1.9646759033203125,-9.164794921875,7.3973236083984375
1715093187756897000,6.85389697265625,1.428375244140625,-10.529495239257812,7.9312286376953125
1715093187766845700,6.863845703125,1.313446044921875,-11.829544067382812,7.44281005859375
1715093187776824800,6.873824951171875,0.98065185546875,-13.124801635742188,4.76849365234375
1715093187786804200,6.88380419921875,0.5377197265625,-13.919677734375,0.863555908203125
1715093187796753000,6.8937529296875,1.387664794921875,-15.267608642578125,-3.139556884765625
1715093187806732000,6.90373193359375,2.2878875732421875,-17.209320068359375,-6.659027099609375
1715093187816711400,6.91371142578125,2.4243621826171875,-18.159805297851562,-6.3501739501953125
1715093187826660000,6.92366015625,-1.16455078125,-18.720046997070312,-5.4068603515625
1715093187836639500,6.933639404296875,0.7340545654296875,-17.393661499023438,-3.7357177734375
1715093187846618600,6.94361865234375,-1.8109893798828125,-14.5948486328125,-1.983154296875
1715093187856567300,6.9535673828125,1.3852691650390625,-14.740890502929688,0.01361083984375
1715093187866546700,6.963546630859375,0.04931640625,-16.744842529296875,-0.5705718994140625
1715093187876525800,6.97352587890625,-2.352081298828125,-14.465560913085938,-2.907318115234375
1715093187886505200,6.983505126953125,-3.7957763671875,-10.96044921875,-5.7205047607421875
1715093187896454000,6.993453857421875,-4.846832275390625,-9.1767578125,-3.7931671142578125
1715093187906433000,7.00343310546875,-4.0064697265625,-10.007553100585938,-0.2784881591796875
1715093187916412400,7.013412353515625,-1.274688720703125,-10.852706909179688,2.7741241455078125
1715093187926361000,7.023361083984375,-0.0799713134765625,-10.639617919921875,4.203460693359375
1715093187936340200,7.03334033203125,-0.384033203125,-9.183944702148438,3.12127685546875
1715093187946319600,7.043319580078125,-0.3864288330078125,-7.5415191650390625,1.37591552734375
1715093187956268300,7.053268310546875,0.23126220703125,-7.2757720947265625,-0.043853759765625
1715093187966247400,7.063247314453125,1.5839996337890625,-7.5415191650390625,-2.6583251953125
1715093187976226800,7.073226806640625,2.1083221435546875,-7.4409637451171875,-5.7516326904296875
1715093187986175500,7.083175537109375,1.5049896240234375,-7.3284454345703125,-7.97344970703125
1715093187996155000,7.09315478515625,0.19775390625,-7.6660308837890625,-9.012527465820312
1715093188006134000,7.103134033203125,-1.2507476806640625,-7.85516357421875,-9.089141845703125
1715093188016082700,7.113082763671875,-1.602691650390625,-7.3092803955078125,-8.114700317382812
1715093188026062000,7.12306201171875,-0.3122100830078125,-5.810516357421875,-7.0301361083984375
1715093188036041200,7.133041259765625,1.48822021484375,-4.5918731689453125,-5.770782470703125
1715093188045990000,7.142989990234375,3.0636138916015625,-4.0795135498046875,-4.681427001953125
1715093188055969300,7.15296923828125,3.652587890625,-3.8855743408203125,-3.5753021240234375
1715093188065918000,7.16291796875,2.7954559326171875,-4.6038360595703125,-2.5625457763671875
1715093188075897000,7.17289697265625,1.48822021484375,-5.547149658203125,-1.015899658203125
1715093188085876500,7.18287646484375,0.4706878662109375,-6.804107666015625,0.4230194091796875
1715093188095825200,7.1928251953125,-0.5276947021484375,-8.45611572265625,1.6512451171875
1715093188105804500,7.202804443359375,-1.58831787109375,-10.096145629882812,2.7310333251953125
1715093188115783700,7.21278369140625,-2.6322021484375,-11.432098388671875,3.04705810546875
1715093188125732400,7.222732421875,-3.4222869873046875,-12.011505126953125,2.920166015625
1715093188135711700,7.232711669921875,-3.8197174072265625,-11.561386108398438,2.6304779052734375
1715093188145691000,7.24269091796875,-3.6353607177734375,-10.66595458984375,1.7685546875
1715093188155670300,7.252670166015625,-3.2259521484375,-9.686737060546875,1.1101531982421875
1715093188165619000,7.262618896484375,-2.7255706787109375,-9.016357421875,0.5858154296875
1715093188175598000,7.27259814453125,-2.29461669921875,-8.884674072265625,0.245849609375
1715093188185577500,7.282577392578125,-1.3943939208984375,-8.882278442382812,-0.2042694091796875
1715093188195526100,7.292526123046875,-0.67852783203125,-9.04986572265625,-0.4101715087890625
1715093188205505300,7.30250537109375,0.07086181640625,-9.128875732421875,-0.5107269287109375
1715093188215484700,7.312484619140625,0.1953582763671875,-9.253372192382812,-0.7118377685546875
1715093188225433300,7.322433349609375,-0.2691192626953125,-9.239013671875,-0.8626708984375
1715093188235412500,7.33241259765625,-0.7455596923828125,-9.1959228515625,-1.20025634765625
1715093188245392000,7.342391845703125,-1.0592041015625,-9.231826782226562,-1.55938720703125
1715093188255340500,7.352340576171875,0.140289306640625,-8.96368408203125,-1.4157257080078125
1715093188265319700,7.362319580078125,1.9981842041015625,-8.5638427734375,-1.4468536376953125
1715093188275299000,7.372299072265625,3.7818756103515625,-7.754608154296875,-1.4683990478515625
1715093188285247700,7.382247802734375,4.8879852294921875,-6.91424560546875,-1.0925140380859375
1715093188295227100,7.39222705078125,5.5032958984375,-6.454559326171875,-0.60888671875
1715093188305206300,7.402206298828125,5.074737548828125,-6.433013916015625,0.047119140625
1715093188315155000,7.412155029296875,3.932708740234375,-6.9669189453125,0.8946685791015625
1715093188325134300,7.42213427734375,1.99578857421875,-8.420196533203125,1.0622711181640625
1715093188335113500,7.432113525390625,0.17620849609375,-10.651596069335938,0.865936279296875
1715093188345062100,7.442062255859375,-1.1717376708984375,-13.184661865234375,-0.594512939453125
1715093188355041500,7.45204150390625,0.5377197265625,-14.65948486328125,-1.413330078125
1715093188365020700,7.462020751953125,2.3022613525390625,-14.084884643554688,0.039947509765625
1715093188374969300,7.47196923828125,0.4587249755859375,-11.616455078125,2.79327392578125
1715093188384948700,7.48194873046875,-2.20123291015625,-9.624481201171875,4.7469482421875
1715093188394897400,7.4918974609375,-2.7519073486328125,-8.88946533203125,5.223388671875
1715093188404876800,7.501876708984375,-3.91070556640625,-8.116134643554688,4.5697784423828125
1715093188414856000,7.51185595703125,-4.396728515625,-7.742645263671875,1.77813720703125
1715093188424804600,7.5218046875,-4.2746124267578125,-7.21112060546875,-1.6886749267578125
1715093188434784000,7.531783935546875,-3.0751190185546875,-7.405059814453125,-5.7899322509765625
1715093188444763100,7.54176318359375,-2.5819244384765625,-8.7314453125,-9.386032104492188
1715093188454742500,7.551742431640625,-3.017669677734375,-11.233383178710938,-12.323715209960938
1715093188464721700,7.5617216796875,-3.45819091796875,-14.580474853515625,-15.673202514648438
1715093188474670300,7.57167041015625,-4.0782928466796875,-17.520553588867188,-18.177536010742188
1715093188484649700,7.581649658203125,-4.1357574462890625,-20.963424682617188,-19.192672729492188
1715093188494628900,7.59162890625,-4.13336181640625,-21.755905151367188,-15.515182495117188
1715093188504577500,7.60157763671875,-6.3408203125,-21.454238891601562,-7.6669921875
1715093188514557000,7.611556884765625,-7.2434234619140625,-21.28424072265625,0.70074462890625
1715093188524505600,7.621505615234375,-7.446929931640625,-18.746383666992188,5.630401611328125
1715093188534484700,7.631484619140625,-8.088577270507812,-13.191848754882812,9.99981689453125
1715093188544464100,7.641464111328125,-9.855499267578125,-10.81201171875,7.82110595703125
1715093188554412800,7.651412841796875,-6.347991943359375,-8.228668212890625,8.058120727539062
1715093188564392200,7.66139208984375,-3.1493377685546875,-6.4354095458984375,6.664703369140625
1715093188574371300,7.671371337890625,-0.953857421875,-5.302947998046875,5.2353668212890625
1715093188584320000,7.681320068359375,0.408447265625,-5.9757232666015625,2.4772491455078125
1715093188594299400,7.69129931640625,0.36773681640625,-6.8017120361328125,0.76300048828125
1715093188604278500,7.701278564453125,0.9615020751953125,-7.46490478515625,-0.551422119140625
1715093188614227200,7.711227294921875,1.8856658935546875,-7.48406982421875,-1.5258636474609375
1715093188624206600,7.72120654296875,2.96783447265625,-7.4768829345703125,-2.4404449462890625
1715093188634185700,7.731185791015625,3.5472412109375,-6.993255615234375,-2.4931182861328125
1715093188644134400,7.741134521484375,3.2479705810546875,-6.212738037109375,-2.8737945556640625
1715093188654113800,7.75111376953125,2.70208740234375,-5.176055908203125,-3.151519775390625
1715093188664093000,7.761093017578125,1.840179443359375,-4.5296173095703125,-3.0844879150390625
1715093188674041900,7.771041748046875,0.8872833251953125,-4.4553985595703125,-3.07012939453125
1715093188684021000,7.78102099609375,0.362945556640625,-4.7929840087890625,-3.0270233154296875
1715093188693969700,7.7909697265625,0.0277557373046875,-5.3484344482421875,-3.012664794921875
1715093188703949000,7.800948974609375,-0.123077392578125,-5.7171478271484375,-3.213775634765625
1715093188713928200,7.81092822265625,-0.20208740234375,-6.0762786865234375,-3.2688446044921875
1715093188723907300,7.8209072265625,-0.02252197265625,-6.3109130859375,-2.837890625
1715093188733856300,7.830856201171875,0.54730224609375,-6.4162445068359375,-2.4500274658203125
1715093188743835400,7.84083544921875,1.66778564453125,-6.708343505859375,-2.18426513671875
1715093188753814800,7.850814697265625,2.8170013427734375,-6.7490386962890625,-1.9520263671875
1715093188763794000,7.8607939453125,3.446685791015625,-6.782562255859375,-1.34869384765625
1715093188773742600,7.87074267578125,3.6094818115234375,-7.3380126953125,-0.486785888671875
1715093188783722000,7.880721923828125,3.341339111328125,-8.149658203125,0.8994598388671875
1715093188793701000,7.890701171875,3.1593780517578125,-8.38427734375,3.7772979736328125
1715093188803649800,7.90064990234375,2.972625732421875,-8.602157592773438,6.6886444091796875
1715093188813629200,7.910629150390625,2.17535400390625,-10.304428100585938,7.2393035888671875
1715093188823608300,7.9206083984375,1.514556884765625,-12.07135009765625,8.335845947265625
1715093188833557000,7.930556884765625,0.4539337158203125,-13.53900146484375,7.6822357177734375
1715093188843536400,7.940536376953125,-0.302642822265625,-14.920455932617188,5.165924072265625
1715093188853515500,7.950515625,-0.398406982421875,-15.64111328125,1.3998565673828125
1715093188863464400,7.96046435546875,-0.905975341796875,-16.251632690429688,-3.223358154296875
1715093188873443600,7.970443603515625,0.710113525390625,-16.6251220703125,-5.9623260498046875
1715093188883392300,7.980392333984375,5.54400634765625,-15.021011352539062,-4.5210113525390625
1715093188893371600,7.99037158203125,4.4546356201171875,-11.460830688476562,0.5499114990234375
1715093188903350800,8.000350830078125,2.0915679931640625,-11.537445068359375,2.10614013671875
1715093188913299500,8.010299560546875,1.1506500244140625,-17.0465087890625,0.770172119140625
1715093188923278800,8.02027880859375,0.2599945068359375,-21.279449462890625,-1.080535888671875
1715093188933258000,8.030258056640625,-3.8867645263671875,-21.174118041992188,-5.675018310546875
1715093188943206700,8.04020654296875,-6.6688232421875,-18.751174926757812,-8.203292846679688
1715093188953186000,8.05018603515625,-1.5667724609375,-13.067337036132812,-7.13787841796875
1715093188963165200,8.060165283203125,-0.1470184326171875,-6.3109130859375,-6.3214569091796875
1715093188973114000,8.070114013671875,-1.5548095703125,-4.3907623291015625,-2.5936737060546875
1715093188983093200,8.08009326171875,-2.10546875,-6.13134765625,0.7941131591796875
1715093188993072400,8.090072265625,-1.5476226806640625,-8.875091552734375,2.5251312255859375
1715093189003051800,8.1000517578125,-1.5260772705078125,-11.410552978515625,2.9967803955078125
1715093189013000400,8.11000048828125,-2.6417694091796875,-12.317962646484375,2.63525390625
1715093189022979800,8.119979736328125,-3.218780517578125,-12.119232177734375,1.222686767578125
1715093189032959000,8.129958984375,-2.4191131591796875,-12.188674926757812,-0.793243408203125
1715093189042907600,8.13990771484375,-0.209259033203125,-11.515899658203125,-3.1994171142578125
1715093189052887000,8.149886962890625,1.4379425048828125,-10.361892700195312,-4.9423828125
1715093189062866200,8.1598662109375,2.093963623046875,-8.987625122070312,-7.2671661376953125
1715093189072814800,8.16981494140625,0.9040374755859375,-7.6923675537109375,-9.376449584960938
1715093189082794200,8.179794189453125,-0.06561279296875,-6.7322845458984375,-9.795440673828125
1715093189092773400,8.1897734375,0.1067657470703125,-5.5591278076171875,-7.631072998046875
1715093189102722000,8.19972216796875,0.3749237060546875,-4.646942138671875,-5.5576934814453125
1715093189112701400,8.209701416015625,0.8992462158203125,-3.981353759765625,-3.6064300537109375
1715093189122680600,8.2196806640625,1.2990875244140625,-3.89276123046875,-2.557769775390625
1715093189132629500,8.22962939453125,1.69891357421875,-4.3931427001953125,-2.2824249267578125
1715093189142608600,8.239608642578125,1.4211883544921875,-5.925445556640625,-2.45721435546875
1715093189152587800,8.249587890625,1.08599853515625,-7.3619537353515625,-2.552978515625
1715093189162536700,8.25953662109375,-0.18292236328125,-8.57342529296875,-2.4667816162109375
1715093189172515800,8.269515869140625,-0.8365478515625,-9.751373291015625,-3.024627685546875
1715093189182495000,8.279494873046875,-2.2706756591796875,-10.630050659179688,-2.897735595703125
1715093189192444000,8.28944384765625,-2.026458740234375,-10.711441040039062,-2.4883270263671875
1715093189202423000,8.299423095703125,-1.5164947509765625,-10.287673950195312,-2.031036376953125
1715093189212402400,8.30940234375,-1.8852081298828125,-9.96685791015625,-1.006317138671875
1715093189222351000,8.31935107421875,-1.84210205078125,-9.24859619140625,0.1524658203125
1715093189232330200,8.329330322265625,-1.265106201171875,-8.465682983398438,1.1460723876953125
1715093189242309600,8.3393095703125,-1.0615997314453125,-8.322036743164062,1.4429473876953125
1715093189252258300,8.34925830078125,-0.8197784423828125,-8.092193603515625,1.677581787109375
1715093189262237400,8.359237548828125,-1.1980743408203125,-7.96051025390625,1.6584320068359375
1715093189272216800,8.369216796875,-0.6258544921875,-7.658843994140625,1.1795806884765625
1715093189282165500,8.37916552734375,0.5592803955078125,-7.2183074951171875,1.16522216796875
1715093189292144600,8.38914453125,1.1314849853515625,-7.120147705078125,1.9912261962890625
1715093189302124000,8.3991240234375,0.8824920654296875,-7.3236541748046875,2.6663818359375
1715093189312103200,8.409103271484375,0.2647857666015625,-8.00360107421875,2.7741241455078125
1715093189322052000,8.419052001953125,-0.1541900634765625,-8.745803833007812,3.1284637451171875
1715093189332031200,8.42903125,-0.7934417724609375,-9.447311401367188,3.4780120849609375
1715093189342010400,8.43901025390625,-0.135040283203125,-9.753768920898438,3.3080291748046875
1715093189351959300,8.448959228515625,0.4012603759765625,-9.801651000976562,2.5107574462890625
1715093189361938400,8.4589384765625,1.3110504150390625,-9.464065551757812,2.017547607421875
1715093189371917800,8.468917724609375,1.4044342041015625,-9.420974731445312,2.28570556640625
1715093189381866500,8.478866455078125,1.868896484375,-9.246200561523438,1.95770263671875
1715093189391845600,8.488845703125,1.536102294921875,-9.06903076171875,2.216278076171875
1715093189401825000,8.498824951171875,0.4275970458984375,-9.59814453125,2.18035888671875
1715093189411773700,8.508773681640625,0.255218505859375,-10.881439208984375,1.3256378173828125
1715093189421752800,8.5187529296875,0.3078765869140625,-12.5765380859375,0.01361083984375
1715093189431732200,8.528732177734375,0.9734649658203125,-13.32830810546875,-1.2337646484375
1715093189441681000,8.538680908203125,3.1330413818359375,-12.993118286132812,-1.36065673828125
1715093189451660000,8.548659912109375,3.73876953125,-11.83673095703125,-1.1140594482421875
1715093189461639400,8.558639404296875,1.0141754150390625,-10.005157470703125,-0.53466796875
1715093189471588000,8.568588134765625,-1.746337890625,-10.349929809570312,-1.2720794677734375
1715093189481567500,8.5785673828125,-1.8516845703125,-8.2550048828125,-0.0582122802734375
1715093189491516200,8.58851611328125,-3.020050048828125,-7.1488800048828125,-0.7381744384765625
1715093189501495300,8.598495361328125,-2.924285888671875,-6.8065032958984375,-2.837890625
1715093189511474700,8.608474609375,-2.20123291015625,-7.120147705078125,-4.6000213623046875
1715093189521423400,8.61842333984375,-1.866058349609375,-8.207107543945312,-6.690155029296875
1715093189531402500,8.628402587890625,-2.6298065185546875,-9.763351440429688,-10.458633422851562
1715093189541382000,8.6383818359375,-3.6928253173828125,-11.247756958007812,-13.401107788085938
1715093189551330600,8.64833056640625,-3.3504638671875,-13.067337036132812,-15.100982666015625
1715093189561309700,8.658309814453125,-2.20123291015625,-15.643508911132812,-15.967681884765625
1715093189571289000,8.6682890625,-3.1397705078125,-17.946731567382812,-13.37237548828125
1715093189581268200,8.678268310546875,-3.3193359375,-20.486968994140625,-9.733184814453125
1715093189591217000,8.688216796875,-3.7814178466796875,-21.5595703125,-3.953582763671875
1715093189601196300,8.6981962890625,-6.21392822265625,-20.858078002929688,0.6815948486328125
1715093189611175400,8.708175537109375,-9.1204833984375,-17.740829467773438,4.58892822265625
1715093189621124400,8.718124267578125,-11.359054565429688,-13.878982543945312,9.963912963867188
1715093189631103500,8.728103515625,-8.469253540039062,-11.614059448242188,8.951156616210938
1715093189641082600,8.73808251953125,-3.779022216796875,-8.369918823242188,9.877716064453125
1715093189651031600,8.748031494140625,-1.6960601806640625,-6.5479278564453125,8.280792236328125
1715093189661010700,8.7580107421875,-0.5396575927734375,-6.51202392578125,5.1922607421875
1715093189670990000,8.767989990234375,-0.2332000732421875,-7.5199737548828125,2.2976837158203125
1715093189680938800,8.777938720703125,1.3804931640625,-7.9988250732421875,0.525970458984375
1715093189690918000,8.78791796875,2.70208740234375,-8.252609252929688,-1.21221923828125
1715093189700897300,8.797897216796875,4.53125,-7.9054412841796875,-2.2225799560546875
1715093189710846000,8.807845947265625,4.7922210693359375,-7.385894775390625,-3.2065887451171875
1715093189720825000,8.8178251953125,3.7244110107421875,-6.571868896484375,-3.9823150634765625
1715093189730804500,8.827804443359375,2.465057373046875,-5.135345458984375,-4.1259613037109375
1715093189740753200,8.837753173828125,1.1937408447265625,-4.10345458984375,-4.300750732421875
1715093189750732300,8.847732177734375,0.3270416259765625,-3.8329010009765625,-4.430023193359375
1715093189760711700,8.857711669921875,-0.1589813232421875,-4.10345458984375,-4.0948486328125
1715093189770660400,8.867660400390625,-0.4846038818359375,-4.637359619140625,-3.8650054931640625
1715093189780639700,8.8776396484375,-0.7647247314453125,-5.049163818359375,-3.9080963134765625
1715093189790619000,8.887618896484375,-0.85809326171875,-5.3364715576171875,-3.9176788330078125
1715093189800567600,8.897567626953125,-0.3337554931640625,-5.5495452880859375,-3.436431884765625
1715093189810547000,8.907546875,0.9734649658203125,-5.5687103271484375,-2.8522491455078125
1715093189820526000,8.917526123046875,2.7164459228515625,-5.4873046875,-2.6080474853515625
1715093189830474800,8.927474853515625,3.5663909912109375,-5.8296661376953125,-2.3446807861328125
1715093189840454100,8.9374541015625,3.7675018310546875,-6.15289306640625,-1.67669677734375
1715093189850433300,8.947433349609375,3.578369140625,-7.2183074951171875,-1.2529296875
1715093189860382000,8.9573818359375,3.573577880859375,-8.01318359375,0.45892333984375
1715093189870361300,8.967361328125,3.6837158203125,-8.03472900390625,3.6144866943359375
1715093189880340500,8.977340576171875,2.8888397216796875,-9.29168701171875,5.3143768310546875
1715093189890320000,8.98731982421875,2.19451904296875,-11.281265258789062,7.002288818359375
1715093189900268500,8.9972685546875,1.9503021240234375,-13.594070434570312,8.374160766601562
1715093189910247700,9.00724755859375,1.8018646240234375,-16.20135498046875,8.565704345703125
1715093189920227000,9.01722705078125,1.016571044921875,-18.3154296875,7.75885009765625
1715093189930175700,9.02717578125,-0.8868255615234375,-18.080795288085938,3.1117095947265625
1715093189940155100,9.037155029296875,-3.604248046875,-16.945953369140625,-1.9640045166015625
1715093189950134300,9.04713427734375,-1.746337890625,-15.942779541015625,-4.6024169921875
1715093189960083000,9.0570830078125,3.288665771484375,-15.128753662109375,-7.0157623291015625
1715093189970062300,9.067062255859375,6.9589691162109375,-12.464004516601562,-6.319061279296875
1715093189980041500,9.07704150390625,4.94305419921875,-9.880661010742188,-2.0142822265625
1715093189989990100,9.086990234375,2.833770751953125,-13.251693725585938,0.411041259765625
1715093189999969500,9.096969482421875,2.991790771484375,-15.930801391601562,0.4445648193359375
1715093190009948700,9.10694873046875,-2.7782440185546875,-15.437606811523438,-0.6424102783203125
1715093190019897300,9.1168974609375,-4.961761474609375,-17.012985229492188,-2.6870574951171875
1715093190029876700,9.126876708984375,-7.3870849609375,-20.561187744140625,-1.861053466796875
1715093190039855900,9.13685595703125,-8.840362548828125,-16.95074462890625,-3.8075408935546875
1715093190049804500,9.146804443359375,-4.3799591064453125,-10.869461059570312,-5.13153076171875
1715093190059784000,9.156783935546875,-1.93548583984375,-8.408233642578125,-3.0270233154296875
1715093190069732600,9.166732666015625,0.3078765869140625,-7.71630859375,0.379913330078125
1715093190079712000,9.1767119140625,1.4594879150390625,-7.0028228759765625,2.549072265625
1715093190089691100,9.186691162109375,0.7484130859375,-5.7913665771484375,1.9481201171875
1715093190099639800,9.196639892578125,-0.1925048828125,-4.2734375,0.40386962890625
1715093190109619200,9.206619140625,-0.293060302734375,-3.401947021484375,0.1644439697265625
1715093190119598300,9.216598388671875,-0.4319305419921875,-5.3939208984375,-1.2936248779296875
1715093190129547000,9.226547119140625,0.08282470703125,-7.1776123046875,-3.9511871337890625
1715093190139526400,9.2365263671875,-0.101531982421875,-8.781723022460938,-7.417999267578125
1715093190149505500,9.246505615234375,-1.2076416015625,-10.670745849609375,-9.465042114257812
1715093190159485000,9.25648486328125,-1.487762451171875,-11.853485107421875,-9.591934204101562
1715093190169433600,9.26643359375,-1.7152099609375,-11.740951538085938,-9.09393310546875
1715093190179412700,9.276412841796875,-0.9083709716796875,-9.444915771484375,-8.030914306640625
1715093190189392100,9.28639208984375,0.80108642578125,-6.1983795166015625,-4.7652130126953125
1715093190199340800,9.2963408203125,2.1873321533203125,-4.0052947998046875,-3.29278564453125
1715093190209320000,9.30631982421875,3.2695159912109375,-3.665313720703125,-3.60882568359375
1715093190219299300,9.31629931640625,4.514495849609375,-2.4993438720703125,-1.4468536376953125
1715093190229248000,9.326248046875,2.9630584716796875,-3.8712158203125,-1.607269287109375
1715093190239227400,9.336227294921875,0.9567108154296875,-6.169647216796875,-1.0494232177734375
1715093190249206500,9.34620654296875,-0.831756591796875,-8.331619262695312,0.779754638671875
1715093190259155200,9.3561552734375,-1.317779541015625,-10.364288330078125,2.2569732666015625
1715093190269134600,9.366134521484375,-1.78704833984375,-12.054595947265625,2.7573699951171875
1715093190279113700,9.37611376953125,-1.9690093994140625,-12.823135375976562,2.8483428955078125
1715093190289062400,9.3860625,-2.167724609375,-12.200637817382812,2.623291015625
1715093190299041800,9.396041748046875,-2.5292510986328125,-11.001144409179688,2.2354278564453125
1715093190309021000,9.40602099609375,-2.7519073486328125,-9.981216430664062,1.804473876953125
1715093190318969600,9.415969482421875,-2.469390869140625,-8.978042602539062,1.41900634765625
1715093190328949000,9.425948974609375,-2.2108154296875,-8.46807861328125,1.01678466796875
1715093190338928000,9.43592822265625,-1.9857635498046875,-8.463287353515625,0.4445648193359375
1715093190348877000,9.445876953125,-1.7918243408203125,-8.575820922851562,0.3655548095703125
1715093190358856200,9.455856201171875,-1.3848114013671875,-8.999588012695312,0.5882110595703125
1715093190368835300,9.46583544921875,-1.23876953125,-9.44970703125,0.76300048828125
1715093190378784300,9.4757841796875,-0.5755767822265625,-9.796859741210938,1.2178955078125
1715093190388763400,9.485763427734375,-0.228424072265625,-9.981216430664062,1.2370452880859375
1715093190398712000,9.495712158203125,0.2336578369140625,-9.835174560546875,1.0526885986328125
1715093190408691500,9.50569140625,1.25360107421875,-9.32281494140625,0.5115966796875
1715093190418670600,9.515670654296875,2.359710693359375,-8.630889892578125,-0.096527099609375
1715093190428619300,9.525619384765625,3.530487060546875,-7.9796600341796875,-0.249755859375
1715093190438598700,9.5355986328125,4.366058349609375,-7.4290008544921875,0.0638885498046875
1715093190448577800,9.545577880859375,4.4330902099609375,-7.16802978515625,0.3392181396484375
1715093190458557200,9.55555712890625,3.9470672607421875,-7.5343475341796875,-0.180328369140625
1715093190468536300,9.565536376953125,2.0556488037109375,-8.23583984375,-0.6687469482421875
1715093190478485000,9.575485107421875,0.2288818359375,-10.160781860351562,-0.393402099609375
1715093190488464400,9.58546435546875,-0.451080322265625,-12.373031616210938,-0.5442352294921875
1715093190498443500,9.595443603515625,-0.376861572265625,-13.725753784179688,-1.4947357177734375
1715093190508392200,9.60539208984375,0.236053466796875,-13.878982543945312,-1.7365570068359375
1715093190518371600,9.61537158203125,1.1937408447265625,-13.194229125976562,-0.323974609375
1715093190528320300,9.6253203125,0.9710845947265625,-12.286834716796875,1.6320953369140625
1715093190538299600,9.635299560546875,-0.9107666015625,-10.96044921875,3.2433929443359375
1715093190548278800,9.64527880859375,-1.909149169921875,-10.534271240234375,3.279296875
1715093190558227500,9.6552275390625,-2.80218505859375,-8.733840942382812,3.2170562744140625
1715093190568206800,9.665206787109375,-2.797393798828125,-7.1009979248046875,1.847564697265625
1715093190578186000,9.67518603515625,-1.741546630859375,-6.3228759765625,-0.6424102783203125
1715093190588134700,9.685134765625,-0.8341522216796875,-6.4162445068359375,-3.3813629150390625
1715093190598114000,9.695114013671875,-0.661773681640625,-7.5726470947265625,-6.3022918701171875
1715093190608093200,9.70509326171875,-1.75592041015625,-9.114517211914062,-10.46820068359375
1715093190618041900,9.715041748046875,-3.2906036376953125,-10.721023559570312,-13.36279296875
1715093190628021200,9.725021240234375,-4.1620941162109375,-12.959609985351562,-15.488845825195312
1715093190638000400,9.73500048828125,-4.0352020263671875,-15.686599731445312,-16.3531494140625
1715093190647949300,9.74494921875,-4.4110870361328125,-17.683364868164062,-14.880722045898438
1715093190657928400,9.754928466796875,-4.710357666015625,-18.638656616210938,-10.221603393554688
1715093190667907600,9.764907470703125,-5.0766754150390625,-18.174179077148438,-3.05096435546875
1715093190677856500,9.7748564453125,-5.8045196533203125,-17.467880249023438,1.05987548828125
1715093190687835600,9.784835693359375,-5.617767333984375,-14.898910522460938,5.4676055908203125
1715093190697815000,9.79481494140625,-8.045486450195312,-13.191848754882812,7.7684326171875
1715093190707763700,9.804763671875,-6.0750579833984375,-11.307601928710938,9.358184814453125
1715093190717742800,9.814742919921875,-3.1493377685546875,-8.8367919921875,9.200164794921875
1715093190727722200,9.82472216796875,-1.8516845703125,-6.80889892578125,7.2967681884765625
1715093190737701400,9.834701416015625,-0.97540283203125,-6.73468017578125,3.760528564453125
1715093190747650000,9.844650146484375,-0.5803680419921875,-7.3284454345703125,1.160430908203125
1715093190757629400,9.85462939453125,0.42999267578125,-7.417022705078125,0.135711669921875
1715093190767608600,9.864608642578125,1.323028564453125,-7.8312225341796875,-1.5498046875
1715093190777557200,9.87455712890625,2.697296142578125,-8.18316650390625,-2.9097137451171875
1715093190787536600,9.88453662109375,3.214447021484375,-7.9198150634765625,-3.340667724609375
1715093190797515800,9.894515869140625,2.749969482421875,-7.23028564453125,-3.7859954833984375
1715093190807464700,9.904464599609375,2.1562042236328125,-6.291748046875,-3.699798583984375
1715093190817443800,9.91444384765625,1.239227294921875,-5.5184173583984375,-3.5322113037109375
1715093190827423000,9.924423095703125,0.5137786865234375,-5.1784515380859375,-3.161102294921875
1715093190837372000,9.934371826171875,0.298309326171875,-5.3173065185546875,-2.6295928955078125
1715093190847351000,9.94435107421875,0.161834716796875,-5.6764373779296875,-2.330322265625
1715093190857330200,9.954330078125,-0.0416717529296875,-5.999664306640625,-2.3350982666015625
1715093190867279000,9.964279052734375,0.087615966796875,-6.1744384765625,-2.2560882568359375
1715093190877258200,9.97425830078125,0.5329437255859375,-6.1840057373046875,-1.97119140625
1715093190887237600,9.984237548828125,1.6917266845703125,-6.064300537109375,-1.63360595703125
1715093190897186300,9.994186279296875,2.6422271728515625,-6.217529296875,-1.8155670166015625
1715093190907165400,10.00416552734375,3.19769287109375,-6.4162445068359375,-1.3774261474609375
1715093190917144800,10.014144775390625,3.5927276611328125,-6.74664306640625,-0.8339385986328125
1715093190927093500,10.024093505859375,3.805816650390625,-7.077056884765625,0.652862548828125
1715093190937072600,10.03407275390625,3.875244140625,-6.8639678955078125,3.4780120849609375
1715093190947052000,10.044052001953125,3.5017547607421875,-7.3451995849609375,5.88897705078125
1715093190957000700,10.054000732421875,2.855316162109375,-9.236618041992188,7.0908660888671875
1715093190966979800,10.063979736328125,1.9742431640625,-11.525482177734375,8.517807006835938
1715093190976928800,10.0739287109375,1.7180633544921875,-14.211776733398438,8.740478515625
1715093190986908000,10.083907958984375,0.3007049560546875,-16.30670166015625,6.782012939453125
1715093190996887300,10.09388720703125,-0.31939697265625,-17.314651489257812,2.6783599853515625
1715093191006866400,10.103866455078125,-1.2459564208984375,-18.552459716796875,-1.080535888671875
1715093191016815000,10.113815185546875,-1.4039764404296875,-19.323394775390625,-4.1786346435546875
1715093191026794500,10.12379443359375,1.05487060546875,-18.98101806640625,-5.6917724609375
1715093191036773600,10.133773681640625,3.446685791015625,-15.193389892578125,-3.87457275390625
1715093191046753000,10.1437529296875,2.9271392822265625,-11.4249267578125,-0.687896728515625
1715093191056701700,10.15370166015625,2.0867767333984375,-12.23895263671875,1.1747894287109375
1715093191066680800,10.163680908203125,4.081146240234375,-14.750473022460938,1.73504638671875
1715093191076660200,10.17366015625,3.59033203125,-14.192611694335938,0.324859619140625
1715093191086609000,10.18360888671875,-1.688873291015625,-12.363449096679688,-0.9991455078125
1715093191096588000,10.193588134765625,-5.2825775146484375,-13.3809814453125,-3.1467437744140625
1715093191106567400,10.2035673828125,-8.2657470703125,-15.806304931640625,-4.999847412109375
1715093191116516000,10.21351611328125,-5.660858154296875,-13.8023681640625,-5.2608184814453125
1715093191126495200,10.2234951171875,-2.785430908203125,-10.26373291015625,-3.68304443359375
1715093191136474600,10.233474609375,-0.7910614013671875,-8.305282592773438,-0.7118377685546875
1715093191146423300,10.24342333984375,0.8226318359375,-7.31646728515625,2.333587646484375
1715093191156402700,10.253402587890625,0.7915191650390625,-6.6532745361328125,3.5306854248046875
1715093191166351400,10.263351318359375,0.2216949462890625,-5.5854644775390625,1.488433837890625
1715093191176330500,10.27333056640625,-0.283477783203125,-4.6086273193359375,-0.6543731689453125
1715093191186310000,10.283309814453125,-0.1374359130859375,-4.84326171875,-1.2409515380859375
1715093191196258600,10.293258544921875,0.236053466796875,-6.217529296875,-2.5098876953125
1715093191206237700,10.30323779296875,0.3031005859375,-8.594970703125,-4.9112701416015625
1715093191216217000,10.313217041015625,0.530548095703125,-9.69390869140625,-6.87451171875
1715093191226165800,10.323165771484375,-0.209259033203125,-10.859893798828125,-7.9327545166015625
1715093191236145000,10.333144775390625,-1.0615997314453125,-11.6475830078125,-8.172164916992188
1715093191246124300,10.343124267578125,-1.40875244140625,-10.522308349609375,-7.544891357421875
1715093191256073000,10.353072998046875,-0.74078369140625,-8.28851318359375,-5.581634521484375
1715093191266052400,10.36305224609375,-0.1589813232421875,-6.27978515625,-4.260040283203125
1715093191276031500,10.373031494140625,2.2400054931640625,-4.5439910888671875,-3.7716217041015625
1715093191285980200,10.382980224609375,4.39239501953125,-3.897552490234375,-3.118011474609375
1715093191295959600,10.39295947265625,3.2551422119140625,-4.5152587890625,-2.9001312255859375
1715093191305938700,10.402938720703125,0.8106689453125,-5.3843536376953125,-2.057373046875
1715093191315917800,10.412917724609375,0.4443511962890625,-6.3994903564453125,-1.4899444580078125
1715093191325866800,10.42286669921875,-1.1262359619140625,-8.247817993164062,-0.3119964599609375
1715093191335846000,10.432845947265625,-1.5308685302734375,-9.677154541015625,1.1460723876953125
1715093191345825300,10.4428251953125,-1.33453369140625,-10.800033569335938,2.163604736328125
1715093191355774000,10.45277392578125,-1.5739593505859375,-11.570968627929688,2.65679931640625
1715093191365753000,10.462753173828125,-1.80859375,-11.602096557617188,2.9105987548828125
1715093191375732500,10.472732421875,-1.9163360595703125,-10.9293212890625,2.745391845703125
1715093191385681200,10.48268115234375,-2.1988525390625,-10.246978759765625,2.5730133056640625
1715093191395660300,10.492660400390625,-2.639373779296875,-9.911788940429688,2.13726806640625
1715093191405639700,10.5026396484375,-2.648956298828125,-9.753768920898438,1.9481201171875
1715093191415588400,10.51258837890625,-3.1110382080078125,-9.90460205078125,1.3160552978515625
1715093191425567500,10.5225673828125,-3.12060546875,-9.981216430664062,1.3806915283203125
1715093191435547000,10.532546875,-2.74951171875,-10.299652099609375,1.2011260986328125
1715093191445495600,10.54249560546875,-1.444671630859375,-10.3475341796875,1.01678466796875
1715093191455475000,10.552474853515625,0.130706787109375,-10.02191162109375,0.99761962890625
1715093191465454000,10.5624541015625,1.435546875,-9.4066162109375,0.758209228515625
1715093191475402800,10.57240283203125,3.4442901611328125,-8.63568115234375,0.9449462890625
1715093191485382100,10.582382080078125,5.381195068359375,-7.7929229736328125,1.5267486572265625
1715093191495361300,10.592361328125,6.5040740966796875,-6.602996826171875,1.435760498046875
1715093191505310000,10.60231005859375,5.0029144287109375,-6.0403594970703125,1.0814208984375
1715093191515289300,10.612289306640625,3.1019134521484375,-6.1672515869140625,0.1692352294921875
1715093191525238000,10.622238037109375,1.4786529541015625,-7.8479766845703125,-1.1092681884765625
1715093191535217200,10.632217041015625,0.5856170654296875,-10.428939819335938,-1.386993408203125
1715093191545196500,10.642196533203125,-0.810211181640625,-12.849472045898438,-0.8028106689453125
1715093191555145200,10.652145263671875,-1.8971710205078125,-14.716949462890625,-0.76690673828125
1715093191565124600,10.66212451171875,-2.531646728515625,-15.463943481445312,-1.1020965576171875
1715093191575103700,10.672103759765625,-0.8437347412109375,-15.344223022460938,-0.8961944580078125
1715093191585083000,10.682082763671875,1.313446044921875,-13.97235107421875,0.7246856689453125
1715093191595031800,10.69203173828125,1.2990875244140625,-11.345916748046875,2.683135986328125
1715093191605011000,10.702010986328125,0.44195556640625,-9.033111572265625,3.7509613037109375
1715093191614990300,10.711990234375,-0.20208740234375,-6.1145782470703125,3.40618896484375
1715093191624969500,10.721969482421875,-0.6186676025390625,-4.4649810791015625,2.32879638671875
1715093191634918100,10.731918212890625,-0.841339111328125,-4.0819091796875,0.92340087890625
1715093191644897500,10.7418974609375,-0.74078369140625,-4.71636962890625,-0.920135498046875
1715093191654876700,10.751876708984375,-0.6928863525390625,-6.4090728759765625,-3.271240234375
1715093191664825300,10.761825439453125,-0.87005615234375,-8.937347412109375,-6.6015777587890625
1715093191674804700,10.7718046875,-1.6433868408203125,-11.549423217773438,-9.23040771484375
1715093191684783900,10.781783935546875,-3.73114013671875,-13.191848754882812,-10.312591552734375
1715093191694732500,10.791732666015625,-5.4621429443359375,-15.423233032226562,-11.643753051757812
1715093191704712000,10.8017119140625,-5.522003173828125,-18.415985107421875,-13.633346557617188
1715093191714691000,10.811691162109375,-5.416656494140625,-21.444656372070312,-13.015640258789062
1715093191724640000,10.821639892578125,-5.0718841552734375,-22.440643310546875,-8.39483642578125
1715093191734619100,10.831619140625,-5.7255096435546875,-20.47979736328125,-2.0166778564453125
1715093191744567800,10.84156787109375,-7.0423126220703125,-16.093612670898438,3.4037933349609375
1715093191754547200,10.851547119140625,-6.209136962890625,-12.636383056640625,7.7061767578125
1715093191764526300,10.8615263671875,-5.7949371337890625,-10.955657958984375,7.90728759765625
1715093191774475000,10.87147509765625,-3.405517578125,-9.097763061523438,9.066085815429688
1715093191784454400,10.881454345703125,-1.86126708984375,-7.426605224609375,8.0533447265625
1715093191794433500,10.89143359375,-1.1262359619140625,-6.306121826171875,6.147552490234375
1715093191804382200,10.90138232421875,-1.60748291015625,-6.85198974609375,2.754974365234375
1715093191814361600,10.911361572265625,-0.441497802734375,-7.0602874755859375,1.318450927734375
1715093191824340700,10.9213408203125,1.4044342041015625,-6.8639678955078125,0.2649993896484375
1715093191834289400,10.931289306640625,2.7954559326171875,-7.1009979248046875,-1.6096649169921875
1715093191844268800,10.941268798828125,4.081146240234375,-6.983673095703125,-2.2560882568359375
1715093191854248000,10.951248046875,3.616668701171875,-6.7634124755859375,-2.39495849609375
1715093191864196900,10.96119677734375,2.67095947265625,-6.2606201171875,-2.46917724609375
1715093191874176000,10.971176025390625,1.8066558837890625,-5.745880126953125,-2.3734130859375
1715093191884155100,10.981155029296875,1.059661865234375,-5.6022186279296875,-2.2225799560546875
1715093191894134500,10.991134521484375,0.6143341064453125,-5.8919219970703125,-2.3614349365234375
1715093191904083200,11.001083251953125,0.6119537353515625,-6.2462615966796875,-2.43804931640625
1715093191914062600,11.0110625,0.76995849609375,-6.5311737060546875,-2.89056396484375
1715093191924041700,11.021041748046875,0.93756103515625,-6.6053924560546875,-3.213775634765625
1715093191933990400,11.030990478515625,1.323028564453125,-6.559906005859375,-3.383758544921875
1715093191943969800,11.0409697265625,2.0915679931640625,-6.3635711669921875,-3.1946258544921875
1715093191953949000,11.050948974609375,2.919952392578125,-6.3300628662109375,-2.9528045654296875
1715093191963897600,11.060897705078125,3.099517822265625,-6.5144195556640625,-2.210601806640625
1715093191973877000,11.070876953125,2.934326171875,-6.899871826171875,-1.4947357177734375
1715093191983856000,11.080856201171875,2.59674072265625,-7.6037750244140625,-0.7693023681640625
1715093191993804800,11.0908046875,2.687713623046875,-8.142471313476562,0.8396148681640625
1715093192003784200,11.1007841796875,3.35809326171875,-8.039520263671875,3.6049041748046875
1715093192013763300,11.110763427734375,3.31500244140625,-8.896636962890625,5.7860260009765625
1715093192023712300,11.120712158203125,2.824188232421875,-10.646804809570312,7.5577392578125
1715093192033691400,11.13069140625,2.3142242431640625,-12.437667846679688,9.066085815429688
1715093192043670500,11.14067041015625,1.68695068359375,-14.460769653320312,8.491470336914062
1715093192053619500,11.150619384765625,0.942352294921875,-15.56689453125,5.3622589111328125
1715093192063598600,11.1605986328125,-0.74078369140625,-15.4615478515625,1.43096923828125
1715093192073578000,11.170577880859375,-1.176513671875,-15.914047241210938,-1.607269287109375
1715093192083526700,11.180526611328125,1.3302154541015625,-16.737655639648438,-4.8538055419921875
1715093192093505800,11.190505859375,3.8153839111328125,-16.459930419921875,-6.7188873291015625
1715093192103454500,11.200454345703125,3.350921630859375,-12.921295166015625,-3.77880859375
1715093192113433900,11.210433837890625,1.8593292236328125,-12.083328247070312,-1.7102203369140625
1715093192123413000,11.2204130859375,3.4347076416015625,-14.223739624023438,-1.3079986572265625
1715093192133362000,11.23036181640625,-0.800628662109375,-14.731307983398438,-1.6431732177734375
1715093192143341000,11.240341064453125,-3.8197174072265625,-16.443161010742188,-2.368621826171875
1715093192153320200,11.2503203125,-5.74945068359375,-20.249954223632812,-1.3343353271484375
1715093192163299600,11.260299560546875,-8.2537841796875,-19.905181884765625,-3.0677337646484375
1715093192173248300,11.270248291015625,-5.0551300048828125,-14.750473022460938,-4.856201171875
1715093192183227600,11.2802275390625,-1.9642181396484375,-10.299652099609375,-3.5585479736328125
1715093192193206800,11.290206787109375,-0.577972412109375,-8.159225463867188,-0.486785888671875
1715093192203155500,11.300155517578125,1.196136474609375,-6.79931640625,2.7477874755859375
1715093192213134800,11.310134765625,1.2057037353515625,-5.3077392578125,4.66314697265625
1715093192223114000,11.320114013671875,0.3964691162109375,-4.4242706298828125,3.5929412841796875
1715093192233062700,11.330062744140625,-0.103912353515625,-3.8041839599609375,0.8348236083984375
1715093192243042000,11.3400419921875,-0.4462890625,-3.9693756103515625,-1.037445068359375
1715093192253021200,11.350021240234375,-0.2954559326171875,-5.08746337890625,-2.763671875
1715093192262969900,11.359969970703125,-0.508544921875,-6.6891937255859375,-5.7564239501953125
1715093192272949200,11.36994921875,-0.54205322265625,-8.475265502929688,-8.70367431640625
1715093192282928400,11.379928466796875,-0.0680084228515625,-10.65399169921875,-10.180908203125
1715093192292877000,11.389876953125,-0.230804443359375,-11.992340087890625,-10.348495483398438
1715093192302856400,11.3998564453125,-0.642608642578125,-11.166351318359375,-9.500946044921875
1715093192312835600,11.409835693359375,0.3007049560546875,-7.680389404296875,-7.9207763671875
1715093192322784500,11.419784423828125,1.8712921142578125,-4.900726318359375,-5.24884033203125
1715093192332763600,11.429763671875,3.4562530517578125,-3.4187164306640625,-3.8027496337890625
1715093192342742800,11.43974267578125,4.3205718994140625,-3.042816162109375,-2.21539306640625
1715093192352691700,11.449691650390625,3.532867431640625,-4.49609375,-1.91851806640625
1715093192362670800,11.4596708984375,2.85052490234375,-5.29815673828125,0.1692352294921875
1715093192372650200,11.469650146484375,2.1226959228515625,-7.110565185546875,2.49639892578125
1715093192382599000,11.479598876953125,1.0141754150390625,-8.997207641601562,3.64801025390625
1715093192392578000,11.489578125,-0.7288055419921875,-10.737777709960938,4.4069671630859375
1715093192402526700,11.499526611328125,-2.2658843994140625,-12.215011596679688,4.6032867431640625
1715093192412506000,11.509506103515625,-3.6233978271484375,-12.622024536132812,3.940093994140625
1715093192422485200,11.5194853515625,-3.8628082275390625,-12.085723876953125,3.336761474609375
1715093192432464600,11.529464599609375,-3.6281890869140625,-11.537445068359375,2.42218017578125
1715093192442443800,11.53944384765625,-2.68487548828125,-10.795242309570312,1.3663330078125
1715093192452392400,11.549392333984375,-2.6465606689453125,-9.552658081054688,1.689544677734375
1715093192462371800,11.559371826171875,-1.561981201171875,-9.310836791992188,0.95452880859375
1715093192472351000,11.56935107421875,-1.3201751708984375,-9.14324951171875,1.265777587890625
1715093192482300000,11.5792998046875,-1.3369293212890625,-8.99481201171875,1.3160552978515625
1715093192492279000,11.589279052734375,-1.1334228515625,-9.023529052734375,1.2681732177734375
1715093192502258200,11.599258056640625,-0.8556976318359375,-9.296478271484375,1.09100341796875
1715093192512207000,11.60920703125,-0.56121826171875,-9.382659912109375,0.83721923828125
1715093192522186200,11.619186279296875,1.0405120849609375,-9.0474853515625,0.6073760986328125
1715093192532165600,11.62916552734375,2.3309783935546875,-8.894256591796875,0.315277099609375
1715093192542114300,11.6391142578125,3.140228271484375,-8.556671142578125,0.123748779296875
1715093192552093400,11.649093505859375,4.3469085693359375,-7.8096771240234375,-0.0630035400390625
1715093192562072800,11.65907275390625,5.0986785888671875,-7.057891845703125,0.2003631591796875
1715093192572021500,11.669021484375,5.237548828125,-6.7490386962890625,0.5187835693359375
1715093192582000600,11.679000732421875,4.0404510498046875,-7.23028564453125,0.3559722900390625
1715093192591980000,11.68897998046875,1.809051513671875,-8.896636962890625,0.4661102294921875
1715093192601928700,11.6989287109375,-0.10870361328125,-11.400985717773438,0.40386962890625
1715093192611907800,11.708907958984375,-0.587554931640625,-14.10882568359375,-0.656768798828125
1715093192621856800,11.718856689453125,-0.3337554931640625,-15.765609741210938,-2.2273712158203125
1715093192631860700,11.72886083984375,0.8346099853515625,-15.861373901367188,-2.9145050048828125
1715093192641839900,11.73883984375,2.5033721923828125,-13.795181274414062,-0.9249267578125
1715093192651788500,11.74878857421875,1.8976287841796875,-11.159164428710938,1.287322998046875
1715093192661768000,11.758767822265625,0.1331024169921875,-9.461669921875,2.4102020263671875
1715093192671747000,11.7687470703125,-0.1470184326171875,-7.8360137939453125,2.968048095703125
1715093192681696000,11.778696044921874,-1.116668701171875,-6.433013916015625,3.2074737548828125
1715093192691675100,11.788675048828125,-1.9977264404296875,-5.5112457275390625,2.21148681640625
1715093192701654300,11.798654296875,-2.1605377197265625,-5.5926513671875,0.0016326904296875
1715093192711603200,11.808603271484374,-1.9642181396484375,-6.3372344970703125,-2.145965576171875
1715093192721582300,11.818582275390625,-1.7798614501953125,-7.405059814453125,-4.212158203125
1715093192731561700,11.828561767578124,-2.1964569091796875,-8.760177612304688,-6.7763519287109375
1715093192741540900,11.838540771484375,-3.3863677978515625,-10.747360229492188,-9.12506103515625
1715093192751489500,11.848489501953125,-4.8276824951171875,-13.14874267578125,-11.050003051757812
1715093192761469000,11.858468994140624,-5.416656494140625,-16.356979370117188,-13.259841918945312
1715093192771448000,11.868447998046875,-5.8116912841796875,-19.677734375,-13.573486328125
1715093192781396700,11.878396728515625,-5.42144775390625,-21.621826171875,-10.089920043945312
1715093192791376100,11.888376220703124,-5.469329833984375,-20.688095092773438,-4.2360992431640625
1715093192801355300,11.898355224609375,-6.896270751953125,-18.485427856445312,0.430206298828125
1715093192811304000,11.908303955078125,-6.8244476318359375,-14.851028442382812,5.28564453125
1715093192821283300,11.918283447265624,-5.9481658935546875,-12.459213256835938,8.68780517578125
1715093192831262500,11.928262451171875,-5.337646484375,-10.553436279296875,8.515411376953125
1715093192841211400,11.93821142578125,-3.017669677734375,-8.556671142578125,9.166641235351562
1715093192851190500,11.9481904296875,-1.475799560546875,-7.072265625,7.5146484375
1715093192861169700,11.958169677734375,-1.2148284912109375,-6.897491455078125,5.206634521484375
1715093192871118600,11.96811865234375,-1.509307861328125,-7.8216400146484375,2.0606536865234375
1715093192881097700,11.97809765625,-0.367279052734375,-8.1927490234375,0.6720123291015625
1715093192891076900,11.988076904296875,1.3110504150390625,-8.068252563476562,-0.38861083984375
1715093192901025800,11.99802587890625,2.4195709228515625,-8.396255493164062,-1.88739013671875
1715093192911005000,12.0080048828125,2.9846038818359375,-8.274154663085938,-2.2872161865234375
1715093192920984300,12.017984375,2.5895538330078125,-7.6875762939453125,-2.5841064453125
1715093192930933000,12.02793310546875,2.1083221435546875,-6.6053924560546875,-2.7947845458984375
1715093192940912000,12.037912109375,1.435546875,-5.64532470703125,-2.701416015625
1715093192950891500,12.0478916015625,1.01177978515625,-4.9845123291015625,-2.442840576171875
1715093192960840200,12.057840087890625,0.80108642578125,-4.8576202392578125,-2.220184326171875
1715093192970819300,12.0678193359375,0.5880126953125,-5.0563507080078125,-2.3805999755859375
1715093192980798700,12.077798828125,0.4587249755859375,-5.3173065185546875,-2.6822662353515625
1715093192990747400,12.087747314453125,0.4850616455078125,-5.494476318359375,-2.8307037353515625
1715093193000726500,12.0977265625,0.6334991455078125,-5.5687103271484375,-2.97674560546875
1715093193010706000,12.107705810546875,1.418792724609375,-5.4753265380859375,-2.9001312255859375
1715093193020654600,12.117654541015625,2.3764801025390625,-5.7482757568359375,-2.5027008056640625
1715093193030634000,12.127634033203124,3.0588226318359375,-6.3851318359375,-1.291229248046875
1715093193040613000,12.137613037109375,3.1689605712890625,-7.2925262451171875,-0.0582122802734375
1715093193050592300,12.14759228515625,2.9774169921875,-8.331619262695312,1.943328857421875
1715093193060541200,12.157541259765624,2.527313232421875,-8.772140502929688,5.2473297119140625
1715093193070520300,12.167520263671875,1.8162384033203125,-9.325210571289062,7.964752197265625
1715093193080499700,12.177499755859374,1.0668487548828125,-10.862289428710938,9.13311767578125
1715093193090448400,12.187448486328124,0.7484130859375,-12.815948486328125,9.099609375
1715093193100427500,12.197427490234375,0.916015625,-13.776031494140625,6.7365264892578125
1715093193110407000,12.207406982421874,1.524139404296875,-14.07769775390625,2.3192291259765625
1715093193120355600,12.21735546875,2.5249176025390625,-14.860595703125,-2.057373046875
1715093193130334700,12.227334716796875,4.4857635498046875,-16.304306030273438,-6.6614227294921875
1715093193140314000,12.237314208984374,7.746673583984375,-16.01220703125,-7.2480010986328125
1715093193150262800,12.2472626953125,6.48492431640625,-13.282821655273438,-6.3813018798828125
1715093193160242000,12.257241943359375,3.5089263916015625,-9.327606201171875,-3.9583740234375
1715093193170221300,12.26722119140625,4.3469085693359375,-7.8144683837890625,0.253021240234375
1715093193180170000,12.277169921875,-2.447845458984375,-7.1440887451171875,3.0135498046875
1715093193190149400,12.2871494140625,-4.7055816650390625,-9.054656982421875,5.50830078125
1715093193200128500,12.29712841796875,-2.9290771484375,-16.912429809570312,5.31915283203125
1715093193210077200,12.3070771484375,-7.1093597412109375,-25.610565185546875,3.8108062744140625
1715093193220056600,12.317056640625,-11.411727905273438,-27.260177612304688,-1.1092681884765625
1715093193230005200,12.327005126953125,-7.877899169921875,-22.7734375,-8.509750366210938
1715093193239984400,12.336984375,-2.10546875,-14.070510864257812,-10.33892822265625
1715093193249963800,12.3469638671875,0.1642303466796875,-7.500823974609375,-5.1722259521484375
1715093193259912400,12.356912353515625,1.6653900146484375,-5.123382568359375,-2.3973541259765625
1715093193269891600,12.3668916015625,2.5464630126953125,-3.95501708984375,-0.2832794189453125
1715093193279871000,12.37687109375,1.334991455078125,-3.528839111328125,-0.1994781494140625
1715093193289819600,12.386819580078125,0.3318328857421875,-3.7227783203125,-2.009490966796875
1715093193299799000,12.396799072265624,0.0540924072265625,-4.11541748046875,-3.90570068359375
1715093193309778200,12.406778076171875,0.8920745849609375,-5.1042327880859375,-4.820281982421875
1715093193319757300,12.41675732421875,0.350982666015625,-6.782562255859375,-6.795501708984375
1715093193329736700,12.42673681640625,0.3342132568359375,-8.712295532226562,-7.02294921875
1715093193339685400,12.436685302734375,0.5592803955078125,-11.010726928710938,-5.696563720703125
1715093193349664500,12.44666455078125,-0.4702301025390625,-12.643569946289062,-6.0078125
1715093193359644000,12.456643798828125,-1.856475830078125,-11.867843627929688,-6.7284698486328125
1715093193369592600,12.466592529296875,-0.4486846923828125,-9.341964721679688,-6.4291839599609375
1715093193379572000,12.476572021484374,1.0093841552734375,-7.816864013671875,-6.424407958984375
1715093193389520600,12.486520751953124,2.591949462890625,-6.79931640625,-4.5712890625
1715093193399499800,12.496499755859375,3.1689605712890625,-6.179229736328125,-4.0876617431640625
1715093193409479200,12.506479248046874,2.6805419921875,-6.064300537109375,-2.272857666015625
1715093193419427800,12.516427734375,-0.2044677734375,-6.1624603271484375,-3.2017974853515625
1715093193429407000,12.526406982421875,-0.3648834228515625,-5.798553466796875,-1.4420623779296875
1715093193439386400,12.536386474609374,-0.283477783203125,-7.1560516357421875,1.498016357421875
1715093193449335000,12.5463349609375,-0.472625732421875,-9.040298461914062,2.3790740966796875
1715093193459314200,12.556314208984375,-0.7671051025390625,-10.594131469726562,2.3144378662109375
1715093193469293600,12.56629345703125,-1.1262359619140625,-11.264511108398438,2.67596435546875
1715093193479242200,12.5762421875,-1.444671630859375,-11.40576171875,2.6472320556640625
1715093193489221600,12.5862216796875,-1.6385955810546875,-11.020294189453125,2.16839599609375
1715093193499200800,12.59620068359375,-1.90435791015625,-10.225418090820312,1.6273040771484375
1715093193509149400,12.6061494140625,-1.5117034912109375,-9.729827880859375,1.2897186279296875
1715093193519128800,12.61612890625,-1.523681640625,-9.39703369140625,1.1005706787109375
1715093193529108000,12.62610791015625,-1.4111480712890625,-9.109725952148438,1.3232421875
1715093193539056600,12.636056640625,-1.9761810302734375,-9.004379272460938,2.0127716064453125
1715093193549036000,12.6460361328125,-1.672119140625,-8.88946533203125,2.46527099609375
1715093193559015200,12.65601513671875,-1.0592041015625,-8.867919921875,2.8267974853515625
1715093193568963800,12.6659638671875,0.149871826171875,-8.764968872070312,3.0111541748046875
1715093193578943200,12.675943115234375,2.2352142333984375,-8.717071533203125,3.77490234375
1715093193588922400,12.68592236328125,3.9805908203125,-8.42498779296875,3.82757568359375
1715093193598901800,12.69590185546875,4.79461669921875,-7.6851806640625,3.7198333740234375
1715093193608850400,12.705850341796875,3.6669464111328125,-6.70355224609375,3.760528564453125
1715093193618829600,12.71582958984375,1.988616943359375,-6.1193695068359375,2.6951141357421875
1715093193628809000,12.72580908203125,0.23126220703125,-6.8065032958984375,1.41900634765625
1715093193638757600,12.735757568359375,-1.3991851806640625,-9.119308471679688,0.590606689453125
1715093193648737000,12.745737060546874,-1.2986297607421875,-12.05938720703125,-0.288055419921875
1715093193658716200,12.755716064453125,-0.86767578125,-14.127975463867188,-0.647186279296875
1715093193668664800,12.765664794921875,-0.0368804931640625,-14.815109252929688,-1.4157257080078125
1715093193678644200,12.775644287109374,2.35491943359375,-14.992279052734375,-1.997528076171875
1715093193688623400,12.785623291015625,4.5121002197265625,-14.592453002929688,-1.9496307373046875
1715093193698572000,12.795572021484375,4.038055419921875,-12.880599975585938,-0.87225341796875
1715093193708551400,12.805551513671874,1.0213623046875,-10.804824829101562,0.358367919921875
1715093193718530600,12.815530517578125,0.2001495361328125,-8.664413452148438,1.7230682373046875
1715093193728479200,12.825479248046875,0.3270416259765625,-7.1871795654296875,2.4556884765625
1715093193738458600,12.835458740234374,-0.915557861328125,-6.3348541259765625,2.005584716796875
1715093193748437800,12.845437744140625,-2.352081298828125,-6.3085174560546875,0.98565673828125
1715093193758386700,12.85538671875,-2.7806396484375,-6.3611907958984375,-0.16595458984375
1715093193768365800,12.86536572265625,-2.8213348388671875,-6.5431365966796875,-2.04541015625
1715093193778345000,12.875344970703125,-2.3041839599609375,-7.163238525390625,-4.72930908203125
1715093193788294000,12.8852939453125,-2.8835906982421875,-8.800872802734375,-7.8465576171875
1715093193798273000,12.89527294921875,-4.710357666015625,-11.0777587890625,-10.195266723632812
1715093193808252200,12.905252197265625,-6.125335693359375,-13.127197265625,-11.48095703125
1715093193818201000,12.915201171875,-6.156463623046875,-15.803909301757812,-12.773818969726562
1715093193828180200,12.92518017578125,-5.5148162841796875,-19.40240478515625,-13.37237548828125
1715093193838129000,12.93512890625,-3.7885894775390625,-21.820541381835938,-10.212020874023438
1715093193848108300,12.9451083984375,-3.66888427734375,-20.896377563476562,-4.554534912109375
1715093193858087400,12.95508740234375,-4.5116424560546875,-17.937149047851562,0.616943359375
1715093193868066800,12.96506689453125,-4.413482666015625,-14.649917602539062,5.8386993408203125
1715093193878015500,12.975015380859375,-6.2666015625,-12.557373046875,6.590484619140625
1715093193887994600,12.98499462890625,-5.608184814453125,-10.352325439453125,8.450775146484375
1715093193897974000,12.99497412109375,-3.2139892578125,-8.223876953125,8.850601196289062
1715093193907953200,13.004953125,-1.8325347900390625,-6.6939849853515625,6.9879150390625
1715093193917901800,13.01490185546875,-1.3369293212890625,-6.9381866455078125,3.8898162841796875
1715093193927881200,13.024881103515625,-0.90118408203125,-7.7593994140625,1.550689697265625
1715093193937860400,13.0348603515625,0.8561553955078125,-7.8623504638671875,0.358367919921875
1715093193947809300,13.044809326171874,2.1298675537109375,-8.367523193359375,-1.3510894775390625
1715093193957788400,13.054788330078125,3.4083709716796875,-8.729049682617188,-2.653533935546875
